"group","subject","blockcode","trialcode","trialnum","stimulus","encoding_condition","old_object_condition","response","correct","latency"
"20","20","encoding","encoding","1","H33.jpg","1",".","37","0","908"
"20","20","encoding","encoding","2","G67.jpg","3",".","37","0","831"
"20","20","encoding","encoding","3","G35.jpg","3",".","0","0","1000"
"20","20","encoding","encoding","4","G7.jpg","3",".","0","0","1000"
"20","20","encoding","encoding","5","G45.jpg","3",".","36","0","759"
"20","20","encoding","encoding","6","H72.jpg","1",".","37","0","858"
"20","20","encoding","encoding","7","G24.jpg","3",".","37","0","733"
"20","20","encoding","encoding","8","G60.jpg","3",".","36","0","686"
"20","20","encoding","encoding","9","G9.jpg","3",".","37","0","516"
"20","20","encoding","encoding","10","H17.jpg","1",".","37","0","823"
"20","20","encoding","encoding","11","G74.jpg","3",".","37","0","554"
"20","20","encoding","encoding","12","G3.jpg","3",".","37","0","717"
"20","20","encoding","encoding","13","H32.jpg","1",".","37","0","961"
"20","20","encoding","encoding","14","G5.jpg","3",".","37","0","900"
"20","20","encoding","encoding","15","G72.jpg","3",".","37","0","887"
"20","20","encoding","encoding","16","H61.jpg","1",".","37","0","522"
"20","20","encoding","encoding","17","H49.jpg","1",".","37","0","718"
"20","20","encoding","encoding","18","G69.jpg","3",".","37","0","656"
"20","20","encoding","encoding","19","G16.jpg","3",".","37","0","707"
"20","20","encoding","encoding","20","H42.jpg","1",".","37","0","614"
"20","20","encoding","encoding","21","G46.jpg","3",".","37","0","987"
"20","20","encoding","encoding","22","G64.jpg","3",".","37","0","637"
"20","20","encoding","encoding","23","G70.jpg","3",".","37","0","592"
"20","20","encoding","encoding","24","G14.jpg","3",".","37","0","579"
"20","20","encoding","encoding","25","G9.jpg","3",".","37","0","599"
"20","20","encoding","encoding","26","G43.jpg","3",".","37","0","506"
"20","20","encoding","encoding","27","H67.jpg","1",".","37","0","832"
"20","20","encoding","encoding","28","G64.jpg","3",".","37","0","543"
"20","20","encoding","encoding","29","H68.jpg","1",".","37","0","658"
"20","20","encoding","encoding","30","H38.jpg","1",".","37","0","709"
"20","20","encoding","encoding","31","H27.jpg","1",".","37","0","553"
"20","20","encoding","encoding","32","G35.jpg","3",".","37","0","635"
"20","20","encoding","encoding","33","G75.jpg","3",".","36","0","766"
"20","20","encoding","encoding","34","G77.jpg","3",".","37","0","577"
"20","20","encoding","encoding","35","H30.jpg","1",".","37","0","693"
"20","20","encoding","encoding","36","G73.jpg","3",".","36","0","616"
"20","20","encoding","encoding","37","G68.jpg","3",".","37","0","731"
"20","20","encoding","encoding","38","G1.jpg","3",".","37","0","814"
"20","20","encoding","encoding","39","G65.jpg","3",".","37","0","514"
"20","20","encoding","encoding","40","G43.jpg","3",".","37","0","453"
"20","20","encoding","encoding","41","H13.jpg","1",".","37","0","488"
"20","20","encoding","encoding","42","H55.jpg","1",".","37","0","395"
"20","20","encoding","encoding","43","G36.jpg","3",".","36","0","814"
"20","20","encoding","encoding","44","H71.jpg","1",".","37","0","690"
"20","20","encoding","encoding","45","H15.jpg","1",".","37","0","661"
"20","20","encoding","encoding","46","G31.jpg","3",".","0","0","1000"
"20","20","encoding","encoding","47","G15.jpg","3",".","36","0","555"
"20","20","encoding","encoding","48","G28.jpg","3",".","37","0","606"
"20","20","encoding","encoding","49","H14.jpg","1",".","37","0","510"
"20","20","encoding","encoding","50","G55.jpg","3",".","0","0","1000"
"20","20","encoding","encoding","51","G25.jpg","3",".","37","0","616"
"20","20","encoding","encoding","52","G26.jpg","3",".","36","0","827"
"20","20","encoding","encoding","53","H39.jpg","1",".","37","0","718"
"20","20","encoding","encoding","54","G42.jpg","3",".","37","0","561"
"20","20","encoding","encoding","55","G60.jpg","3",".","36","0","613"
"20","20","encoding","encoding","56","G39.jpg","3",".","37","0","488"
"20","20","encoding","encoding","57","H21.jpg","1",".","37","0","603"
"20","20","encoding","encoding","58","H6.jpg","1",".","37","0","590"
"20","20","encoding","encoding","59","H5.jpg","1",".","37","0","641"
"20","20","encoding","encoding","60","H41.jpg","1",".","37","0","468"
"20","20","encoding","encoding","61","G51.jpg","3",".","37","0","647"
"20","20","encoding","encoding","62","G26.jpg","3",".","37","0","490"
"20","20","encoding","encoding","63","G64.jpg","3",".","37","0","605"
"20","20","encoding","encoding","64","G49.jpg","3",".","36","0","657"
"20","20","encoding","encoding","65","G2.jpg","3",".","37","0","676"
"20","20","encoding","encoding","67","G13.jpg","3",".","37","0","532"
"20","20","encoding","encoding","68","G19.jpg","3",".","37","0","566"
"20","20","encoding","encoding","69","G71.jpg","3",".","37","0","506"
"20","20","encoding","encoding","70","G40.jpg","3",".","37","0","557"
"20","20","encoding","encoding","71","G21.jpg","3",".","37","0","432"
"20","20","encoding","encoding","72","H44.jpg","1",".","37","0","611"
"20","20","encoding","encoding","73","H53.jpg","1",".","37","0","502"
"20","20","encoding","encoding","74","G79.jpg","3",".","37","0","553"
"20","20","encoding","encoding","75","G4.jpg","3",".","37","0","540"
"20","20","encoding","encoding","76","G43.jpg","3",".","37","0","463"
"20","20","encoding","encoding","77","G32.jpg","3",".","37","0","482"
"20","20","encoding","encoding","78","G63.jpg","3",".","37","0","614"
"20","20","encoding","encoding","79","H76.jpg","1",".","37","0","599"
"20","20","encoding","encoding","80","G33.jpg","3",".","37","0","492"
"20","20","encoding","encoding","81","G39.jpg","3",".","37","0","463"
"20","20","encoding","encoding","82","H34.jpg","1",".","37","0","563"
"20","20","encoding","encoding","83","H60.jpg","1",".","0","0","1000"
"20","20","encoding","encoding","84","G15.jpg","3",".","37","0","409"
"20","20","encoding","encoding","85","G0.jpg","3",".","37","0","524"
"20","20","encoding","encoding","86","G49.jpg","3",".","36","0","607"
"20","20","encoding","encoding","87","G57.jpg","3",".","37","0","546"
"20","20","encoding","encoding","88","G23.jpg","3",".","37","0","533"
"20","20","encoding","encoding","89","H74.jpg","1",".","37","0","584"
"20","20","encoding","encoding","90","G11.jpg","3",".","37","0","588"
"20","20","encoding","encoding","91","G26.jpg","3",".","37","0","703"
"20","20","encoding","encoding","92","G58.jpg","3",".","0","0","1000"
"20","20","encoding","encoding","93","G33.jpg","3",".","37","0","645"
"20","20","encoding","encoding","94","G65.jpg","3",".","37","0","569"
"20","20","encoding","encoding","95","G56.jpg","3",".","37","0","476"
"20","20","encoding","encoding","96","G7.jpg","3",".","36","0","767"
"20","20","encoding","encoding","97","G23.jpg","3",".","37","0","482"
"20","20","encoding","encoding","98","H47.jpg","1",".","37","0","517"
"20","20","encoding","encoding","99","G71.jpg","3",".","37","0","744"
"20","20","encoding","encoding","100","G17.jpg","3",".","37","0","619"
"20","20","encoding","encoding","101","G53.jpg","3",".","37","0","620"
"20","20","encoding","encoding","102","G78.jpg","3",".","37","0","577"
"20","20","encoding","encoding","103","G27.jpg","3",".","37","0","836"
"20","20","encoding","encoding","104","H43.jpg","1",".","37","0","647"
"20","20","encoding","encoding","105","G29.jpg","3",".","37","0","423"
"20","20","encoding","encoding","106","H69.jpg","1",".","37","0","654"
"20","20","encoding","encoding","107","G48.jpg","3",".","37","0","897"
"20","20","encoding","encoding","108","H23.jpg","1",".","37","0","980"
"20","20","encoding","encoding","109","G78.jpg","3",".","37","0","632"
"20","20","encoding","encoding","110","H4.jpg","1",".","37","0","794"
"20","20","encoding","encoding","111","G52.jpg","3",".","37","0","590"
"20","20","encoding","encoding","112","G58.jpg","3",".","37","0","561"
"20","20","encoding","encoding","113","G8.jpg","3",".","37","0","581"
"20","20","encoding","encoding","114","G52.jpg","3",".","37","0","568"
"20","20","encoding","encoding","115","G53.jpg","3",".","37","0","555"
"20","20","encoding","encoding","116","G12.jpg","3",".","37","0","829"
"20","20","encoding","encoding","117","H51.jpg","1",".","37","0","816"
"20","20","encoding","encoding","118","H12.jpg","1",".","37","0","484"
"20","20","encoding","encoding","119","G22.jpg","3",".","37","0","487"
"20","20","encoding","encoding","120","G56.jpg","3",".","37","0","538"
"20","20","encoding","encoding","121","H52.jpg","1",".","37","0","780"
"20","20","encoding","encoding","122","G25.jpg","3",".","37","0","753"
"20","20","encoding","encoding","123","G66.jpg","3",".","37","0","538"
"20","20","encoding","encoding","124","G29.jpg","3",".","37","0","551"
"20","20","encoding","encoding","125","G55.jpg","3",".","37","0","474"
"20","20","encoding","encoding","126","G31.jpg","3",".","37","0","476"
"20","20","encoding","encoding","127","H66.jpg","1",".","37","0","545"
"20","20","encoding","encoding","128","G44.jpg","3",".","37","0","532"
"20","20","encoding","encoding","129","G61.jpg","3",".","37","0","471"
"20","20","encoding","encoding","130","G12.jpg","3",".","37","0","458"
"20","20","encoding","encoding","131","G49.jpg","3",".","37","0","621"
"20","20","encoding","encoding","133","H62.jpg","1",".","37","0","552"
"20","20","encoding","encoding","134","G1.jpg","3",".","37","0","507"
"20","20","encoding","encoding","135","G10.jpg","3",".","37","0","654"
"20","20","encoding","encoding","136","G20.jpg","3",".","37","0","481"
"20","20","encoding","encoding","137","G28.jpg","3",".","37","0","452"
"20","20","encoding","encoding","138","G62.jpg","3",".","37","0","424"
"20","20","encoding","encoding","139","G20.jpg","3",".","37","0","443"
"20","20","encoding","encoding","140","G46.jpg","3",".","37","0","878"
"20","20","encoding","encoding","141","G39.jpg","3",".","37","0","801"
"20","20","encoding","encoding","142","G37.jpg","3",".","37","0","516"
"20","20","encoding","encoding","143","H26.jpg","1",".","37","0","439"
"20","20","encoding","encoding","144","G60.jpg","3",".","36","0","553"
"20","20","encoding","encoding","145","G54.jpg","3",".","37","0","557"
"20","20","encoding","encoding","146","G36.jpg","3",".","0","0","1000"
"20","20","encoding","encoding","147","G32.jpg","3",".","0","0","1000"
"20","20","encoding","encoding","148","G79.jpg","3",".","37","0","903"
"20","20","encoding","encoding","149","G47.jpg","3",".","37","0","506"
"20","20","encoding","encoding","150","G74.jpg","3",".","37","0","476"
"20","20","encoding","encoding","151","G35.jpg","3",".","37","0","511"
"20","20","encoding","encoding","152","G78.jpg","3",".","37","0","787"
"20","20","encoding","encoding","153","G40.jpg","3",".","37","0","517"
"20","20","encoding","encoding","154","G75.jpg","3",".","37","0","473"
"20","20","encoding","encoding","155","G45.jpg","3",".","37","0","429"
"20","20","encoding","encoding","156","G62.jpg","3",".","37","0","528"
"20","20","encoding","encoding","157","H57.jpg","1",".","37","0","547"
"20","20","encoding","encoding","158","H19.jpg","1",".","37","0","390"
"20","20","encoding","encoding","159","G11.jpg","3",".","36","0","568"
"20","20","encoding","encoding","160","G41.jpg","3",".","36","0","470"
"20","20","encoding","encoding","161","G18.jpg","3",".","37","0","431"
"20","20","encoding","encoding","162","G19.jpg","3",".","37","0","530"
"20","20","encoding","encoding","163","H58.jpg","1",".","37","0","549"
"20","20","encoding","encoding","164","G11.jpg","3",".","37","0","441"
"20","20","encoding","encoding","165","H3.jpg","1",".","37","0","444"
"20","20","encoding","encoding","166","G34.jpg","3",".","37","0","542"
"20","20","encoding","encoding","167","G0.jpg","3",".","37","0","530"
"20","20","encoding","encoding","168","G10.jpg","3",".","37","0","582"
"20","20","encoding","encoding","169","G74.jpg","3",".","37","0","521"
"20","20","encoding","encoding","170","G47.jpg","3",".","37","0","492"
"20","20","encoding","encoding","171","G69.jpg","3",".","37","0","511"
"20","20","encoding","encoding","172","G70.jpg","3",".","37","0","561"
"20","20","encoding","encoding","173","G6.jpg","3",".","37","0","533"
"20","20","encoding","encoding","174","G73.jpg","3",".","36","0","632"
"20","20","encoding","encoding","175","H16.jpg","1",".","37","0","521"
"20","20","encoding","encoding","176","G59.jpg","3",".","37","0","570"
"20","20","encoding","encoding","177","G8.jpg","3",".","37","0","434"
"20","20","encoding","encoding","178","H10.jpg","1",".","37","0","608"
"20","20","encoding","encoding","179","G41.jpg","3",".","37","0","546"
"20","20","encoding","encoding","180","G40.jpg","3",".","37","0","439"
"20","20","encoding","encoding","181","H79.jpg","1",".","37","0","778"
"20","20","encoding","encoding","182","G24.jpg","3",".","37","0","583"
"20","20","encoding","encoding","183","H8.jpg","1",".","37","0","785"
"20","20","encoding","encoding","184","G66.jpg","3",".","37","0","628"
"20","20","encoding","encoding","185","G2.jpg","3",".","37","0","471"
"20","20","encoding","encoding","186","G38.jpg","3",".","36","0","665"
"20","20","encoding","encoding","187","G51.jpg","3",".","37","0","461"
"20","20","encoding","encoding","188","G72.jpg","3",".","37","0","608"
"20","20","encoding","encoding","189","G28.jpg","3",".","37","0","899"
"20","20","encoding","encoding","190","G77.jpg","3",".","37","0","918"
"20","20","encoding","encoding","191","G7.jpg","3",".","37","0","778"
"20","20","encoding","encoding","192","G66.jpg","3",".","37","0","619"
"20","20","encoding","encoding","193","H54.jpg","1",".","37","0","736"
"20","20","encoding","encoding","194","G72.jpg","3",".","37","0","803"
"20","20","encoding","encoding","195","G38.jpg","3",".","0","0","1000"
"20","20","encoding","encoding","196","H45.jpg","1",".","36","0","714"
"20","20","encoding","encoding","197","G65.jpg","3",".","37","0","653"
"20","20","encoding","encoding","199","G9.jpg","3",".","37","0","534"
"20","20","encoding","encoding","200","G70.jpg","3",".","37","0","487"
"20","20","encoding","encoding","201","G71.jpg","3",".","37","0","474"
"20","20","encoding","encoding","202","G75.jpg","3",".","37","0","398"
"20","20","encoding","encoding","203","G50.jpg","3",".","37","0","417"
"20","20","encoding","encoding","204","H0.jpg","1",".","37","0","564"
"20","20","encoding","encoding","205","G8.jpg","3",".","37","0","551"
"20","20","encoding","encoding","206","G63.jpg","3",".","36","0","778"
"20","20","encoding","encoding","207","G5.jpg","3",".","0","0","1000"
"20","20","encoding","encoding","208","G59.jpg","3",".","37","0","576"
"20","20","encoding","encoding","209","H29.jpg","1",".","37","0","852"
"20","20","encoding","encoding","210","H37.jpg","1",".","0","0","1000"
"20","20","encoding","encoding","211","G31.jpg","3",".","37","0","458"
"20","20","encoding","encoding","212","H2.jpg","1",".","37","0","413"
"20","20","encoding","encoding","213","H20.jpg","1",".","37","0","576"
"20","20","encoding","encoding","214","G76.jpg","3",".","37","0","691"
"20","20","encoding","encoding","215","H77.jpg","1",".","37","0","720"
"20","20","encoding","encoding","216","G21.jpg","3",".","37","0","521"
"20","20","encoding","encoding","217","G14.jpg","3",".","37","0","509"
"20","20","encoding","encoding","218","G10.jpg","3",".","37","0","640"
"20","20","encoding","encoding","219","G50.jpg","3",".","37","0","515"
"20","20","encoding","encoding","220","G61.jpg","3",".","37","0","598"
"20","20","encoding","encoding","221","G5.jpg","3",".","37","0","477"
"20","20","encoding","encoding","222","G1.jpg","3",".","37","0","565"
"20","20","encoding","encoding","223","G14.jpg","3",".","37","0","543"
"20","20","encoding","encoding","224","G13.jpg","3",".","37","0","851"
"20","20","encoding","encoding","225","G30.jpg","3",".","37","0","934"
"20","20","encoding","encoding","226","G41.jpg","3",".","37","0","537"
"20","20","encoding","encoding","227","G19.jpg","3",".","37","0","412"
"20","20","encoding","encoding","228","G17.jpg","3",".","37","0","303"
"20","20","encoding","encoding","229","G36.jpg","3",".","36","0","625"
"20","20","encoding","encoding","230","H35.jpg","1",".","36","0","933"
"20","20","encoding","encoding","231","G25.jpg","3",".","37","0","775"
"20","20","encoding","encoding","232","G37.jpg","3",".","37","0","940"
"20","20","encoding","encoding","233","H64.jpg","1",".","36","0","687"
"20","20","encoding","encoding","234","H11.jpg","1",".","37","0","610"
"20","20","encoding","encoding","235","G32.jpg","3",".","37","0","533"
"20","20","encoding","encoding","236","H28.jpg","1",".","36","0","538"
"20","20","encoding","encoding","237","H18.jpg","1",".","37","0","491"
"20","20","encoding","encoding","238","H59.jpg","1",".","36","0","847"
"20","20","encoding","encoding","239","G47.jpg","3",".","37","0","602"
"20","20","encoding","encoding","240","G22.jpg","3",".","37","0","918"
"20","20","encoding","encoding","241","G6.jpg","3",".","0","0","1000"
"20","20","encoding","encoding","242","G27.jpg","3",".","37","0","539"
"20","20","encoding","encoding","243","G69.jpg","3",".","37","0","910"
"20","20","encoding","encoding","244","H36.jpg","1",".","0","0","1000"
"20","20","encoding","encoding","245","G33.jpg","3",".","37","0","436"
"20","20","encoding","encoding","246","H56.jpg","1",".","37","0","423"
"20","20","encoding","encoding","247","G3.jpg","3",".","37","0","507"
"20","20","encoding","encoding","248","H24.jpg","1",".","0","0","1000"
"20","20","encoding","encoding","249","G15.jpg","3",".","37","0","80"
"20","20","encoding","encoding","250","H50.jpg","1",".","37","0","852"
"20","20","encoding","encoding","251","G16.jpg","3",".","0","0","1000"
"20","20","encoding","encoding","252","H1.jpg","1",".","0","0","1000"
"20","20","encoding","encoding","253","H73.jpg","1",".","37","0","573"
"20","20","encoding","encoding","254","G73.jpg","3",".","37","0","257"
"20","20","encoding","encoding","255","G46.jpg","3",".","37","0","596"
"20","20","encoding","encoding","256","G76.jpg","3",".","37","0","435"
"20","20","encoding","encoding","257","G12.jpg","3",".","37","0","889"
"20","20","encoding","encoding","258","G67.jpg","3",".","37","0","669"
"20","20","encoding","encoding","259","G23.jpg","3",".","0","0","1000"
"20","20","encoding","encoding","260","G62.jpg","3",".","0","0","1000"
"20","20","encoding","encoding","261","G45.jpg","3",".","37","0","694"
"20","20","encoding","encoding","262","G42.jpg","3",".","36","0","586"
"20","20","encoding","encoding","263","G16.jpg","3",".","37","0","909"
"20","20","encoding","encoding","265","H78.jpg","1",".","37","0","439"
"20","20","encoding","encoding","266","G79.jpg","3",".","37","0","570"
"20","20","encoding","encoding","267","H70.jpg","1",".","36","0","797"
"20","20","encoding","encoding","268","H31.jpg","1",".","37","0","480"
"20","20","encoding","encoding","269","G63.jpg","3",".","36","0","564"
"20","20","encoding","encoding","270","G44.jpg","3",".","36","0","580"
"20","20","encoding","encoding","271","H7.jpg","1",".","36","0","569"
"20","20","encoding","encoding","272","G55.jpg","3",".","37","0","508"
"20","20","encoding","encoding","273","G51.jpg","3",".","37","0","817"
"20","20","encoding","encoding","274","G4.jpg","3",".","37","0","482"
"20","20","encoding","encoding","275","G3.jpg","3",".","37","0","486"
"20","20","encoding","encoding","276","G37.jpg","3",".","37","0","521"
"20","20","encoding","encoding","277","G57.jpg","3",".","37","0","460"
"20","20","encoding","encoding","278","G18.jpg","3",".","37","0","400"
"20","20","encoding","encoding","279","H9.jpg","1",".","37","0","836"
"20","20","encoding","encoding","280","G22.jpg","3",".","37","0","614"
"20","20","encoding","encoding","281","G48.jpg","3",".","37","0","921"
"20","20","encoding","encoding","282","G17.jpg","3",".","0","0","1000"
"20","20","encoding","encoding","283","G6.jpg","3",".","37","0","496"
"20","20","encoding","encoding","284","H25.jpg","1",".","37","0","466"
"20","20","encoding","encoding","285","G68.jpg","3",".","37","0","421"
"20","20","encoding","encoding","286","G27.jpg","3",".","37","0","457"
"20","20","encoding","encoding","287","G24.jpg","3",".","37","0","989"
"20","20","encoding","encoding","288","G2.jpg","3",".","0","0","1000"
"20","20","encoding","encoding","289","G50.jpg","3",".","37","0","434"
"20","20","encoding","encoding","290","G30.jpg","3",".","37","0","630"
"20","20","encoding","encoding","291","G34.jpg","3",".","37","0","553"
"20","20","encoding","encoding","292","G59.jpg","3",".","37","0","444"
"20","20","encoding","encoding","293","G52.jpg","3",".","37","0","511"
"20","20","encoding","encoding","294","H40.jpg","1",".","37","0","323"
"20","20","encoding","encoding","295","G58.jpg","3",".","37","0","742"
"20","20","encoding","encoding","296","G54.jpg","3",".","37","0","537"
"20","20","encoding","encoding","297","G54.jpg","3",".","37","0","460"
"20","20","encoding","encoding","298","G56.jpg","3",".","37","0","399"
"20","20","encoding","encoding","299","H63.jpg","1",".","37","0","417"
"20","20","encoding","encoding","300","G61.jpg","3",".","37","0","436"
"20","20","encoding","encoding","301","H46.jpg","1",".","0","0","1000"
"20","20","encoding","encoding","302","G13.jpg","3",".","37","0","618"
"20","20","encoding","encoding","303","G57.jpg","3",".","37","0","467"
"20","20","encoding","encoding","304","G30.jpg","3",".","37","0","384"
"20","20","encoding","encoding","305","G21.jpg","3",".","37","0","420"
"20","20","encoding","encoding","306","G20.jpg","3",".","37","0","839"
"20","20","encoding","encoding","307","G48.jpg","3",".","0","0","1000"
"20","20","encoding","encoding","308","G53.jpg","3",".","37","0","366"
"20","20","encoding","encoding","309","G4.jpg","3",".","37","0","577"
"20","20","encoding","encoding","310","H22.jpg","1",".","37","0","484"
"20","20","encoding","encoding","311","G77.jpg","3",".","37","0","423"
"20","20","encoding","encoding","312","H75.jpg","1",".","37","0","427"
"20","20","encoding","encoding","313","G67.jpg","3",".","37","0","683"
"20","20","encoding","encoding","314","H48.jpg","1",".","37","0","592"
"20","20","encoding","encoding","315","G18.jpg","3",".","37","0","435"
"20","20","encoding","encoding","316","G34.jpg","3",".","37","0","311"
"20","20","encoding","encoding","317","G42.jpg","3",".","37","0","522"
"20","20","encoding","encoding","318","H65.jpg","1",".","37","0","397"
"20","20","encoding","encoding","319","G68.jpg","3",".","37","0","352"
"20","20","encoding","encoding","320","G38.jpg","3",".","37","0","324"
"20","20","encoding","encoding","321","G76.jpg","3",".","37","0","407"
"20","20","encoding","encoding","322","G29.jpg","3",".","37","0","458"
"20","20","encoding","encoding","323","G0.jpg","3",".","37","0","477"
"20","20","encoding","encoding","324","G44.jpg","3",".","36","0","800"
"20","20","encoding","encoding","325","H33.jpg","",".","37","0","468"
"20","20","retrieval","old_object","1","H6.jpg",".","1","37","0","527"
"20","20","retrieval","new_object","2","F4.jpg",".",".","37","1","984"
"20","20","retrieval","old_object","3","G2.jpg",".","3","37","0","678"
"20","20","retrieval","new_object","4","F63.jpg",".",".","37","1","801"
"20","20","retrieval","new_object","5","F32.jpg",".",".","37","1","1197"
"20","20","retrieval","new_object","6","F23.jpg",".",".","37","1","631"
"20","20","retrieval","old_object","7","G37.jpg",".","3","37","0","1171"
"20","20","retrieval","old_object","8","G6.jpg",".","3","37","0","670"
"20","20","retrieval","old_object","9","H23.jpg",".","1","37","0","1048"
"20","20","retrieval","new_object","10","E16.jpg",".",".","37","1","565"
"20","20","retrieval","old_object","11","H46.jpg",".","1","37","0","561"
"20","20","retrieval","new_object","12","E64.jpg",".",".","37","1","988"
"20","20","retrieval","new_object","13","E8.jpg",".",".","37","1","871"
"20","20","retrieval","new_object","14","F34.jpg",".",".","37","1","1027"
"20","20","retrieval","old_object","15","G38.jpg",".","3","37","0","991"
"20","20","retrieval","old_object","16","H67.jpg",".","1","37","0","810"
"20","20","retrieval","new_object","17","F17.jpg",".",".","37","1","918"
"20","20","retrieval","new_object","18","F7.jpg",".",".","37","1","897"
"20","20","retrieval","new_object","19","E63.jpg",".",".","37","1","797"
"20","20","retrieval","new_object","20","E43.jpg",".",".","37","1","1225"
"20","20","retrieval","new_object","21","F78.jpg",".",".","37","1","1488"
"20","20","retrieval","old_object","22","G62.jpg",".","3","37","0","542"
"20","20","retrieval","old_object","23","G66.jpg",".","3","37","0","693"
"20","20","retrieval","old_object","24","G3.jpg",".","3","37","0","933"
"20","20","retrieval","new_object","25","E67.jpg",".",".","37","1","609"
"20","20","retrieval","old_object","26","G26.jpg",".","3","37","0","1037"
"20","20","retrieval","new_object","27","E73.jpg",".",".","37","1","630"
"20","20","retrieval","old_object","28","H47.jpg",".","1","37","0","532"
"20","20","retrieval","old_object","29","H50.jpg",".","1","37","0","911"
"20","20","retrieval","new_object","30","E7.jpg",".",".","36","0","712"
"20","20","retrieval","old_object","31","G13.jpg",".","3","37","0","742"
"20","20","retrieval","old_object","32","H28.jpg",".","1","36","1","545"
"20","20","retrieval","new_object","33","E11.jpg",".",".","36","0","877"
"20","20","retrieval","old_object","34","H34.jpg",".","1","36","1","617"
"20","20","retrieval","old_object","35","G17.jpg",".","3","37","0","823"
"20","20","retrieval","new_object","36","F43.jpg",".",".","37","1","832"
"20","20","retrieval","new_object","37","E33.jpg",".",".","37","1","523"
"20","20","retrieval","old_object","38","H53.jpg",".","1","37","0","663"
"20","20","retrieval","new_object","39","F27.jpg",".",".","36","0","865"
"20","20","retrieval","old_object","40","G63.jpg",".","3","36","1","541"
"20","20","retrieval","new_object","41","E52.jpg",".",".","36","0","879"
"20","20","retrieval","old_object","42","H54.jpg",".","1","36","1","500"
"20","20","retrieval","old_object","43","G76.jpg",".","3","37","0","832"
"20","20","retrieval","new_object","44","E68.jpg",".",".","36","0","620"
"20","20","retrieval","new_object","45","E70.jpg",".",".","36","0","855"
"20","20","retrieval","old_object","46","H38.jpg",".","1","37","0","771"
"20","20","retrieval","new_object","47","E66.jpg",".",".","36","0","590"
"20","20","retrieval","old_object","48","G34.jpg",".","3","37","0","905"
"20","20","retrieval","new_object","49","F44.jpg",".",".","36","0","629"
"20","20","retrieval","new_object","50","E58.jpg",".",".","37","1","976"
"20","20","retrieval","new_object","51","F8.jpg",".",".","37","1","852"
"20","20","retrieval","old_object","52","H21.jpg",".","1","37","0","695"
"20","20","retrieval","old_object","53","G72.jpg",".","3","37","0","579"
"20","20","retrieval","old_object","54","H69.jpg",".","1","37","0","878"
"20","20","retrieval","new_object","55","F14.jpg",".",".","36","0","1418"
"20","20","retrieval","new_object","56","F9.jpg",".",".","36","0","821"
"20","20","retrieval","old_object","57","H48.jpg",".","1","37","0","736"
"20","20","retrieval","old_object","58","H20.jpg",".","1","36","1","1036"
"20","20","retrieval","old_object","59","G24.jpg",".","3","37","0","798"
"20","20","retrieval","old_object","60","H60.jpg",".","1","36","1","771"
"20","20","retrieval","new_object","61","E6.jpg",".",".","37","1","622"
"20","20","retrieval","new_object","62","F45.jpg",".",".","37","1","971"
"20","20","retrieval","new_object","63","E22.jpg",".",".","36","0","1270"
"20","20","retrieval","old_object","64","H33.jpg",".","1","37","0","705"
"20","20","retrieval","new_object","65","E36.jpg",".",".","37","1","1084"
"20","20","retrieval","old_object","67","G43.jpg",".","3","37","0","900"
"20","20","retrieval","new_object","68","E75.jpg",".",".","36","0","1477"
"20","20","retrieval","old_object","69","G28.jpg",".","3","37","0","624"
"20","20","retrieval","new_object","70","F64.jpg",".",".","37","1","651"
"20","20","retrieval","old_object","71","H58.jpg",".","1","36","1","839"
"20","20","retrieval","new_object","72","E30.jpg",".",".","37","1","768"
"20","20","retrieval","new_object","73","F52.jpg",".",".","37","1","606"
"20","20","retrieval","new_object","74","F70.jpg",".",".","36","0","714"
"20","20","retrieval","old_object","75","G65.jpg",".","3","36","1","1013"
"20","20","retrieval","old_object","76","G68.jpg",".","3","37","0","622"
"20","20","retrieval","old_object","77","H76.jpg",".","1","37","0","732"
"20","20","retrieval","new_object","78","E20.jpg",".",".","37","1","936"
"20","20","retrieval","new_object","79","F56.jpg",".",".","36","0","739"
"20","20","retrieval","old_object","80","G74.jpg",".","3","36","1","878"
"20","20","retrieval","new_object","81","F58.jpg",".",".","0","0","2000"
"20","20","retrieval","new_object","82","F38.jpg",".",".","36","0","1221"
"20","20","retrieval","old_object","83","H37.jpg",".","1","36","1","1297"
"20","20","retrieval","old_object","84","H78.jpg",".","1","36","1","1117"
"20","20","retrieval","old_object","85","G64.jpg",".","3","37","0","600"
"20","20","retrieval","new_object","86","E62.jpg",".",".","37","1","884"
"20","20","retrieval","old_object","87","H17.jpg",".","1","37","0","655"
"20","20","retrieval","old_object","88","H7.jpg",".","1","37","0","1419"
"20","20","retrieval","old_object","89","G10.jpg",".","3","37","0","726"
"20","20","retrieval","old_object","90","H61.jpg",".","1","37","0","561"
"20","20","retrieval","old_object","91","G55.jpg",".","3","37","0","1693"
"20","20","retrieval","new_object","92","F0.jpg",".",".","36","0","905"
"20","20","retrieval","old_object","93","H45.jpg",".","1","37","0","884"
"20","20","retrieval","old_object","94","G18.jpg",".","3","0","0","2000"
"20","20","retrieval","new_object","95","F60.jpg",".",".","37","1","588"
"20","20","retrieval","old_object","96","H73.jpg",".","1","37","0","918"
"20","20","retrieval","old_object","97","H51.jpg",".","1","36","1","818"
"20","20","retrieval","new_object","98","F46.jpg",".",".","37","1","1421"
"20","20","retrieval","old_object","99","G21.jpg",".","3","37","0","1097"
"20","20","retrieval","new_object","100","F1.jpg",".",".","36","0","1253"
"20","20","retrieval","new_object","101","E35.jpg",".",".","37","1","1408"
"20","20","retrieval","new_object","102","F41.jpg",".",".","37","1","1187"
"20","20","retrieval","old_object","103","H62.jpg",".","1","37","0","919"
"20","20","retrieval","new_object","104","E56.jpg",".",".","36","0","1090"
"20","20","retrieval","new_object","105","E46.jpg",".",".","37","1","798"
"20","20","retrieval","old_object","106","G48.jpg",".","3","37","0","905"
"20","20","retrieval","new_object","107","E54.jpg",".",".","37","1","613"
"20","20","retrieval","old_object","108","G78.jpg",".","3","37","0","769"
"20","20","retrieval","old_object","109","H42.jpg",".","1","36","1","1804"
"20","20","retrieval","new_object","110","F19.jpg",".",".","36","0","1048"
"20","20","retrieval","old_object","111","H27.jpg",".","1","37","0","755"
"20","20","retrieval","old_object","112","G23.jpg",".","3","37","0","1295"
"20","20","retrieval","old_object","113","G46.jpg",".","3","36","1","1498"
"20","20","retrieval","new_object","114","E41.jpg",".",".","37","1","1173"
"20","20","retrieval","new_object","115","E47.jpg",".",".","37","1","1649"
"20","20","retrieval","new_object","116","E57.jpg",".",".","36","0","1180"
"20","20","retrieval","new_object","117","F54.jpg",".",".","37","1","664"
"20","20","retrieval","old_object","118","H32.jpg",".","1","36","1","548"
"20","20","retrieval","new_object","119","E21.jpg",".",".","37","1","1855"
"20","20","retrieval","new_object","120","E51.jpg",".",".","0","0","2000"
"20","20","retrieval","new_object","121","F47.jpg",".",".","37","1","982"
"20","20","retrieval","old_object","122","G15.jpg",".","3","36","1","1697"
"20","20","retrieval","new_object","123","F67.jpg",".",".","37","1","1133"
"20","20","retrieval","new_object","124","E34.jpg",".",".","37","1","1160"
"20","20","retrieval","new_object","125","F39.jpg",".",".","36","0","980"
"20","20","retrieval","old_object","126","H77.jpg",".","1","37","0","608"
"20","20","retrieval","old_object","127","H75.jpg",".","1","37","0","699"
"20","20","retrieval","new_object","128","F42.jpg",".",".","37","1","1527"
"20","20","retrieval","old_object","129","H10.jpg",".","1","37","0","1074"
"20","20","retrieval","old_object","130","H44.jpg",".","1","0","0","2000"
"20","20","retrieval","old_object","131","H3.jpg",".","1","37","0","584"
"20","20","retrieval","old_object","133","H79.jpg",".","1","37","0","803"
"20","20","retrieval","new_object","134","F48.jpg",".",".","37","1","685"
"20","20","retrieval","new_object","135","F57.jpg",".",".","37","1","731"
"20","20","retrieval","old_object","136","H25.jpg",".","1","37","0","612"
"20","20","retrieval","old_object","137","G7.jpg",".","3","37","0","81"
"20","20","retrieval","new_object","138","F50.jpg",".",".","37","1","620"
"20","20","retrieval","old_object","139","H24.jpg",".","1","37","0","1001"
"20","20","retrieval","old_object","140","G29.jpg",".","3","37","0","324"
"20","20","retrieval","new_object","141","E38.jpg",".",".","37","1","528"
"20","20","retrieval","new_object","142","E76.jpg",".",".","37","1","682"
"20","20","retrieval","old_object","143","H14.jpg",".","1","37","0","294"
"20","20","retrieval","old_object","144","H4.jpg",".","1","37","0","594"
"20","20","retrieval","new_object","145","E37.jpg",".",".","37","1","557"
"20","20","retrieval","old_object","146","H40.jpg",".","1","37","0","761"
"20","20","retrieval","new_object","147","E59.jpg",".",".","37","1","1029"
"20","20","retrieval","old_object","148","H11.jpg",".","1","37","0","848"
"20","20","retrieval","old_object","149","G25.jpg",".","3","37","0","556"
"20","20","retrieval","new_object","150","F36.jpg",".",".","37","1","631"
"20","20","retrieval","new_object","151","E26.jpg",".",".","37","1","1059"
"20","20","retrieval","new_object","152","F10.jpg",".",".","37","1","613"
"20","20","retrieval","new_object","153","E19.jpg",".",".","37","1","601"
"20","20","retrieval","new_object","154","E5.jpg",".",".","36","0","853"
"20","20","retrieval","new_object","155","F31.jpg",".",".","37","1","672"
"20","20","retrieval","new_object","156","E65.jpg",".",".","36","0","764"
"20","20","retrieval","old_object","157","H71.jpg",".","1","37","0","600"
"20","20","retrieval","new_object","158","E53.jpg",".",".","36","0","675"
"20","20","retrieval","new_object","159","F35.jpg",".",".","37","1","1246"
"20","20","retrieval","old_object","160","H52.jpg",".","1","37","0","730"
"20","20","retrieval","old_object","161","G12.jpg",".","3","37","0","533"
"20","20","retrieval","old_object","162","G54.jpg",".","3","37","0","625"
"20","20","retrieval","new_object","163","F30.jpg",".",".","36","0","652"
"20","20","retrieval","old_object","164","G20.jpg",".","3","37","0","1192"
"20","20","retrieval","old_object","165","G30.jpg",".","3","36","1","804"
"20","20","retrieval","new_object","166","E12.jpg",".",".","37","1","1455"
"20","20","retrieval","old_object","167","G0.jpg",".","3","37","0","634"
"20","20","retrieval","new_object","168","E3.jpg",".",".","37","1","949"
"20","20","retrieval","new_object","169","F18.jpg",".",".","37","1","1089"
"20","20","retrieval","new_object","170","E31.jpg",".",".","37","1","1292"
"20","20","retrieval","new_object","171","E9.jpg",".",".","37","1","968"
"20","20","retrieval","new_object","172","F73.jpg",".",".","37","1","1571"
"20","20","retrieval","old_object","173","H72.jpg",".","1","37","0","1375"
"20","20","retrieval","new_object","174","F12.jpg",".",".","37","1","746"
"20","20","retrieval","new_object","175","E71.jpg",".",".","37","1","198"
"20","20","retrieval","old_object","176","G60.jpg",".","3","36","1","1010"
"20","20","retrieval","new_object","177","E0.jpg",".",".","36","0","252"
"20","20","retrieval","new_object","178","F13.jpg",".",".","37","1","183"
"20","20","retrieval","old_object","179","G5.jpg",".","3","36","1","484"
"20","20","retrieval","old_object","180","H63.jpg",".","1","37","0","100"
"20","20","retrieval","new_object","181","F25.jpg",".",".","37","1","747"
"20","20","retrieval","new_object","182","E77.jpg",".",".","37","1","726"
"20","20","retrieval","new_object","183","F77.jpg",".",".","37","1","1218"
"20","20","retrieval","old_object","184","H22.jpg",".","1","37","0","589"
"20","20","retrieval","new_object","185","E42.jpg",".",".","36","0","1833"
"20","20","retrieval","old_object","186","G79.jpg",".","3","37","0","514"
"20","20","retrieval","old_object","187","G51.jpg",".","3","37","0","1904"
"20","20","retrieval","new_object","188","E78.jpg",".",".","37","1","762"
"20","20","retrieval","old_object","189","H49.jpg",".","1","37","0","758"
"20","20","retrieval","new_object","190","F74.jpg",".",".","36","0","1654"
"20","20","retrieval","new_object","191","E72.jpg",".",".","37","1","1597"
"20","20","retrieval","new_object","192","E13.jpg",".",".","36","0","553"
"20","20","retrieval","old_object","193","H65.jpg",".","1","37","0","1061"
"20","20","retrieval","old_object","194","G35.jpg",".","3","37","0","1263"
"20","20","retrieval","old_object","195","H36.jpg",".","1","36","1","1291"
"20","20","retrieval","old_object","196","G16.jpg",".","3","37","0","582"
"20","20","retrieval","old_object","197","H56.jpg",".","1","37","0","674"
"20","20","retrieval","new_object","199","E28.jpg",".",".","37","1","628"
"20","20","retrieval","old_object","200","H59.jpg",".","1","36","1","719"
"20","20","retrieval","new_object","201","F37.jpg",".",".","37","1","939"
"20","20","retrieval","old_object","202","H5.jpg",".","1","37","0","729"
"20","20","retrieval","new_object","203","E32.jpg",".",".","36","0","642"
"20","20","retrieval","new_object","204","F28.jpg",".",".","37","1","878"
"20","20","retrieval","old_object","205","H35.jpg",".","1","36","1","1049"
"20","20","retrieval","new_object","206","E10.jpg",".",".","36","0","1333"
"20","20","retrieval","old_object","207","G67.jpg",".","3","37","0","1008"
"20","20","retrieval","old_object","208","G75.jpg",".","3","36","1","619"
"20","20","retrieval","new_object","209","F51.jpg",".",".","36","0","791"
"20","20","retrieval","old_object","210","H0.jpg",".","1","37","0","694"
"20","20","retrieval","old_object","211","G47.jpg",".","3","37","0","1790"
"20","20","retrieval","old_object","212","G36.jpg",".","3","36","1","665"
"20","20","retrieval","old_object","213","G50.jpg",".","3","37","0","549"
"20","20","retrieval","old_object","214","G45.jpg",".","3","37","0","950"
"20","20","retrieval","new_object","215","E79.jpg",".",".","36","0","908"
"20","20","retrieval","old_object","216","G33.jpg",".","3","37","0","936"
"20","20","retrieval","new_object","217","E60.jpg",".",".","37","1","1586"
"20","20","retrieval","new_object","218","F6.jpg",".",".","36","0","1182"
"20","20","retrieval","new_object","219","E27.jpg",".",".","36","0","1674"
"20","20","retrieval","new_object","220","F76.jpg",".",".","36","0","597"
"20","20","retrieval","old_object","221","G77.jpg",".","3","37","0","1825"
"20","20","retrieval","new_object","222","E55.jpg",".",".","37","1","1245"
"20","20","retrieval","new_object","223","F59.jpg",".",".","37","1","1464"
"20","20","retrieval","old_object","224","G4.jpg",".","3","0","0","2000"
"20","20","retrieval","new_object","225","F16.jpg",".",".","36","0","542"
"20","20","retrieval","new_object","226","E25.jpg",".",".","36","0","74"
"20","20","retrieval","new_object","227","F62.jpg",".",".","36","0","518"
"20","20","retrieval","old_object","228","H74.jpg",".","1","0","0","2000"
"20","20","retrieval","new_object","229","F21.jpg",".",".","37","1","1965"
"20","20","retrieval","old_object","230","H41.jpg",".","1","36","1","217"
"20","20","retrieval","old_object","231","G53.jpg",".","3","37","0","932"
"20","20","retrieval","new_object","232","E4.jpg",".",".","36","0","655"
"20","20","retrieval","new_object","233","F65.jpg",".",".","37","1","187"
"20","20","retrieval","old_object","234","G73.jpg",".","3","37","0","295"
"20","20","retrieval","new_object","235","F40.jpg",".",".","0","0","2000"
"20","20","retrieval","old_object","236","H8.jpg",".","1","37","0","749"
"20","20","retrieval","new_object","237","F75.jpg",".",".","36","0","920"
"20","20","retrieval","new_object","238","F55.jpg",".",".","36","0","229"
"20","20","retrieval","old_object","239","H16.jpg",".","1","37","0","64"
"20","20","retrieval","new_object","240","E39.jpg",".",".","37","1","220"
"20","20","retrieval","old_object","241","G31.jpg",".","3","0","0","2000"
"20","20","retrieval","old_object","242","G44.jpg",".","3","36","1","370"
"20","20","retrieval","new_object","243","E24.jpg",".",".","37","1","1662"
"20","20","retrieval","old_object","244","G41.jpg",".","3","36","1","314"
"20","20","retrieval","old_object","245","G27.jpg",".","3","36","1","1269"
"20","20","retrieval","new_object","246","E49.jpg",".",".","36","0","0"
"20","20","retrieval","new_object","247","E1.jpg",".",".","37","1","44"
"20","20","retrieval","old_object","248","G56.jpg",".","3","36","1","72"
"20","20","retrieval","new_object","249","E69.jpg",".",".","37","1","707"
"20","20","retrieval","new_object","250","F53.jpg",".",".","0","0","2000"
"20","20","retrieval","old_object","251","H1.jpg",".","1","36","1","537"
"20","20","retrieval","new_object","252","F20.jpg",".",".","37","1","20"
"20","20","retrieval","old_object","253","H9.jpg",".","1","36","1","242"
"20","20","retrieval","old_object","254","G57.jpg",".","3","37","0","219"
"20","20","retrieval","new_object","255","E23.jpg",".",".","37","1","279"
"20","20","retrieval","old_object","256","H39.jpg",".","1","37","0","706"
"20","20","retrieval","old_object","257","H30.jpg",".","1","37","0","606"
"20","20","retrieval","old_object","258","H2.jpg",".","1","37","0","714"
"20","20","retrieval","old_object","259","G14.jpg",".","3","37","0","453"
"20","20","retrieval","new_object","260","F5.jpg",".",".","36","0","1136"
"20","20","retrieval","new_object","261","E40.jpg",".",".","36","0","955"
"20","20","retrieval","old_object","262","H19.jpg",".","1","37","0","1031"
"20","20","retrieval","old_object","263","G58.jpg",".","3","37","0","1011"
"20","20","retrieval","old_object","265","H26.jpg",".","1","37","0","879"
"20","20","retrieval","old_object","266","G39.jpg",".","3","36","1","779"
"20","20","retrieval","old_object","267","G19.jpg",".","3","37","0","598"
"20","20","retrieval","new_object","268","F66.jpg",".",".","36","0","33"
"20","20","retrieval","new_object","269","E18.jpg",".",".","36","0","412"
"20","20","retrieval","old_object","270","G1.jpg",".","3","37","0","8"
"20","20","retrieval","new_object","271","E74.jpg",".",".","36","0","499"
"20","20","retrieval","new_object","272","F15.jpg",".",".","37","1","735"
"20","20","retrieval","old_object","273","G22.jpg",".","3","37","0","618"
"20","20","retrieval","new_object","274","E48.jpg",".",".","37","1","726"
"20","20","retrieval","new_object","275","F22.jpg",".",".","36","0","723"
"20","20","retrieval","new_object","276","F72.jpg",".",".","37","1","813"
"20","20","retrieval","new_object","277","F11.jpg",".",".","37","1","728"
"20","20","retrieval","old_object","278","H18.jpg",".","1","37","0","1023"
"20","20","retrieval","new_object","279","F71.jpg",".",".","37","1","559"
"20","20","retrieval","new_object","280","F24.jpg",".",".","37","1","651"
"20","20","retrieval","new_object","281","F2.jpg",".",".","37","1","566"
"20","20","retrieval","new_object","282","E29.jpg",".",".","36","0","946"
"20","20","retrieval","new_object","283","F29.jpg",".",".","36","0","1517"
"20","20","retrieval","new_object","284","E15.jpg",".",".","36","0","1369"
"20","20","retrieval","new_object","285","E17.jpg",".",".","36","0","309"
"20","20","retrieval","new_object","286","E50.jpg",".",".","37","1","79"
"20","20","retrieval","new_object","287","F68.jpg",".",".","36","0","1083"
"20","20","retrieval","old_object","288","H57.jpg",".","1","37","0","70"
"20","20","retrieval","old_object","289","H55.jpg",".","1","0","0","2000"
"20","20","retrieval","old_object","290","G8.jpg",".","3","36","1","14"
"20","20","retrieval","new_object","291","F79.jpg",".",".","37","1","169"
"20","20","retrieval","new_object","292","E61.jpg",".",".","36","0","1317"
"20","20","retrieval","new_object","293","F26.jpg",".",".","36","0","1953"
"20","20","retrieval","old_object","294","G71.jpg",".","3","36","1","235"
"20","20","retrieval","old_object","295","G59.jpg",".","3","36","1","229"
"20","20","retrieval","old_object","296","H66.jpg",".","1","37","0","353"
"20","20","retrieval","old_object","297","H43.jpg",".","1","37","0","248"
"20","20","retrieval","old_object","298","H70.jpg",".","1","36","1","264"
"20","20","retrieval","old_object","299","G70.jpg",".","3","37","0","212"
"20","20","retrieval","old_object","300","H64.jpg",".","1","37","0","128"
"20","20","retrieval","old_object","301","G69.jpg",".","3","36","1","987"
"20","20","retrieval","new_object","302","F49.jpg",".",".","36","0","212"
"20","20","retrieval","old_object","303","G61.jpg",".","3","36","1","127"
"20","20","retrieval","old_object","304","H12.jpg",".","1","37","0","44"
"20","20","retrieval","old_object","305","G11.jpg",".","3","36","1","215"
"20","20","retrieval","old_object","306","G42.jpg",".","3","36","1","83"
"20","20","retrieval","new_object","307","F69.jpg",".",".","36","0","607"
"20","20","retrieval","old_object","308","G49.jpg",".","3","36","1","26"
"20","20","retrieval","new_object","309","E44.jpg",".",".","36","0","245"
"20","20","retrieval","new_object","310","E2.jpg",".",".","36","0","1057"
"20","20","retrieval","old_object","311","H13.jpg",".","1","36","1","219"
"20","20","retrieval","old_object","312","G32.jpg",".","3","37","0","23"
"20","20","retrieval","old_object","313","G52.jpg",".","3","36","1","163"
"20","20","retrieval","new_object","314","F33.jpg",".",".","36","0","156"
"20","20","retrieval","old_object","315","G40.jpg",".","3","37","0","570"
"20","20","retrieval","new_object","316","E14.jpg",".",".","37","1","917"
"20","20","retrieval","new_object","317","F3.jpg",".",".","36","0","33"
"20","20","retrieval","old_object","318","H29.jpg",".","1","36","1","765"
"20","20","retrieval","new_object","319","E45.jpg",".",".","36","0","408"
"20","20","retrieval","old_object","320","G9.jpg",".","3","36","1","419"
"20","20","retrieval","old_object","321","H68.jpg",".","1","36","1","14"
"20","20","retrieval","old_object","322","H31.jpg",".","1","36","1","170"
"20","20","retrieval","old_object","323","H15.jpg",".","1","36","1","23"
"20","20","retrieval","new_object","324","F61.jpg",".",".","37","1","209"
"20","20","retrieval","new_object","325","E13.jpg",".",".","37","1","76"
"20","20","demographics_block","gender","1",".",".",".","Male ","1","54212"
"20","20","demographics_block","age","1",".",".",".","25","1","54212"
"20","20","demographics_block","education","1",".",".",".","20","1","54212"
"20","20","demographics_block","left_right_handed","2",".",".",".","Right","1","11568"
"20","20","demographics_block","raceoption1","2",".",".",".","0","1","11568"
"20","20","demographics_block","raceoption2","2",".",".",".","","1","11568"
"20","20","demographics_block","raceoption3","2",".",".",".","","1","11568"
"20","20","demographics_block","raceoption4","2",".",".",".","","1","11568"
"20","20","demographics_block","raceoption5","2",".",".",".","","1","11568"
"20","20","demographics_block","raceoption6","2",".",".",".","","1","11568"
"20","20","demographics_block","raceoption7","2",".",".",".","","1","11568"
"20","20","demographics_block","raceoption8","2",".",".",".","","1","11568"
"20","20","demographics_block","raceoption9","2",".",".",".","","1","11568"
"20","20","demographics_block","raceother","2",".",".",".","","1","11568"
"20","20","demographics_block","raceother","2",".",".",".","","1","11568"
"20","20","demographics_block","english_language","2",".",".",".","Yes","1","11568"
"20","20","demographics_block","other","2",".",".",".","","1","11568"
"20","20","demographics_block","eyesight","3",".",".",".","Yes","1","33626"
"20","20","demographics_block","colorblind","3",".",".",".","No","1","33626"
