"group","subject","blockcode","trialcode","trialnum","stimulus","encoding_condition","old_object_condition","response","correct","latency"
"3","3","encoding","encoding","1","CoffeeGrinder.jpg","3",".","0","0","1000"
"3","3","encoding","encoding","2","Lighter_Yellow.jpg","3",".","36","0","766"
"3","3","encoding","encoding","3","Clock_Radio.jpg","3",".","36","0","675"
"3","3","encoding","encoding","4","Hockey_Equipment.jpg","3",".","0","0","1000"
"3","3","encoding","encoding","5","Bugle.jpg","1",".","0","0","1000"
"3","3","encoding","encoding","6","Sock_Ankle.jpg","3",".","37","0","345"
"3","3","encoding","encoding","7","Gorilla.jpg","3",".","36","0","733"
"3","3","encoding","encoding","8","Icepick.jpg","1",".","37","0","646"
"3","3","encoding","encoding","9","DrillBit.jpg","3",".","37","0","816"
"3","3","encoding","encoding","10","Toy_PoliceCar.jpg","3",".","37","0","598"
"3","3","encoding","encoding","11","Outhouse.jpg","3",".","37","0","681"
"3","3","encoding","encoding","12","Comb.jpg","3",".","37","0","641"
"3","3","encoding","encoding","13","BicycleGear.jpg","1",".","37","0","666"
"3","3","encoding","encoding","14","Hawk.jpg","3",".","36","0","473"
"3","3","encoding","encoding","15","FlipFlop_PairBlue.jpg","3",".","37","0","603"
"3","3","encoding","encoding","16","Bandage_Wrap.jpg","1",".","37","0","729"
"3","3","encoding","encoding","17","Thermos_MetalSleek.jpg","1",".","37","0","614"
"3","3","encoding","encoding","18","Exercise_Machine.jpg","3",".","37","0","684"
"3","3","encoding","encoding","19","Hockey_Equipment.jpg","3",".","37","0","589"
"3","3","encoding","encoding","20","Decoration_WallOrnament.jpg","3",".","0","0","1000"
"3","3","encoding","encoding","21","Toolbox_Old.jpg","3",".","37","0","540"
"3","3","encoding","encoding","22","Toy_BearBlackPlastic.jpg","3",".","36","0","643"
"3","3","encoding","encoding","23","Helmet_Knight.jpg","3",".","37","0","665"
"3","3","encoding","encoding","24","Cannister_Gas.jpg","3",".","37","0","698"
"3","3","encoding","encoding","25","SkiPoles.jpg","3",".","37","0","643"
"3","3","encoding","encoding","26","BicycleChain.jpg","3",".","37","0","547"
"3","3","encoding","encoding","27","Brooch_Fish.jpg","1",".","37","0","654"
"3","3","encoding","encoding","28","Bottle_Specimen.jpg","1",".","37","0","579"
"3","3","encoding","encoding","29","DivingBoard.jpg","3",".","37","0","515"
"3","3","encoding","encoding","30","Boxcutter.jpg","1",".","37","0","513"
"3","3","encoding","encoding","31","Gorilla.jpg","3",".","37","0","489"
"3","3","encoding","encoding","32","Kite_Rainbow.jpg","3",".","37","0","498"
"3","3","encoding","encoding","33","Outhouse.jpg","3",".","37","0","869"
"3","3","encoding","encoding","34","Sign_TrafficArrow.jpg","3",".","37","0","648"
"3","3","encoding","encoding","35","LampPost_OneBulb.jpg","3",".","37","0","757"
"3","3","encoding","encoding","36","Cross.jpg","3",".","37","0","647"
"3","3","encoding","encoding","37","Cannister_Gas.jpg","3",".","37","0","641"
"3","3","encoding","encoding","38","SaxophoneSoprano.jpg","3",".","37","0","700"
"3","3","encoding","encoding","39","SewingMachine.jpg","1",".","37","0","596"
"3","3","encoding","encoding","40","Clock_Radio.jpg","3",".","37","0","555"
"3","3","encoding","encoding","41","LampPost_OneBulb.jpg","3",".","37","0","495"
"3","3","encoding","encoding","42","SkullDeer.jpg","1",".","37","0","659"
"3","3","encoding","encoding","43","Truck_Dump.jpg","3",".","0","0","1000"
"3","3","encoding","encoding","44","Jug_Milk.jpg","3",".","37","0","552"
"3","3","encoding","encoding","45","MobilityScooter.jpg","3",".","37","0","532"
"3","3","encoding","encoding","46","ContactLens.jpg","3",".","37","0","481"
"3","3","encoding","encoding","47","Toy_SeeSaw.jpg","3",".","37","0","603"
"3","3","encoding","encoding","48","Pajamas.jpg","1",".","37","0","428"
"3","3","encoding","encoding","49","Glass_Martini.jpg","3",".","37","0","413"
"3","3","encoding","encoding","50","Seashell_AlternateTellin.jpg","3",".","37","0","356"
"3","3","encoding","encoding","51","Syrup_Maple.jpg","1",".","37","0","453"
"3","3","encoding","encoding","52","Comb.jpg","3",".","37","0","529"
"3","3","encoding","encoding","53","Seashell_AlternateTellin.jpg","3",".","36","0","487"
"3","3","encoding","encoding","54","Dress_Blue.jpg","3",".","37","0","450"
"3","3","encoding","encoding","55","Paddle_Beach.jpg","3",".","37","0","558"
"3","3","encoding","encoding","56","Can_OilSpout.jpg","1",".","37","0","506"
"3","3","encoding","encoding","57","DivingBoard.jpg","3",".","37","0","451"
"3","3","encoding","encoding","58","KitchenTools.jpg","3",".","37","0","737"
"3","3","encoding","encoding","59","Toy_PoliceCar.jpg","3",".","37","0","585"
"3","3","encoding","encoding","60","DrillBit.jpg","3",".","37","0","597"
"3","3","encoding","encoding","61","Baster.jpg","3",".","37","0","694"
"3","3","encoding","encoding","62","Sign_TrafficArrow.jpg","3",".","37","0","751"
"3","3","encoding","encoding","63","CookieCutter_Tree.jpg","3",".","37","0","617"
"3","3","encoding","encoding","64","Shoe_Pink.jpg","3",".","37","0","552"
"3","3","encoding","encoding","65","Switch_LightWhite.jpg","3",".","37","0","435"
"3","3","encoding","encoding","67","Dart.jpg","3",".","37","0","644"
"3","3","encoding","encoding","68","Bottle_BubbleBlower.jpg","3",".","37","0","546"
"3","3","encoding","encoding","69","Decoration_WallOrnament.jpg","3",".","37","0","636"
"3","3","encoding","encoding","70","Truck_Dump.jpg","3",".","37","0","521"
"3","3","encoding","encoding","71","Toy_DollOffice.jpg","3",".","37","0","567"
"3","3","encoding","encoding","72","Sink_Bathroom.jpg","3",".","37","0","588"
"3","3","encoding","encoding","73","ReindeerHeadband.jpg","1",".","37","0","569"
"3","3","encoding","encoding","74","Toolbox_Old.jpg","3",".","37","0","529"
"3","3","encoding","encoding","75","Toolbox_RedOpen.jpg","3",".","37","0","474"
"3","3","encoding","encoding","76","BicycleChain.jpg","3",".","37","0","508"
"3","3","encoding","encoding","77","Screw.jpg","3",".","37","0","515"
"3","3","encoding","encoding","78","Currants.jpg","3",".","36","0","853"
"3","3","encoding","encoding","79","Spatula_1.jpg","1",".","37","0","546"
"3","3","encoding","encoding","80","BoogieBoard.jpg","3",".","37","0","528"
"3","3","encoding","encoding","81","Microphone.jpg","1",".","37","0","616"
"3","3","encoding","encoding","82","Drum_Brazilan.jpg","1",".","37","0","624"
"3","3","encoding","encoding","83","House_Rural.jpg","3",".","37","0","515"
"3","3","encoding","encoding","84","Pasta_Spaghetti.jpg","1",".","36","0","777"
"3","3","encoding","encoding","85","Boots_KneeHigh.jpg","3",".","0","0","1000"
"3","3","encoding","encoding","86","Toolbox_Old.jpg","3",".","37","0","485"
"3","3","encoding","encoding","87","Jar_Cotton.jpg","3",".","37","0","748"
"3","3","encoding","encoding","88","Lamp_TableWhite.jpg","3",".","37","0","515"
"3","3","encoding","encoding","89","BicycleOdometer.jpg","3",".","37","0","547"
"3","3","encoding","encoding","90","Toy_SeeSaw.jpg","3",".","37","0","602"
"3","3","encoding","encoding","91","Hat_Baseball.jpg","3",".","37","0","762"
"3","3","encoding","encoding","92","Carbiner_Ascender.jpg","3",".","37","0","712"
"3","3","encoding","encoding","93","Telescope.jpg","3",".","37","0","589"
"3","3","encoding","encoding","94","Jug_Milk.jpg","3",".","37","0","584"
"3","3","encoding","encoding","95","Crib_Basket.jpg","3",".","37","0","697"
"3","3","encoding","encoding","96","PaperStack.jpg","3",".","37","0","775"
"3","3","encoding","encoding","97","Switch_LightWhite.jpg","3",".","37","0","671"
"3","3","encoding","encoding","98","Pot_Cooking.jpg","3",".","37","0","602"
"3","3","encoding","encoding","99","Fridge.jpg","1",".","37","0","514"
"3","3","encoding","encoding","100","Arch.jpg","1",".","37","0","561"
"3","3","encoding","encoding","101","BicycleOdometer.jpg","3",".","37","0","535"
"3","3","encoding","encoding","102","Comb.jpg","3",".","37","0","617"
"3","3","encoding","encoding","103","Socks_Winter.jpg","3",".","37","0","739"
"3","3","encoding","encoding","104","Tofu.jpg","3",".","0","0","1000"
"3","3","encoding","encoding","105","Hawk.jpg","3",".","37","0","452"
"3","3","encoding","encoding","106","Kite_Rainbow.jpg","3",".","37","0","584"
"3","3","encoding","encoding","107","Toy_TableSet.jpg","3",".","37","0","665"
"3","3","encoding","encoding","108","ElasticBand.jpg","1",".","37","0","518"
"3","3","encoding","encoding","109","Sink_Bathroom.jpg","3",".","37","0","572"
"3","3","encoding","encoding","110","PropellerFan.jpg","3",".","37","0","745"
"3","3","encoding","encoding","111","Pickaxe.jpg","3",".","37","0","519"
"3","3","encoding","encoding","112","CookieCutter_Tree.jpg","3",".","37","0","483"
"3","3","encoding","encoding","113","Brace_Back.jpg","1",".","37","0","593"
"3","3","encoding","encoding","114","Flower_Orchid.jpg","1",".","36","0","676"
"3","3","encoding","encoding","115","BicycleChain.jpg","3",".","37","0","603"
"3","3","encoding","encoding","116","Jar_Cotton.jpg","3",".","37","0","446"
"3","3","encoding","encoding","117","Tire_Hollow.jpg","3",".","37","0","498"
"3","3","encoding","encoding","118","PropellerFan.jpg","3",".","37","0","525"
"3","3","encoding","encoding","119","CrepeMaker.jpg","3",".","37","0","514"
"3","3","encoding","encoding","120","SundaeBanana.jpg","3",".","36","0","658"
"3","3","encoding","encoding","121","Chipmunk.jpg","1",".","36","0","645"
"3","3","encoding","encoding","122","Cross.jpg","3",".","37","0","544"
"3","3","encoding","encoding","123","PaperStack.jpg","3",".","37","0","610"
"3","3","encoding","encoding","124","BloodpPresureCuff.jpg","3",".","37","0","623"
"3","3","encoding","encoding","125","Screw.jpg","3",".","37","0","663"
"3","3","encoding","encoding","126","Box_Present.jpg","3",".","37","0","885"
"3","3","encoding","encoding","127","Box_Present.jpg","3",".","37","0","435"
"3","3","encoding","encoding","128","Tofu.jpg","3",".","36","0","711"
"3","3","encoding","encoding","129","Case_DVD.jpg","1",".","37","0","647"
"3","3","encoding","encoding","130","Bench_Wooden.jpg","1",".","37","0","578"
"3","3","encoding","encoding","131","Glass_Martini.jpg","3",".","37","0","553"
"3","3","encoding","encoding","133","Tape_Washi.jpg","1",".","37","0","513"
"3","3","encoding","encoding","134","Outhouse.jpg","3",".","37","0","625"
"3","3","encoding","encoding","135","Box_Present.jpg","3",".","37","0","566"
"3","3","encoding","encoding","136","CrepeMaker.jpg","3",".","37","0","682"
"3","3","encoding","encoding","137","Helmet_Knight.jpg","3",".","37","0","599"
"3","3","encoding","encoding","138","ShearsGarden.jpg","3",".","37","0","868"
"3","3","encoding","encoding","139","GranolaBar.jpg","3",".","36","0","747"
"3","3","encoding","encoding","140","Gorilla.jpg","3",".","36","0","628"
"3","3","encoding","encoding","141","Kite_Rainbow.jpg","3",".","37","0","575"
"3","3","encoding","encoding","142","Iron_Antique.jpg","1",".","37","0","662"
"3","3","encoding","encoding","143","FlipFlop_PairBlue.jpg","3",".","37","0","897"
"3","3","encoding","encoding","144","Toolbox_RedOpen.jpg","3",".","37","0","701"
"3","3","encoding","encoding","145","Carbiner_Ascender.jpg","3",".","37","0","662"
"3","3","encoding","encoding","146","SaxophoneSoprano.jpg","3",".","37","0","724"
"3","3","encoding","encoding","147","BicycleOdometer.jpg","3",".","36","0","958"
"3","3","encoding","encoding","148","Seashell_AlternateTellin.jpg","3",".","36","0","667"
"3","3","encoding","encoding","149","Clock_Radio.jpg","3",".","37","0","546"
"3","3","encoding","encoding","150","Frame_Oval.jpg","1",".","37","0","534"
"3","3","encoding","encoding","151","Tweezers.jpg","1",".","37","0","522"
"3","3","encoding","encoding","152","Hottub.jpg","1",".","37","0","574"
"3","3","encoding","encoding","153","Crib_Basket.jpg","3",".","37","0","535"
"3","3","encoding","encoding","154","PanCooking.jpg","3",".","37","0","529"
"3","3","encoding","encoding","155","Dart.jpg","3",".","37","0","630"
"3","3","encoding","encoding","156","Cage_Bird.jpg","1",".","37","0","948"
"3","3","encoding","encoding","157","Dolphine.jpg","1",".","36","0","618"
"3","3","encoding","encoding","158","Lamp_TableWhite.jpg","3",".","37","0","628"
"3","3","encoding","encoding","159","Beaker.jpg","1",".","37","0","880"
"3","3","encoding","encoding","160","Exercise_Machine.jpg","3",".","37","0","796"
"3","3","encoding","encoding","161","PanCooking.jpg","3",".","37","0","705"
"3","3","encoding","encoding","162","SundaeBanana.jpg","3",".","37","0","881"
"3","3","encoding","encoding","163","Hammer.jpg","1",".","37","0","546"
"3","3","encoding","encoding","164","Gun_Glue.jpg","3",".","37","0","431"
"3","3","encoding","encoding","165","Socks_Winter.jpg","3",".","37","0","446"
"3","3","encoding","encoding","166","Hazelnut.jpg","1",".","36","0","789"
"3","3","encoding","encoding","167","Exercise_Machine.jpg","3",".","37","0","657"
"3","3","encoding","encoding","168","Tire_Hollow.jpg","3",".","37","0","703"
"3","3","encoding","encoding","169","Wheel_Steering.jpg","1",".","37","0","496"
"3","3","encoding","encoding","170","ContactLens.jpg","3",".","37","0","636"
"3","3","encoding","encoding","171","Bell_Hand.jpg","3",".","37","0","470"
"3","3","encoding","encoding","172","DrillBit.jpg","3",".","37","0","598"
"3","3","encoding","encoding","173","Toy_TableSet.jpg","3",".","37","0","563"
"3","3","encoding","encoding","174","ShoppingCart.jpg","3",".","37","0","551"
"3","3","encoding","encoding","175","Hoverboard.jpg","1",".","37","0","746"
"3","3","encoding","encoding","176","CoffeeGrinder.jpg","3",".","37","0","743"
"3","3","encoding","encoding","177","CrepeMaker.jpg","3",".","37","0","814"
"3","3","encoding","encoding","178","Pen_Ballpoint.jpg","3",".","0","0","1000"
"3","3","encoding","encoding","179","Dart.jpg","3",".","37","0","503"
"3","3","encoding","encoding","180","Cabinet_Office.jpg","1",".","37","0","716"
"3","3","encoding","encoding","181","Dress_Blue.jpg","3",".","37","0","367"
"3","3","encoding","encoding","182","Cannister_Gas.jpg","3",".","37","0","758"
"3","3","encoding","encoding","183","KeyHook_Occupied.jpg","1",".","37","0","938"
"3","3","encoding","encoding","184","TireRims.jpg","3",".","37","0","982"
"3","3","encoding","encoding","185","GranolaBar.jpg","3",".","37","0","717"
"3","3","encoding","encoding","186","Pot_Cooking.jpg","3",".","37","0","777"
"3","3","encoding","encoding","187","Hockey_Equipment.jpg","3",".","37","0","794"
"3","3","encoding","encoding","188","Chinchilla.jpg","1",".","36","0","632"
"3","3","encoding","encoding","189","KitchenTools.jpg","3",".","37","0","532"
"3","3","encoding","encoding","190","Bomb.jpg","1",".","37","0","570"
"3","3","encoding","encoding","191","CoffeeGrinder.jpg","3",".","37","0","574"
"3","3","encoding","encoding","192","Bottle_BubbleBlower.jpg","3",".","37","0","566"
"3","3","encoding","encoding","193","TireRims.jpg","3",".","37","0","702"
"3","3","encoding","encoding","194","Makeup_Foundation.jpg","1",".","37","0","482"
"3","3","encoding","encoding","195","Toy_BearBlackPlastic.jpg","3",".","36","0","570"
"3","3","encoding","encoding","196","Paddle_Beach.jpg","3",".","37","0","535"
"3","3","encoding","encoding","197","SundaeBanana.jpg","3",".","37","0","619"
"3","3","encoding","encoding","199","Boots_KneeHigh.jpg","3",".","0","0","1000"
"3","3","encoding","encoding","200","BoogieBoard.jpg","3",".","37","0","532"
"3","3","encoding","encoding","201","House_Rural.jpg","3",".","37","0","589"
"3","3","encoding","encoding","202","Switch_LightWhite.jpg","3",".","37","0","576"
"3","3","encoding","encoding","203","Hat_Baseball.jpg","3",".","37","0","504"
"3","3","encoding","encoding","204","PanCooking.jpg","3",".","37","0","456"
"3","3","encoding","encoding","205","OnionRed.jpg","1",".","36","0","680"
"3","3","encoding","encoding","206","Chopsticks.jpg","1",".","37","0","617"
"3","3","encoding","encoding","207","BoogieBoard.jpg","3",".","37","0","578"
"3","3","encoding","encoding","208","Playground.jpg","1",".","37","0","635"
"3","3","encoding","encoding","209","Baster.jpg","3",".","37","0","567"
"3","3","encoding","encoding","210","Pot_Cooking.jpg","3",".","37","0","597"
"3","3","encoding","encoding","211","PedestalGreek.jpg","3",".","37","0","914"
"3","3","encoding","encoding","212","SkiPoles.jpg","3",".","37","0","645"
"3","3","encoding","encoding","213","Box_FirstAidOpen.jpg","1",".","37","0","595"
"3","3","encoding","encoding","214","Boardgame_Checkers.jpg","1",".","37","0","577"
"3","3","encoding","encoding","215","Sock_Ankle.jpg","3",".","37","0","439"
"3","3","encoding","encoding","216","FlipFlop_PairBlue.jpg","3",".","37","0","542"
"3","3","encoding","encoding","217","Socks_Winter.jpg","3",".","37","0","580"
"3","3","encoding","encoding","218","Crib_Basket.jpg","3",".","37","0","572"
"3","3","encoding","encoding","219","Fencing_HelmetSwords.jpg","1",".","37","0","663"
"3","3","encoding","encoding","220","ToothPaste.jpg","1",".","37","0","816"
"3","3","encoding","encoding","221","PedestalGreek.jpg","3",".","37","0","582"
"3","3","encoding","encoding","222","Toy_Lighthouse.jpg","1",".","37","0","481"
"3","3","encoding","encoding","223","TurkeyDinner.jpg","1",".","36","0","713"
"3","3","encoding","encoding","224","Sink_Bathroom.jpg","3",".","37","0","436"
"3","3","encoding","encoding","225","Jug_Milk.jpg","3",".","37","0","473"
"3","3","encoding","encoding","226","Pig.jpg","1",".","36","0","555"
"3","3","encoding","encoding","227","Gun_Glue.jpg","3",".","37","0","597"
"3","3","encoding","encoding","228","Hat_Baseball.jpg","3",".","37","0","540"
"3","3","encoding","encoding","229","Statue_SouthAmerican.jpg","1",".","37","0","534"
"3","3","encoding","encoding","230","CuttingBoard.jpg","3",".","37","0","390"
"3","3","encoding","encoding","231","Toy_DollOffice.jpg","3",".","37","0","482"
"3","3","encoding","encoding","232","SaxophoneSoprano.jpg","3",".","37","0","489"
"3","3","encoding","encoding","233","Baster.jpg","3",".","37","0","485"
"3","3","encoding","encoding","234","TireRims.jpg","3",".","37","0","516"
"3","3","encoding","encoding","235","Toy_SeeSaw.jpg","3",".","37","0","458"
"3","3","encoding","encoding","236","KitchenTools.jpg","3",".","37","0","434"
"3","3","encoding","encoding","237","Boots_KneeHigh.jpg","3",".","37","0","448"
"3","3","encoding","encoding","238","ContactLens.jpg","3",".","37","0","543"
"3","3","encoding","encoding","239","Truck_Dump.jpg","3",".","37","0","657"
"3","3","encoding","encoding","240","Ball_Disco.jpg","1",".","37","0","617"
"3","3","encoding","encoding","241","Dress_Blue.jpg","3",".","37","0","530"
"3","3","encoding","encoding","242","Toolbox_RedOpen.jpg","3",".","37","0","547"
"3","3","encoding","encoding","243","PaintRoller.jpg","1",".","37","0","498"
"3","3","encoding","encoding","244","Lamp_TableWhite.jpg","3",".","37","0","436"
"3","3","encoding","encoding","245","Gun_Glue.jpg","3",".","37","0","436"
"3","3","encoding","encoding","246","ChessPiece_Knight.jpg","1",".","37","0","534"
"3","3","encoding","encoding","247","RibbonSpool.jpg","1",".","37","0","410"
"3","3","encoding","encoding","248","ShearsGarden.jpg","3",".","37","0","412"
"3","3","encoding","encoding","249","HumanSkeleton.jpg","1",".","37","0","755"
"3","3","encoding","encoding","250","MobilityScooter.jpg","3",".","37","0","491"
"3","3","encoding","encoding","251","Toy_BearBlackPlastic.jpg","3",".","37","0","792"
"3","3","encoding","encoding","252","AnsweringMachine.jpg","1",".","37","0","787"
"3","3","encoding","encoding","253","Currants.jpg","3",".","36","0","640"
"3","3","encoding","encoding","254","Waffle.jpg","1",".","37","0","910"
"3","3","encoding","encoding","255","Lighter_Yellow.jpg","3",".","37","0","935"
"3","3","encoding","encoding","256","PaperStack.jpg","3",".","37","0","719"
"3","3","encoding","encoding","257","Telescope.jpg","3",".","37","0","519"
"3","3","encoding","encoding","258","Carbiner_Ascender.jpg","3",".","37","0","676"
"3","3","encoding","encoding","259","SkiPoles.jpg","3",".","37","0","439"
"3","3","encoding","encoding","260","Cross.jpg","3",".","37","0","460"
"3","3","encoding","encoding","261","Crutches.jpg","3",".","37","0","502"
"3","3","encoding","encoding","262","Flower_Hibiscus.jpg","1",".","36","0","666"
"3","3","encoding","encoding","263","Caterpillar.jpg","1",".","37","0","760"
"3","3","encoding","encoding","265","Statue_VirginMary.jpg","1",".","37","0","478"
"3","3","encoding","encoding","266","GranolaBar.jpg","3",".","37","0","628"
"3","3","encoding","encoding","267","CookieCutter_Tree.jpg","3",".","37","0","603"
"3","3","encoding","encoding","268","CuttingBoard.jpg","3",".","37","0","586"
"3","3","encoding","encoding","269","Shield_Antique.jpg","1",".","37","0","771"
"3","3","encoding","encoding","270","Radio_Vintage.jpg","1",".","37","0","531"
"3","3","encoding","encoding","271","Bindings_Snowboard.jpg","1",".","37","0","507"
"3","3","encoding","encoding","272","BloodpPresureCuff.jpg","3",".","37","0","522"
"3","3","encoding","encoding","273","Lighter_Yellow.jpg","3",".","37","0","404"
"3","3","encoding","encoding","274","Decoration_WallOrnament.jpg","3",".","37","0","479"
"3","3","encoding","encoding","275","PedestalGreek.jpg","3",".","37","0","484"
"3","3","encoding","encoding","276","Shoe_Pink.jpg","3",".","37","0","552"
"3","3","encoding","encoding","277","Strainer_Tea.jpg","1",".","37","0","868"
"3","3","encoding","encoding","278","Glass_Cup.jpg","1",".","37","0","656"
"3","3","encoding","encoding","279","SmokingPipe.jpg","1",".","37","0","550"
"3","3","encoding","encoding","280","Jar_Cotton.jpg","3",".","37","0","677"
"3","3","encoding","encoding","281","Tofu.jpg","3",".","36","0","863"
"3","3","encoding","encoding","282","Cabinet_Display.jpg","1",".","37","0","696"
"3","3","encoding","encoding","283","Hawk.jpg","3",".","36","0","569"
"3","3","encoding","encoding","284","ShoppingCart.jpg","3",".","37","0","485"
"3","3","encoding","encoding","285","Bottle_BubbleBlower.jpg","3",".","37","0","539"
"3","3","encoding","encoding","286","Helmet_Knight.jpg","3",".","37","0","539"
"3","3","encoding","encoding","287","Pickaxe.jpg","3",".","37","0","528"
"3","3","encoding","encoding","288","Pen_Ballpoint.jpg","3",".","37","0","629"
"3","3","encoding","encoding","289","LampPost_OneBulb.jpg","3",".","37","0","643"
"3","3","encoding","encoding","290","Ball_8.jpg","1",".","37","0","559"
"3","3","encoding","encoding","291","Bell_Hand.jpg","3",".","37","0","575"
"3","3","encoding","encoding","292","CartonEggs.jpg","1",".","36","0","731"
"3","3","encoding","encoding","293","Tire_Hollow.jpg","3",".","37","0","931"
"3","3","encoding","encoding","294","Pickaxe.jpg","3",".","37","0","723"
"3","3","encoding","encoding","295","Pipe.jpg","1",".","37","0","689"
"3","3","encoding","encoding","296","Crutches.jpg","3",".","37","0","627"
"3","3","encoding","encoding","297","Pen_Ballpoint.jpg","3",".","37","0","486"
"3","3","encoding","encoding","298","PropellerFan.jpg","3",".","37","0","603"
"3","3","encoding","encoding","299","CuttingBoard.jpg","3",".","37","0","529"
"3","3","encoding","encoding","300","Crutches.jpg","3",".","37","0","573"
"3","3","encoding","encoding","301","Broom_Long.jpg","1",".","37","0","450"
"3","3","encoding","encoding","302","Toy_DollOffice.jpg","3",".","37","0","531"
"3","3","encoding","encoding","303","BloodpPresureCuff.jpg","3",".","37","0","431"
"3","3","encoding","encoding","304","ShoppingCart.jpg","3",".","37","0","471"
"3","3","encoding","encoding","305","Shoe_Pink.jpg","3",".","37","0","519"
"3","3","encoding","encoding","306","Toy_PoliceCar.jpg","3",".","37","0","454"
"3","3","encoding","encoding","307","Bell_Hand.jpg","3",".","37","0","429"
"3","3","encoding","encoding","308","Toy_TableSet.jpg","3",".","37","0","486"
"3","3","encoding","encoding","309","Telescope.jpg","3",".","37","0","415"
"3","3","encoding","encoding","310","Knife_Butter.jpg","1",".","37","0","499"
"3","3","encoding","encoding","311","Sock_Ankle.jpg","3",".","37","0","466"
"3","3","encoding","encoding","312","Screw.jpg","3",".","37","0","478"
"3","3","encoding","encoding","313","Loofa.jpg","1",".","37","0","842"
"3","3","encoding","encoding","314","Currants.jpg","3",".","36","0","658"
"3","3","encoding","encoding","315","DivingBoard.jpg","3",".","37","0","725"
"3","3","encoding","encoding","316","Tribunal_Wooden.jpg","1",".","37","0","517"
"3","3","encoding","encoding","317","Sign_TrafficArrow.jpg","3",".","37","0","650"
"3","3","encoding","encoding","318","ShearsGarden.jpg","3",".","37","0","495"
"3","3","encoding","encoding","319","House_Rural.jpg","3",".","37","0","490"
"3","3","encoding","encoding","320","MobilityScooter.jpg","3",".","37","0","409"
"3","3","encoding","encoding","321","Glass_Martini.jpg","3",".","37","0","360"
"3","3","encoding","encoding","322","Thermostat.jpg","1",".","37","0","433"
"3","3","encoding","encoding","323","Paddle_Beach.jpg","3",".","37","0","500"
"3","3","encoding","encoding","324","SafetyPin.jpg","1",".","37","0","472"
"3","3","encoding","encoding","325","CoffeeGrinder.jpg","",".","37","0","509"
"3","3","retrieval","new_object","1","PassionFruit.jpg",".",".","37","1","965"
"3","3","retrieval","old_object","2","Cage_Bird.jpg",".","1","37","0","831"
"3","3","retrieval","old_object","3","Glass_Cup.jpg",".","1","36","1","807"
"3","3","retrieval","old_object","4","PropellerFan.jpg",".","3","36","1","578"
"3","3","retrieval","old_object","5","CookieCutter_Tree.jpg",".","3","36","1","815"
"3","3","retrieval","old_object","6","Toy_BearBlackPlastic.jpg",".","3","36","1","588"
"3","3","retrieval","old_object","7","Cabinet_Office.jpg",".","1","37","0","959"
"3","3","retrieval","new_object","8","Candy_Chocolate.jpg",".",".","37","1","711"
"3","3","retrieval","old_object","9","Loofa.jpg",".","1","36","1","980"
"3","3","retrieval","new_object","10","Guitar_Acoustic.jpg",".",".","37","1","1278"
"3","3","retrieval","old_object","11","Helmet_Knight.jpg",".","3","36","1","689"
"3","3","retrieval","old_object","12","BicycleChain.jpg",".","3","36","1","863"
"3","3","retrieval","new_object","13","Cantaloupe.jpg",".",".","36","0","1055"
"3","3","retrieval","old_object","14","Lighter_Yellow.jpg",".","3","36","1","728"
"3","3","retrieval","old_object","15","Chinchilla.jpg",".","1","36","1","1161"
"3","3","retrieval","new_object","16","Bowl_Chinese.jpg",".",".","37","1","1059"
"3","3","retrieval","new_object","17","TeethMould.jpg",".",".","37","1","823"
"3","3","retrieval","new_object","18","Apple_RedAndGreen.jpg",".",".","37","1","1020"
"3","3","retrieval","old_object","19","Broom_Long.jpg",".","1","36","1","810"
"3","3","retrieval","new_object","20","BottleOpener.jpg",".",".","37","1","845"
"3","3","retrieval","old_object","21","Pot_Cooking.jpg",".","3","36","1","935"
"3","3","retrieval","old_object","22","Boardgame_Checkers.jpg",".","1","37","0","992"
"3","3","retrieval","new_object","23","DoorKnob.jpg",".",".","37","1","929"
"3","3","retrieval","old_object","24","Bell_Hand.jpg",".","3","36","1","779"
"3","3","retrieval","new_object","25","ShoulderPads.jpg",".",".","37","1","723"
"3","3","retrieval","old_object","26","Syrup_Maple.jpg",".","1","37","0","1098"
"3","3","retrieval","old_object","27","Truck_Dump.jpg",".","3","36","1","935"
"3","3","retrieval","old_object","28","Fridge.jpg",".","1","37","0","1657"
"3","3","retrieval","new_object","29","Fruit_Cactus.jpg",".",".","37","1","955"
"3","3","retrieval","old_object","30","Exercise_Machine.jpg",".","3","36","1","750"
"3","3","retrieval","old_object","31","ShoppingCart.jpg",".","3","36","1","1301"
"3","3","retrieval","new_object","32","NintendoWii.jpg",".",".","37","1","661"
"3","3","retrieval","old_object","33","AnsweringMachine.jpg",".","1","37","0","757"
"3","3","retrieval","new_object","34","Golf_Bag.jpg",".",".","37","1","775"
"3","3","retrieval","old_object","35","Bandage_Wrap.jpg",".","1","37","0","1068"
"3","3","retrieval","old_object","36","Pickaxe.jpg",".","3","36","1","1049"
"3","3","retrieval","old_object","37","Frame_Oval.jpg",".","1","36","1","815"
"3","3","retrieval","new_object","38","Mop.jpg",".",".","37","1","976"
"3","3","retrieval","old_object","39","Outhouse.jpg",".","3","36","1","825"
"3","3","retrieval","new_object","40","Hook_Fish.jpg",".",".","37","1","737"
"3","3","retrieval","old_object","41","Icepick.jpg",".","1","37","0","1032"
"3","3","retrieval","new_object","42","Pineapple.jpg",".",".","37","1","955"
"3","3","retrieval","old_object","43","Shoe_Pink.jpg",".","3","36","1","1078"
"3","3","retrieval","old_object","44","Box_FirstAidOpen.jpg",".","1","37","0","1170"
"3","3","retrieval","new_object","45","BicycleHandleGrip.jpg",".",".","37","1","777"
"3","3","retrieval","new_object","46","FlashlightHeadBand.jpg",".",".","37","1","831"
"3","3","retrieval","old_object","47","HumanSkeleton.jpg",".","1","36","1","711"
"3","3","retrieval","old_object","48","Switch_LightWhite.jpg",".","3","36","1","1249"
"3","3","retrieval","old_object","49","Dart.jpg",".","3","36","1","735"
"3","3","retrieval","old_object","50","Radio_Vintage.jpg",".","1","37","0","973"
"3","3","retrieval","old_object","51","PaperStack.jpg",".","3","36","1","792"
"3","3","retrieval","new_object","52","Mug_Beer.jpg",".",".","36","0","1505"
"3","3","retrieval","old_object","53","Wheel_Steering.jpg",".","1","36","1","786"
"3","3","retrieval","old_object","54","ReindeerHeadband.jpg",".","1","37","0","885"
"3","3","retrieval","new_object","55","Spoon_Wooden.jpg",".",".","37","1","1149"
"3","3","retrieval","old_object","56","Flower_Hibiscus.jpg",".","1","36","1","1078"
"3","3","retrieval","new_object","57","GasBurner.jpg",".",".","37","1","1275"
"3","3","retrieval","new_object","58","Toy_RockingHorseBlack.jpg",".",".","37","1","1537"
"3","3","retrieval","new_object","59","TinChristmas.jpg",".",".","37","1","1829"
"3","3","retrieval","new_object","60","NeedlesAcupuncture.jpg",".",".","37","1","899"
"3","3","retrieval","new_object","61","Paratrooper.jpg",".",".","37","1","1458"
"3","3","retrieval","old_object","62","Toy_TableSet.jpg",".","3","36","1","1791"
"3","3","retrieval","old_object","63","Screw.jpg",".","3","36","1","960"
"3","3","retrieval","new_object","64","Cherry.jpg",".",".","37","1","893"
"3","3","retrieval","new_object","65","DrinkingFountain.jpg",".",".","0","0","2000"
"3","3","retrieval","old_object","67","Flower_Orchid.jpg",".","1","36","1","1113"
"3","3","retrieval","new_object","68","Helmet_Construction.jpg",".",".","37","1","1643"
"3","3","retrieval","old_object","69","PaintRoller.jpg",".","1","37","0","1185"
"3","3","retrieval","new_object","70","Colander.jpg",".",".","37","1","1191"
"3","3","retrieval","new_object","71","Hourglass.jpg",".",".","37","1","850"
"3","3","retrieval","new_object","72","BadgeSpecialAgent.jpg",".",".","37","1","820"
"3","3","retrieval","old_object","73","Hazelnut.jpg",".","1","36","1","984"
"3","3","retrieval","old_object","74","BicycleOdometer.jpg",".","3","37","0","928"
"3","3","retrieval","old_object","75","Hockey_Equipment.jpg",".","3","37","0","985"
"3","3","retrieval","old_object","76","Ball_8.jpg",".","1","36","1","844"
"3","3","retrieval","new_object","77","BusStop.jpg",".",".","37","1","746"
"3","3","retrieval","old_object","78","BoogieBoard.jpg",".","3","37","0","726"
"3","3","retrieval","old_object","79","Toy_PoliceCar.jpg",".","3","36","1","865"
"3","3","retrieval","new_object","80","Speaker_OnStand.jpg",".",".","37","1","824"
"3","3","retrieval","new_object","81","Box_Floral.jpg",".",".","37","1","1192"
"3","3","retrieval","old_object","82","Thermos_MetalSleek.jpg",".","1","36","1","1069"
"3","3","retrieval","old_object","83","Box_Present.jpg",".","3","37","0","1486"
"3","3","retrieval","new_object","84","Sign_Parking.jpg",".",".","37","1","927"
"3","3","retrieval","new_object","85","Table_Poker.jpg",".",".","37","1","961"
"3","3","retrieval","new_object","86","PuppetTheatre_WhiteGold.jpg",".",".","37","1","1585"
"3","3","retrieval","old_object","87","SaxophoneSoprano.jpg",".","3","37","0","1209"
"3","3","retrieval","new_object","88","Hippopotamus.jpg",".",".","36","0","1017"
"3","3","retrieval","old_object","89","SundaeBanana.jpg",".","3","36","1","1326"
"3","3","retrieval","new_object","90","Lock_Combination.jpg",".",".","37","1","1609"
"3","3","retrieval","new_object","91","Chair_BeanBag.jpg",".",".","36","0","1145"
"3","3","retrieval","old_object","92","Dolphine.jpg",".","1","36","1","865"
"3","3","retrieval","old_object","93","Statue_SouthAmerican.jpg",".","1","36","1","1263"
"3","3","retrieval","old_object","94","Bottle_Specimen.jpg",".","1","37","0","819"
"3","3","retrieval","old_object","95","Brace_Back.jpg",".","1","36","1","1008"
"3","3","retrieval","new_object","96","Sushi.jpg",".",".","37","1","951"
"3","3","retrieval","old_object","97","Tape_Washi.jpg",".","1","37","0","926"
"3","3","retrieval","new_object","98","SmokeDetector.jpg",".",".","37","1","844"
"3","3","retrieval","new_object","99","RemoteControl.jpg",".",".","37","1","1407"
"3","3","retrieval","old_object","100","Decoration_WallOrnament.jpg",".","3","36","1","687"
"3","3","retrieval","old_object","101","Pig.jpg",".","1","36","1","602"
"3","3","retrieval","new_object","102","Toy_Shapesorter.jpg",".",".","37","1","745"
"3","3","retrieval","old_object","103","Crib_Basket.jpg",".","3","36","1","1588"
"3","3","retrieval","new_object","104","Keg.jpg",".",".","37","1","882"
"3","3","retrieval","new_object","105","Sign_Wetfloor.jpg",".",".","37","1","855"
"3","3","retrieval","old_object","106","Gun_Glue.jpg",".","3","36","1","1207"
"3","3","retrieval","old_object","107","RibbonSpool.jpg",".","1","36","1","1152"
"3","3","retrieval","old_object","108","ContactLens.jpg",".","3","36","1","764"
"3","3","retrieval","new_object","109","Fish_Rockbass.jpg",".",".","37","1","874"
"3","3","retrieval","new_object","110","DryRack_Dishes.jpg",".",".","37","1","1139"
"3","3","retrieval","new_object","111","Toys_Lego.jpg",".",".","37","1","1048"
"3","3","retrieval","new_object","112","Ashtray_Empty.jpg",".",".","37","1","911"
"3","3","retrieval","new_object","113","Shoes_DutchClogs.jpg",".",".","36","0","1182"
"3","3","retrieval","old_object","114","Bench_Wooden.jpg",".","1","37","0","926"
"3","3","retrieval","new_object","115","Bathtub.jpg",".",".","37","1","1285"
"3","3","retrieval","old_object","116","Thermostat.jpg",".","1","37","0","1336"
"3","3","retrieval","old_object","117","Drum_Brazilan.jpg",".","1","37","0","782"
"3","3","retrieval","old_object","118","Kite_Rainbow.jpg",".","3","36","1","692"
"3","3","retrieval","new_object","119","Drink_Green.jpg",".",".","37","1","1373"
"3","3","retrieval","new_object","120","Skates.jpg",".",".","37","1","930"
"3","3","retrieval","new_object","121","Tortilla.jpg",".",".","37","1","1070"
"3","3","retrieval","new_object","122","Toy_Moose.jpg",".",".","37","1","1418"
"3","3","retrieval","old_object","123","DivingBoard.jpg",".","3","36","1","823"
"3","3","retrieval","old_object","124","Telescope.jpg",".","3","37","0","997"
"3","3","retrieval","old_object","125","CoffeeGrinder.jpg",".","3","36","1","1373"
"3","3","retrieval","new_object","126","Peppermill.jpg",".",".","37","1","1004"
"3","3","retrieval","old_object","127","Toy_DollOffice.jpg",".","3","36","1","893"
"3","3","retrieval","old_object","128","Hat_Baseball.jpg",".","3","36","1","869"
"3","3","retrieval","new_object","129","Thermostat_Digital.jpg",".",".","37","1","1002"
"3","3","retrieval","new_object","130","SculptureMetalFish.jpg",".",".","37","1","1242"
"3","3","retrieval","old_object","131","Boots_KneeHigh.jpg",".","3","36","1","1105"
"3","3","retrieval","new_object","133","Steeple.jpg",".",".","37","1","875"
"3","3","retrieval","old_object","134","PanCooking.jpg",".","3","37","0","1106"
"3","3","retrieval","new_object","135","Phone_Wireless.jpg",".",".","37","1","788"
"3","3","retrieval","old_object","136","KitchenTools.jpg",".","3","36","1","870"
"3","3","retrieval","old_object","137","Socks_Winter.jpg",".","3","37","0","1385"
"3","3","retrieval","old_object","138","Can_OilSpout.jpg",".","1","36","1","1036"
"3","3","retrieval","old_object","139","Jar_Cotton.jpg",".","3","36","1","1179"
"3","3","retrieval","old_object","140","Chopsticks.jpg",".","1","36","1","1031"
"3","3","retrieval","new_object","141","Tripod.jpg",".",".","37","1","900"
"3","3","retrieval","old_object","142","Toy_Lighthouse.jpg",".","1","37","0","1839"
"3","3","retrieval","new_object","143","MouthGuard.jpg",".",".","37","1","1348"
"3","3","retrieval","new_object","144","Spoons_MeasuringDetached.jpg",".",".","37","1","1304"
"3","3","retrieval","old_object","145","Tweezers.jpg",".","1","37","0","1428"
"3","3","retrieval","new_object","146","Cake_Wedding.jpg",".",".","37","1","1603"
"3","3","retrieval","old_object","147","Tire_Hollow.jpg",".","3","36","1","1142"
"3","3","retrieval","old_object","148","Seashell_AlternateTellin.jpg",".","3","36","1","1061"
"3","3","retrieval","old_object","149","Knife_Butter.jpg",".","1","37","0","1476"
"3","3","retrieval","old_object","150","Statue_VirginMary.jpg",".","1","36","1","1752"
"3","3","retrieval","new_object","151","Knife_Hunting.jpg",".",".","37","1","943"
"3","3","retrieval","new_object","152","Shampoo.jpg",".",".","37","1","1251"
"3","3","retrieval","new_object","153","CookieCutter_Bell.jpg",".",".","37","1","1233"
"3","3","retrieval","new_object","154","Cassette_Audio.jpg",".",".","37","1","1230"
"3","3","retrieval","old_object","155","Currants.jpg",".","3","36","1","644"
"3","3","retrieval","new_object","156","Saw.jpg",".",".","37","1","1343"
"3","3","retrieval","old_object","157","ShearsGarden.jpg",".","3","37","0","824"
"3","3","retrieval","new_object","158","Light_Siren.jpg",".",".","37","1","930"
"3","3","retrieval","old_object","159","Caterpillar.jpg",".","1","36","1","1395"
"3","3","retrieval","old_object","160","Tribunal_Wooden.jpg",".","1","37","0","1601"
"3","3","retrieval","old_object","161","Pajamas.jpg",".","1","37","0","1079"
"3","3","retrieval","new_object","162","Teabag.jpg",".",".","37","1","1456"
"3","3","retrieval","old_object","163","Hoverboard.jpg",".","1","36","1","1052"
"3","3","retrieval","old_object","164","PedestalGreek.jpg",".","3","37","0","1141"
"3","3","retrieval","old_object","165","Toolbox_Old.jpg",".","3","36","1","789"
"3","3","retrieval","old_object","166","Glass_Martini.jpg",".","3","36","1","864"
"3","3","retrieval","new_object","167","Mango.jpg",".",".","37","1","1598"
"3","3","retrieval","new_object","168","Autocreeper.jpg",".",".","37","1","974"
"3","3","retrieval","old_object","169","Toy_SeeSaw.jpg",".","3","36","1","937"
"3","3","retrieval","old_object","170","Lamp_TableWhite.jpg",".","3","36","1","1012"
"3","3","retrieval","new_object","171","LeatherPuncherTool.jpg",".",".","37","1","1612"
"3","3","retrieval","old_object","172","Tofu.jpg",".","3","36","1","779"
"3","3","retrieval","new_object","173","BicyclePedal.jpg",".",".","36","0","1376"
"3","3","retrieval","old_object","174","Hawk.jpg",".","3","36","1","636"
"3","3","retrieval","new_object","175","Toy_BlocksPlastic Colourful.jpg",".",".","37","1","1589"
"3","3","retrieval","old_object","176","Sock_Ankle.jpg",".","3","36","1","971"
"3","3","retrieval","old_object","177","Jug_Milk.jpg",".","3","37","0","1455"
"3","3","retrieval","new_object","178","Oyster.jpg",".",".","36","0","869"
"3","3","retrieval","new_object","179","WashRack.jpg",".",".","37","1","1120"
"3","3","retrieval","old_object","180","Sign_TrafficArrow.jpg",".","3","36","1","1402"
"3","3","retrieval","old_object","181","BicycleGear.jpg",".","1","37","0","884"
"3","3","retrieval","new_object","182","Glove_Rubber.jpg",".",".","37","1","1093"
"3","3","retrieval","new_object","183","Exercise_Stretch.jpg",".",".","37","1","841"
"3","3","retrieval","old_object","184","Case_DVD.jpg",".","1","36","1","1743"
"3","3","retrieval","old_object","185","OnionRed.jpg",".","1","36","1","874"
"3","3","retrieval","old_object","186","MobilityScooter.jpg",".","3","36","1","1163"
"3","3","retrieval","old_object","187","House_Rural.jpg",".","3","36","1","734"
"3","3","retrieval","old_object","188","Beaker.jpg",".","1","36","1","950"
"3","3","retrieval","new_object","189","Leaf_Clover.jpg",".",".","37","1","1106"
"3","3","retrieval","new_object","190","Chest.jpg",".",".","37","1","859"
"3","3","retrieval","new_object","191","MixingGlass.jpg",".",".","37","1","756"
"3","3","retrieval","new_object","192","MonkeyPuppet.jpg",".",".","37","1","1340"
"3","3","retrieval","new_object","193","IceCrusher.jpg",".",".","37","1","1028"
"3","3","retrieval","old_object","194","Strainer_Tea.jpg",".","1","37","0","987"
"3","3","retrieval","new_object","195","AmpMeter.jpg",".",".","37","1","1075"
"3","3","retrieval","new_object","196","Helmet_Soldier.jpg",".",".","37","1","865"
"3","3","retrieval","new_object","197","Almond.jpg",".",".","37","1","833"
"3","3","retrieval","new_object","199","Hammer_Reflex.jpg",".",".","37","1","1180"
"3","3","retrieval","new_object","200","ButterDish.jpg",".",".","37","1","851"
"3","3","retrieval","new_object","201","CandyDispenser.jpg",".",".","37","1","780"
"3","3","retrieval","old_object","202","Sink_Bathroom.jpg",".","3","37","0","1155"
"3","3","retrieval","old_object","203","Paddle_Beach.jpg",".","3","36","1","1572"
"3","3","retrieval","new_object","204","JukeboxAntique.jpg",".",".","36","0","803"
"3","3","retrieval","new_object","205","NailPolish.jpg",".",".","37","1","758"
"3","3","retrieval","old_object","206","Pen_Ballpoint.jpg",".","3","37","0","890"
"3","3","retrieval","old_object","207","CrepeMaker.jpg",".","3","36","1","986"
"3","3","retrieval","new_object","208","Bullet.jpg",".",".","37","1","893"
"3","3","retrieval","old_object","209","Microphone.jpg",".","1","37","0","907"
"3","3","retrieval","new_object","210","Lilypad.jpg",".",".","37","1","1048"
"3","3","retrieval","new_object","211","Flamingo_Cartoon.jpg",".",".","37","1","1304"
"3","3","retrieval","new_object","212","FireExtinguisher.jpg",".",".","37","1","841"
"3","3","retrieval","new_object","213","Bellows.jpg",".",".","37","1","785"
"3","3","retrieval","new_object","214","Trophy.jpg",".",".","37","1","766"
"3","3","retrieval","new_object","215","Notebook.jpg",".",".","37","1","711"
"3","3","retrieval","old_object","216","Cannister_Gas.jpg",".","3","37","0","733"
"3","3","retrieval","new_object","217","Fuse.jpg",".",".","36","0","1640"
"3","3","retrieval","old_object","218","TireRims.jpg",".","3","37","0","863"
"3","3","retrieval","new_object","219","Car_Sedan.jpg",".",".","36","0","1515"
"3","3","retrieval","old_object","220","CartonEggs.jpg",".","1","37","0","1292"
"3","3","retrieval","new_object","221","Candle_Blue.jpg",".",".","37","1","887"
"3","3","retrieval","old_object","222","Pasta_Spaghetti.jpg",".","1","36","1","850"
"3","3","retrieval","new_object","223","Toy_Witch.jpg",".",".","37","1","1275"
"3","3","retrieval","new_object","224","GPS.jpg",".",".","37","1","984"
"3","3","retrieval","new_object","225","Generator.jpg",".",".","37","1","1102"
"3","3","retrieval","old_object","226","ElasticBand.jpg",".","1","36","1","850"
"3","3","retrieval","old_object","227","CuttingBoard.jpg",".","3","36","1","973"
"3","3","retrieval","new_object","228","Balalaika.jpg",".",".","37","1","842"
"3","3","retrieval","new_object","229","PaintRollTray.jpg",".",".","37","1","1489"
"3","3","retrieval","new_object","230","Bottle_Wine.jpg",".",".","37","1","1175"
"3","3","retrieval","new_object","231","PaintBrushAndPallette.jpg",".",".","37","1","1216"
"3","3","retrieval","new_object","232","WireStripper.jpg",".",".","37","1","1042"
"3","3","retrieval","old_object","233","Clock_Radio.jpg",".","3","36","1","1490"
"3","3","retrieval","old_object","234","Baster.jpg",".","3","37","0","1507"
"3","3","retrieval","new_object","235","Lantern_TeaBox.jpg",".",".","37","1","1486"
"3","3","retrieval","new_object","236","TartStrawberry.jpg",".",".","37","1","945"
"3","3","retrieval","old_object","237","GranolaBar.jpg",".","3","36","1","1130"
"3","3","retrieval","old_object","238","Hottub.jpg",".","1","36","1","946"
"3","3","retrieval","new_object","239","Tickets_Blank.jpg",".",".","37","1","1247"
"3","3","retrieval","new_object","240","Goose_Canadian.jpg",".",".","37","1","850"
"3","3","retrieval","old_object","241","Crutches.jpg",".","3","36","1","978"
"3","3","retrieval","old_object","242","SmokingPipe.jpg",".","1","37","0","1535"
"3","3","retrieval","old_object","243","Bottle_BubbleBlower.jpg",".","3","36","1","1291"
"3","3","retrieval","new_object","244","MonaLisa.jpg",".",".","36","0","1721"
"3","3","retrieval","new_object","245","Desk_School.jpg",".",".","37","1","1100"
"3","3","retrieval","old_object","246","Makeup_Foundation.jpg",".","1","36","1","853"
"3","3","retrieval","new_object","247","Pants_Jeans.jpg",".",".","37","1","1426"
"3","3","retrieval","old_object","248","SkiPoles.jpg",".","3","36","1","1116"
"3","3","retrieval","new_object","249","Bottle_Blue.jpg",".",".","37","1","1074"
"3","3","retrieval","new_object","250","Megaphone.jpg",".",".","37","1","846"
"3","3","retrieval","old_object","251","SewingMachine.jpg",".","1","36","1","1547"
"3","3","retrieval","old_object","252","ChessPiece_Knight.jpg",".","1","37","0","880"
"3","3","retrieval","new_object","253","Pitcher.jpg",".",".","37","1","964"
"3","3","retrieval","new_object","254","Mitt_Oven.jpg",".",".","37","1","675"
"3","3","retrieval","new_object","255","Candy_Heart.jpg",".",".","37","1","1006"
"3","3","retrieval","new_object","256","Toy_GasPump.jpg",".",".","37","1","752"
"3","3","retrieval","new_object","257","fries.jpg",".",".","37","1","1358"
"3","3","retrieval","new_object","258","Trumpet.jpg",".",".","36","0","840"
"3","3","retrieval","old_object","259","Cabinet_Display.jpg",".","1","37","0","1468"
"3","3","retrieval","old_object","260","Ball_Disco.jpg",".","1","36","1","922"
"3","3","retrieval","old_object","261","Hammer.jpg",".","1","36","1","1037"
"3","3","retrieval","new_object","262","Lollipop_Grape.jpg",".",".","37","1","1394"
"3","3","retrieval","new_object","263","Wheelbarrow_Green.jpg",".",".","37","1","848"
"3","3","retrieval","new_object","265","Knee.jpg",".",".","37","1","1165"
"3","3","retrieval","new_object","266","Fortress.jpg",".",".","37","1","888"
"3","3","retrieval","new_object","267","Chair_MedicalToilet.jpg",".",".","37","1","937"
"3","3","retrieval","old_object","268","Gorilla.jpg",".","3","36","1","852"
"3","3","retrieval","old_object","269","TurkeyDinner.jpg",".","1","36","1","1053"
"3","3","retrieval","new_object","270","Chest_Toys.jpg",".",".","37","1","1946"
"3","3","retrieval","new_object","271","Stove_Camping.jpg",".",".","37","1","1169"
"3","3","retrieval","old_object","272","Bugle.jpg",".","1","37","0","992"
"3","3","retrieval","old_object","273","Dress_Blue.jpg",".","3","36","1","842"
"3","3","retrieval","old_object","274","FlipFlop_PairBlue.jpg",".","3","36","1","911"
"3","3","retrieval","new_object","275","StringBean.jpg",".",".","37","1","1548"
"3","3","retrieval","old_object","276","KeyHook_Occupied.jpg",".","1","37","0","1203"
"3","3","retrieval","old_object","277","Bindings_Snowboard.jpg",".","1","37","0","1012"
"3","3","retrieval","old_object","278","Arch.jpg",".","1","37","0","960"
"3","3","retrieval","new_object","279","Bird_Cardinal.jpg",".",".","37","1","976"
"3","3","retrieval","new_object","280","Mask_Happy.jpg",".",".","37","1","997"
"3","3","retrieval","old_object","281","SafetyPin.jpg",".","1","37","0","1436"
"3","3","retrieval","new_object","282","IceCream_Chocolate.jpg",".",".","37","1","1799"
"3","3","retrieval","new_object","283","Toy_StackingRing.jpg",".",".","37","1","976"
"3","3","retrieval","old_object","284","Toolbox_RedOpen.jpg",".","3","36","1","1445"
"3","3","retrieval","new_object","285","DentistOverheadLight.jpg",".",".","37","1","1339"
"3","3","retrieval","old_object","286","Spatula_1.jpg",".","1","37","0","846"
"3","3","retrieval","old_object","287","Pipe.jpg",".","1","36","1","1227"
"3","3","retrieval","new_object","288","CameoPortrait.jpg",".",".","37","1","847"
"3","3","retrieval","old_object","289","Cross.jpg",".","3","36","1","964"
"3","3","retrieval","old_object","290","Brooch_Fish.jpg",".","1","37","0","1903"
"3","3","retrieval","new_object","291","Guitarcase.jpg",".",".","37","1","707"
"3","3","retrieval","new_object","292","Beater_Electric.jpg",".",".","37","1","1027"
"3","3","retrieval","new_object","293","Dress_Party.jpg",".",".","36","0","1018"
"3","3","retrieval","new_object","294","Jar_JellyBeans.jpg",".",".","37","1","1390"
"3","3","retrieval","old_object","295","ToothPaste.jpg",".","1","36","1","919"
"3","3","retrieval","old_object","296","Boxcutter.jpg",".","1","36","1","974"
"3","3","retrieval","new_object","297","DoorBell.jpg",".",".","37","1","851"
"3","3","retrieval","old_object","298","Fencing_HelmetSwords.jpg",".","1","37","0","1403"
"3","3","retrieval","new_object","299","PotatoMasher_Zigzag.jpg",".",".","37","1","1177"
"3","3","retrieval","old_object","300","LampPost_OneBulb.jpg",".","3","37","0","1211"
"3","3","retrieval","new_object","301","HairDryer.jpg",".",".","37","1","1015"
"3","3","retrieval","old_object","302","Comb.jpg",".","3","36","1","717"
"3","3","retrieval","new_object","303","BicycleBrake.jpg",".",".","37","1","753"
"3","3","retrieval","old_object","304","Playground.jpg",".","1","37","0","848"
"3","3","retrieval","new_object","305","Blanket.jpg",".",".","37","1","1455"
"3","3","retrieval","old_object","306","DrillBit.jpg",".","3","36","1","904"
"3","3","retrieval","old_object","307","Chipmunk.jpg",".","1","36","1","1546"
"3","3","retrieval","old_object","308","BloodpPresureCuff.jpg",".","3","36","1","877"
"3","3","retrieval","new_object","309","Mat_Door.jpg",".",".","37","1","861"
"3","3","retrieval","old_object","310","SkullDeer.jpg",".","1","37","0","1564"
"3","3","retrieval","new_object","311","Pipe_Drain.jpg",".",".","37","1","1409"
"3","3","retrieval","old_object","312","Bomb.jpg",".","1","37","0","1183"
"3","3","retrieval","old_object","313","Carbiner_Ascender.jpg",".","3","37","0","1040"
"3","3","retrieval","new_object","314","Flute_Wooden.jpg",".",".","37","1","959"
"3","3","retrieval","new_object","315","Mattress.jpg",".",".","37","1","1225"
"3","3","retrieval","new_object","316","WindowBlinds.jpg",".",".","37","1","750"
"3","3","retrieval","new_object","317","Box_Jewellery.jpg",".",".","37","1","768"
"3","3","retrieval","new_object","318","Nyala.jpg",".",".","37","1","1194"
"3","3","retrieval","new_object","319","Clip_Paper.jpg",".",".","36","0","1696"
"3","3","retrieval","new_object","320","Cup_Styrofoam.jpg",".",".","37","1","712"
"3","3","retrieval","new_object","321","DogTreat.jpg",".",".","37","1","1305"
"3","3","retrieval","old_object","322","Shield_Antique.jpg",".","1","37","0","683"
"3","3","retrieval","old_object","323","Waffle.jpg",".","1","36","1","1124"
"3","3","retrieval","old_object","324","Iron_Antique.jpg",".","1","37","0","794"
"3","3","retrieval","old_object","325","Cage_Bird.jpg",".","","36","1","1257"
"3","3","demographics_block","gender","1",".",".",".","Male","1","4293537439"
"3","3","demographics_block","age","1",".",".",".","31","1","4293537439"
"3","3","demographics_block","education","1",".",".",".","14","1","4293537439"
"3","3","demographics_block","left_right_handed","2",".",".",".","Right","1","4293527776"
"3","3","demographics_block","raceoption1","2",".",".",".","0","1","4293527776"
"3","3","demographics_block","raceoption2","2",".",".",".","","1","4293527776"
"3","3","demographics_block","raceoption3","2",".",".",".","","1","4293527776"
"3","3","demographics_block","raceoption4","2",".",".",".","","1","4293527776"
"3","3","demographics_block","raceoption5","2",".",".",".","","1","4293527776"
"3","3","demographics_block","raceoption6","2",".",".",".","","1","4293527776"
"3","3","demographics_block","raceoption7","2",".",".",".","","1","4293527776"
"3","3","demographics_block","raceoption8","2",".",".",".","","1","4293527776"
"3","3","demographics_block","raceoption9","2",".",".",".","","1","4293527776"
"3","3","demographics_block","raceother","2",".",".",".","","1","4293527776"
"3","3","demographics_block","raceother","2",".",".",".","","1","4293527776"
"3","3","demographics_block","english_language","2",".",".",".","Yes","1","4293527776"
"3","3","demographics_block","other","2",".",".",".","","1","4293527776"
"3","3","demographics_block","eyesight","3",".",".",".","Yes","1","4293522837"
"3","3","demographics_block","colorblind","3",".",".",".","No","1","4293522837"
"5","5","encoding","encoding","1","CoffeeGrinder.jpg","3",".","0","0","1000"
"5","5","encoding","encoding","2","Lighter_Yellow.jpg","3",".","37","0","6"
"5","5","encoding","encoding","3","Clock_Radio.jpg","3",".","37","0","6"
"5","5","encoding","encoding","4","Hockey_Equipment.jpg","3",".","36","0","2"
"5","5","encoding","encoding","5","Bugle.jpg","1",".","36","0","0"
"5","5","encoding","encoding","6","Sock_Ankle.jpg","3",".","36","0","0"
"5","5","encoding","encoding","7","Gorilla.jpg","3",".","37","0","13"
"5","5","encoding","encoding","8","Icepick.jpg","1",".","36","0","4"
"5","5","encoding","encoding","9","DrillBit.jpg","3",".","36","0","2"
"5","5","encoding","encoding","10","Toy_PoliceCar.jpg","3",".","36","0","3"
"5","5","encoding","encoding","11","Outhouse.jpg","3",".","36","0","7"
"5","5","encoding","encoding","12","Comb.jpg","3",".","36","0","7"
"5","5","encoding","encoding","13","BicycleGear.jpg","1",".","36","0","9"
"5","5","encoding","encoding","14","Hawk.jpg","3",".","36","0","10"
"5","5","encoding","encoding","15","FlipFlop_PairBlue.jpg","3",".","36","0","12"
"5","5","encoding","encoding","16","Bandage_Wrap.jpg","1",".","36","0","3"
"5","5","encoding","encoding","17","Thermos_MetalSleek.jpg","1",".","36","0","1"
"5","5","encoding","encoding","18","Exercise_Machine.jpg","3",".","36","0","2"
"5","5","encoding","encoding","19","Hockey_Equipment.jpg","3",".","36","0","8"
"5","5","encoding","encoding","20","Decoration_WallOrnament.jpg","3",".","36","0","12"
"5","5","encoding","encoding","21","Toolbox_Old.jpg","3",".","37","0","0"
"5","5","encoding","encoding","22","Toy_BearBlackPlastic.jpg","3",".","37","0","8"
"5","5","encoding","encoding","23","Helmet_Knight.jpg","3",".","37","0","8"
"5","5","encoding","encoding","24","Cannister_Gas.jpg","3",".","37","0","12"
"5","5","encoding","encoding","25","SkiPoles.jpg","3",".","37","0","9"
"5","5","encoding","encoding","26","BicycleChain.jpg","3",".","37","0","10"
"5","5","encoding","encoding","27","Brooch_Fish.jpg","1",".","36","0","1"
"5","5","encoding","encoding","28","Bottle_Specimen.jpg","1",".","36","0","4"
"5","5","encoding","encoding","29","DivingBoard.jpg","3",".","36","0","4"
"5","5","encoding","encoding","30","Boxcutter.jpg","1",".","36","0","3"
"5","5","encoding","encoding","31","Gorilla.jpg","3",".","36","0","1"
"5","5","encoding","encoding","32","Kite_Rainbow.jpg","3",".","36","0","5"
"5","5","encoding","encoding","33","Outhouse.jpg","3",".","36","0","5"
"5","5","encoding","encoding","34","Sign_TrafficArrow.jpg","3",".","36","0","11"
"5","5","encoding","encoding","35","LampPost_OneBulb.jpg","3",".","36","0","9"
"5","5","encoding","encoding","36","Cross.jpg","3",".","36","0","11"
"5","5","encoding","encoding","37","Cannister_Gas.jpg","3",".","36","0","4"
"5","5","encoding","encoding","38","SaxophoneSoprano.jpg","3",".","36","0","1"
"5","5","encoding","encoding","39","SewingMachine.jpg","1",".","36","0","3"
"5","5","encoding","encoding","40","Clock_Radio.jpg","3",".","36","0","13"
"5","5","encoding","encoding","41","LampPost_OneBulb.jpg","3",".","36","0","3"
"5","5","encoding","encoding","42","SkullDeer.jpg","1",".","36","0","4"
"5","5","encoding","encoding","43","Truck_Dump.jpg","3",".","36","0","2"
"5","5","encoding","encoding","44","Jug_Milk.jpg","3",".","36","0","3"
"5","5","encoding","encoding","45","MobilityScooter.jpg","3",".","36","0","5"
"5","5","encoding","encoding","46","ContactLens.jpg","3",".","36","0","11"
"5","5","encoding","encoding","47","Toy_SeeSaw.jpg","3",".","37","0","3"
"5","5","encoding","encoding","48","Pajamas.jpg","1",".","37","0","8"
"5","5","encoding","encoding","49","Glass_Martini.jpg","3",".","37","0","8"
"5","5","encoding","encoding","50","Seashell_AlternateTellin.jpg","3",".","36","0","1"
"5","5","encoding","encoding","51","Syrup_Maple.jpg","1",".","36","0","4"
"5","5","encoding","encoding","52","Comb.jpg","3",".","36","0","4"
"5","5","encoding","encoding","53","Seashell_AlternateTellin.jpg","3",".","36","0","2"
"5","5","encoding","encoding","54","Dress_Blue.jpg","3",".","36","0","9"
"5","5","encoding","encoding","55","Paddle_Beach.jpg","3",".","36","0","7"
"5","5","encoding","encoding","56","Can_OilSpout.jpg","1",".","36","0","0"
"5","5","encoding","encoding","57","DivingBoard.jpg","3",".","36","0","4"
"5","5","encoding","encoding","58","KitchenTools.jpg","3",".","36","0","4"
"5","5","encoding","encoding","59","Toy_PoliceCar.jpg","3",".","36","0","10"
"5","5","encoding","encoding","60","DrillBit.jpg","3",".","36","0","13"
"5","5","encoding","encoding","61","Baster.jpg","3",".","37","0","4"
"5","5","encoding","encoding","62","Sign_TrafficArrow.jpg","3",".","37","0","9"
"5","5","encoding","encoding","63","CookieCutter_Tree.jpg","3",".","36","0","2"
"5","5","encoding","encoding","64","Shoe_Pink.jpg","3",".","36","0","3"
"5","5","encoding","encoding","65","Switch_LightWhite.jpg","3",".","36","0","11"
"5","5","encoding","encoding","67","Dart.jpg","3",".","37","0","2"
"5","5","encoding","encoding","68","Bottle_BubbleBlower.jpg","3",".","37","0","6"
"5","5","encoding","encoding","69","Decoration_WallOrnament.jpg","3",".","37","0","10"
"5","5","encoding","encoding","70","Truck_Dump.jpg","3",".","37","0","7"
"5","5","encoding","encoding","71","Toy_DollOffice.jpg","3",".","37","0","11"
"5","5","encoding","encoding","72","Sink_Bathroom.jpg","3",".","36","0","1"
"5","5","encoding","encoding","73","ReindeerHeadband.jpg","1",".","36","0","7"
"5","5","encoding","encoding","74","Toolbox_Old.jpg","3",".","36","0","10"
"5","5","encoding","encoding","75","Toolbox_RedOpen.jpg","3",".","36","0","12"
"5","5","encoding","encoding","76","BicycleChain.jpg","3",".","36","0","7"
"5","5","encoding","encoding","77","Screw.jpg","3",".","36","0","1"
"5","5","encoding","encoding","78","Currants.jpg","3",".","36","0","2"
"5","5","encoding","encoding","79","Spatula_1.jpg","1",".","36","0","2"
"5","5","encoding","encoding","80","BoogieBoard.jpg","3",".","36","0","5"
"5","5","encoding","encoding","81","Microphone.jpg","1",".","36","0","8"
"5","5","encoding","encoding","82","Drum_Brazilan.jpg","1",".","36","0","10"
"5","5","encoding","encoding","83","House_Rural.jpg","3",".","37","0","2"
"5","5","encoding","encoding","84","Pasta_Spaghetti.jpg","1",".","37","0","3"
"5","5","encoding","encoding","85","Boots_KneeHigh.jpg","3",".","37","0","7"
"5","5","encoding","encoding","86","Toolbox_Old.jpg","3",".","36","0","1"
"5","5","encoding","encoding","87","Jar_Cotton.jpg","3",".","36","0","5"
"5","5","encoding","encoding","88","Lamp_TableWhite.jpg","3",".","36","0","7"
"5","5","encoding","encoding","89","BicycleOdometer.jpg","3",".","36","0","7"
"5","5","encoding","encoding","90","Toy_SeeSaw.jpg","3",".","36","0","9"
"5","5","encoding","encoding","91","Hat_Baseball.jpg","3",".","36","0","2"
"5","5","encoding","encoding","92","Carbiner_Ascender.jpg","3",".","36","0","1"
"5","5","encoding","encoding","93","Telescope.jpg","3",".","36","0","8"
"5","5","encoding","encoding","94","Jug_Milk.jpg","3",".","36","0","3"
"5","5","encoding","encoding","95","Crib_Basket.jpg","3",".","36","0","7"
"5","5","encoding","encoding","96","PaperStack.jpg","3",".","36","0","10"
"5","5","encoding","encoding","97","Switch_LightWhite.jpg","3",".","36","0","11"
"5","5","encoding","encoding","98","Pot_Cooking.jpg","3",".","36","0","12"
"5","5","encoding","encoding","99","Fridge.jpg","1",".","37","0","3"
"5","5","encoding","encoding","100","Arch.jpg","1",".","37","0","6"
"5","5","encoding","encoding","101","BicycleOdometer.jpg","3",".","37","0","9"
"5","5","encoding","encoding","102","Comb.jpg","3",".","37","0","12"
"5","5","encoding","encoding","103","Socks_Winter.jpg","3",".","36","0","5"
"5","5","encoding","encoding","104","Tofu.jpg","3",".","36","0","9"
"5","5","encoding","encoding","105","Hawk.jpg","3",".","36","0","8"
"5","5","encoding","encoding","106","Kite_Rainbow.jpg","3",".","36","0","7"
"5","5","encoding","encoding","107","Toy_TableSet.jpg","3",".","36","0","9"
"5","5","encoding","encoding","108","ElasticBand.jpg","1",".","36","0","4"
"5","5","encoding","encoding","109","Sink_Bathroom.jpg","3",".","36","0","1"
"5","5","encoding","encoding","110","PropellerFan.jpg","3",".","36","0","9"
"5","5","encoding","encoding","111","Pickaxe.jpg","3",".","36","0","4"
"5","5","encoding","encoding","112","CookieCutter_Tree.jpg","3",".","36","0","6"
"5","5","encoding","encoding","113","Brace_Back.jpg","1",".","36","0","8"
"5","5","encoding","encoding","114","Flower_Orchid.jpg","1",".","36","0","9"
"5","5","encoding","encoding","115","BicycleChain.jpg","3",".","36","0","10"
"5","5","encoding","encoding","116","Jar_Cotton.jpg","3",".","36","0","9"
"5","5","encoding","encoding","117","Tire_Hollow.jpg","3",".","37","0","1"
"5","5","encoding","encoding","118","PropellerFan.jpg","3",".","36","0","12"
"5","5","encoding","encoding","119","CrepeMaker.jpg","3",".","36","0","10"
"5","5","encoding","encoding","120","SundaeBanana.jpg","3",".","36","0","10"
"5","5","encoding","encoding","121","Chipmunk.jpg","1",".","36","0","9"
"5","5","encoding","encoding","122","Cross.jpg","3",".","36","0","8"
"5","5","encoding","encoding","123","PaperStack.jpg","3",".","36","0","10"
"5","5","encoding","encoding","124","BloodpPresureCuff.jpg","3",".","37","0","2"
"5","5","encoding","encoding","125","Screw.jpg","3",".","37","0","2"
"5","5","encoding","encoding","126","Box_Present.jpg","3",".","37","0","7"
"5","5","encoding","encoding","127","Box_Present.jpg","3",".","37","0","6"
"5","5","encoding","encoding","128","Tofu.jpg","3",".","37","0","7"
"5","5","encoding","encoding","129","Case_DVD.jpg","1",".","37","0","10"
"5","5","encoding","encoding","130","Bench_Wooden.jpg","1",".","36","0","4"
"5","5","encoding","encoding","131","Glass_Martini.jpg","3",".","36","0","3"
"5","5","encoding","encoding","133","Tape_Washi.jpg","1",".","36","0","1"
"5","5","encoding","encoding","134","Outhouse.jpg","3",".","36","0","4"
"5","5","encoding","encoding","135","Box_Present.jpg","3",".","36","0","7"
"5","5","encoding","encoding","136","CrepeMaker.jpg","3",".","36","0","12"
"5","5","encoding","encoding","137","Helmet_Knight.jpg","3",".","37","0","1"
"5","5","encoding","encoding","138","ShearsGarden.jpg","3",".","37","0","1"
"5","5","encoding","encoding","139","GranolaBar.jpg","3",".","37","0","7"
"5","5","encoding","encoding","140","Gorilla.jpg","3",".","37","0","9"
"5","5","encoding","encoding","141","Kite_Rainbow.jpg","3",".","37","0","10"
"5","5","encoding","encoding","142","Iron_Antique.jpg","1",".","37","0","12"
"5","5","encoding","encoding","143","FlipFlop_PairBlue.jpg","3",".","36","0","4"
"5","5","encoding","encoding","144","Toolbox_RedOpen.jpg","3",".","36","0","8"
"5","5","encoding","encoding","145","Carbiner_Ascender.jpg","3",".","36","0","13"
"5","5","encoding","encoding","146","SaxophoneSoprano.jpg","3",".","36","0","6"
"5","5","encoding","encoding","147","BicycleOdometer.jpg","3",".","36","0","7"
"5","5","encoding","encoding","148","Seashell_AlternateTellin.jpg","3",".","36","0","6"
"5","5","encoding","encoding","149","Clock_Radio.jpg","3",".","36","0","5"
"5","5","encoding","encoding","150","Frame_Oval.jpg","1",".","36","0","4"
"5","5","encoding","encoding","151","Tweezers.jpg","1",".","36","0","12"
"5","5","encoding","encoding","152","Hottub.jpg","1",".","37","0","5"
"5","5","encoding","encoding","153","Crib_Basket.jpg","3",".","37","0","10"
"5","5","encoding","encoding","154","PanCooking.jpg","3",".","37","0","7"
"5","5","encoding","encoding","155","Dart.jpg","3",".","37","0","6"
"5","5","encoding","encoding","156","Cage_Bird.jpg","1",".","37","0","11"
"5","5","encoding","encoding","157","Dolphine.jpg","1",".","37","0","12"
"5","5","encoding","encoding","158","Lamp_TableWhite.jpg","3",".","36","0","4"
"5","5","encoding","encoding","159","Beaker.jpg","1",".","36","0","7"
"5","5","encoding","encoding","160","Exercise_Machine.jpg","3",".","36","0","1"
"5","5","encoding","encoding","161","PanCooking.jpg","3",".","36","0","8"
"5","5","encoding","encoding","162","SundaeBanana.jpg","3",".","36","0","5"
"5","5","encoding","encoding","163","Hammer.jpg","1",".","36","0","1"
"5","5","encoding","encoding","164","Gun_Glue.jpg","3",".","36","0","7"
"5","5","encoding","encoding","165","Socks_Winter.jpg","3",".","37","0","2"
"5","5","encoding","encoding","166","Hazelnut.jpg","1",".","37","0","9"
"5","5","encoding","encoding","167","Exercise_Machine.jpg","3",".","37","0","12"
"5","5","encoding","encoding","168","Tire_Hollow.jpg","3",".","37","0","13"
"5","5","encoding","encoding","169","Wheel_Steering.jpg","1",".","37","0","13"
"5","5","encoding","encoding","170","ContactLens.jpg","3",".","37","0","7"
"5","5","encoding","encoding","171","Bell_Hand.jpg","3",".","37","0","7"
"5","5","encoding","encoding","172","DrillBit.jpg","3",".","37","0","6"
"5","5","encoding","encoding","173","Toy_TableSet.jpg","3",".","37","0","11"
"5","5","encoding","encoding","174","ShoppingCart.jpg","3",".","36","0","2"
"5","5","encoding","encoding","175","Hoverboard.jpg","1",".","36","0","5"
"5","5","encoding","encoding","176","CoffeeGrinder.jpg","3",".","37","0","12"
"5","5","encoding","encoding","177","CrepeMaker.jpg","3",".","36","0","2"
"5","5","encoding","encoding","178","Pen_Ballpoint.jpg","3",".","36","0","7"
"5","5","encoding","encoding","179","Dart.jpg","3",".","36","0","12"
"5","5","encoding","encoding","180","Cabinet_Office.jpg","1",".","36","0","13"
"5","5","encoding","encoding","181","Dress_Blue.jpg","3",".","36","0","12"
"5","5","encoding","encoding","182","Cannister_Gas.jpg","3",".","36","0","1"
"5","5","encoding","encoding","183","KeyHook_Occupied.jpg","1",".","36","0","5"
"5","5","encoding","encoding","184","TireRims.jpg","3",".","36","0","4"
"5","5","encoding","encoding","185","GranolaBar.jpg","3",".","36","0","4"
"5","5","encoding","encoding","186","Pot_Cooking.jpg","3",".","36","0","5"
"5","5","encoding","encoding","187","Hockey_Equipment.jpg","3",".","36","0","7"
"5","5","encoding","encoding","188","Chinchilla.jpg","1",".","36","0","11"
"5","5","encoding","encoding","189","KitchenTools.jpg","3",".","37","0","2"
"5","5","encoding","encoding","190","Bomb.jpg","1",".","37","0","2"
"5","5","encoding","encoding","191","CoffeeGrinder.jpg","3",".","37","0","12"
"5","5","encoding","encoding","192","Bottle_BubbleBlower.jpg","3",".","37","0","13"
"5","5","encoding","encoding","193","TireRims.jpg","3",".","36","0","4"
"5","5","encoding","encoding","194","Makeup_Foundation.jpg","1",".","36","0","4"
"5","5","encoding","encoding","195","Toy_BearBlackPlastic.jpg","3",".","36","0","3"
"5","5","encoding","encoding","196","Paddle_Beach.jpg","3",".","36","0","6"
"5","5","encoding","encoding","197","SundaeBanana.jpg","3",".","36","0","6"
"5","5","encoding","encoding","199","Boots_KneeHigh.jpg","3",".","36","0","4"
"5","5","encoding","encoding","200","BoogieBoard.jpg","3",".","37","0","3"
"5","5","encoding","encoding","201","House_Rural.jpg","3",".","36","0","11"
"5","5","encoding","encoding","202","Switch_LightWhite.jpg","3",".","37","0","3"
"5","5","encoding","encoding","203","Hat_Baseball.jpg","3",".","37","0","10"
"5","5","encoding","encoding","204","PanCooking.jpg","3",".","36","0","5"
"5","5","encoding","encoding","205","OnionRed.jpg","1",".","36","0","6"
"5","5","encoding","encoding","206","Chopsticks.jpg","1",".","36","0","6"
"5","5","encoding","encoding","207","BoogieBoard.jpg","3",".","36","0","10"
"5","5","encoding","encoding","208","Playground.jpg","1",".","36","0","2"
"5","5","encoding","encoding","209","Baster.jpg","3",".","36","0","13"
"5","5","encoding","encoding","210","Pot_Cooking.jpg","3",".","36","0","5"
"5","5","encoding","encoding","211","PedestalGreek.jpg","3",".","36","0","3"
"5","5","encoding","encoding","212","SkiPoles.jpg","3",".","36","0","6"
"5","5","encoding","encoding","213","Box_FirstAidOpen.jpg","1",".","36","0","7"
"5","5","encoding","encoding","214","Boardgame_Checkers.jpg","1",".","36","0","11"
"5","5","encoding","encoding","215","Sock_Ankle.jpg","3",".","37","0","2"
"5","5","encoding","encoding","216","FlipFlop_PairBlue.jpg","3",".","37","0","3"
"5","5","encoding","encoding","217","Socks_Winter.jpg","3",".","37","0","10"
"5","5","encoding","encoding","218","Crib_Basket.jpg","3",".","0","0","1000"
"5","5","encoding","encoding","219","Fencing_HelmetSwords.jpg","1",".","0","0","1000"
"5","5","encoding","encoding","220","ToothPaste.jpg","1",".","0","0","1000"
"5","5","encoding","encoding","221","PedestalGreek.jpg","3",".","0","0","1000"
"5","5","encoding","encoding","222","Toy_Lighthouse.jpg","1",".","0","0","1000"
"5","5","encoding","encoding","223","TurkeyDinner.jpg","1",".","0","0","1000"
"5","5","encoding","encoding","224","Sink_Bathroom.jpg","3",".","0","0","1000"
"5","5","encoding","encoding","225","Jug_Milk.jpg","3",".","36","0","323"
"5","5","encoding","encoding","226","Pig.jpg","1",".","36","0","9"
"5","5","encoding","encoding","227","Gun_Glue.jpg","3",".","36","0","2"
"5","5","encoding","encoding","228","Hat_Baseball.jpg","3",".","36","0","2"
"5","5","encoding","encoding","229","Statue_SouthAmerican.jpg","1",".","36","0","2"
"5","5","encoding","encoding","230","CuttingBoard.jpg","3",".","36","0","3"
"5","5","encoding","encoding","231","Toy_DollOffice.jpg","3",".","36","0","7"
"5","5","encoding","encoding","232","SaxophoneSoprano.jpg","3",".","36","0","2"
"5","5","encoding","encoding","233","Baster.jpg","3",".","36","0","6"
"5","5","encoding","encoding","234","TireRims.jpg","3",".","36","0","8"
"5","5","encoding","encoding","235","Toy_SeeSaw.jpg","3",".","36","0","6"
"5","5","encoding","encoding","236","KitchenTools.jpg","3",".","36","0","6"
"5","5","encoding","encoding","237","Boots_KneeHigh.jpg","3",".","36","0","11"
"5","5","encoding","encoding","238","ContactLens.jpg","3",".","37","0","2"
"5","5","encoding","encoding","239","Truck_Dump.jpg","3",".","37","0","5"
"5","5","encoding","encoding","240","Ball_Disco.jpg","1",".","37","0","10"
"5","5","encoding","encoding","241","Dress_Blue.jpg","3",".","37","0","11"
"5","5","encoding","encoding","242","Toolbox_RedOpen.jpg","3",".","36","0","4"
"5","5","encoding","encoding","243","PaintRoller.jpg","1",".","36","0","5"
"5","5","encoding","encoding","244","Lamp_TableWhite.jpg","3",".","36","0","8"
"5","5","encoding","encoding","245","Gun_Glue.jpg","3",".","36","0","12"
"5","5","encoding","encoding","246","ChessPiece_Knight.jpg","1",".","36","0","12"
"5","5","encoding","encoding","247","RibbonSpool.jpg","1",".","36","0","1"
"5","5","encoding","encoding","248","ShearsGarden.jpg","3",".","36","0","2"
"5","5","encoding","encoding","249","HumanSkeleton.jpg","1",".","36","0","0"
"5","5","encoding","encoding","250","MobilityScooter.jpg","3",".","36","0","2"
"5","5","encoding","encoding","251","Toy_BearBlackPlastic.jpg","3",".","36","0","3"
"5","5","encoding","encoding","252","AnsweringMachine.jpg","1",".","36","0","7"
"5","5","encoding","encoding","253","Currants.jpg","3",".","36","0","9"
"5","5","encoding","encoding","254","Waffle.jpg","1",".","36","0","3"
"5","5","encoding","encoding","255","Lighter_Yellow.jpg","3",".","36","0","4"
"5","5","encoding","encoding","256","PaperStack.jpg","3",".","36","0","7"
"5","5","encoding","encoding","257","Telescope.jpg","3",".","36","0","7"
"5","5","encoding","encoding","258","Carbiner_Ascender.jpg","3",".","36","0","5"
"5","5","encoding","encoding","259","SkiPoles.jpg","3",".","36","0","8"
"5","5","encoding","encoding","260","Cross.jpg","3",".","36","0","12"
"5","5","encoding","encoding","261","Crutches.jpg","3",".","37","0","2"
"5","5","encoding","encoding","262","Flower_Hibiscus.jpg","1",".","37","0","2"
"5","5","encoding","encoding","263","Caterpillar.jpg","1",".","37","0","7"
"5","5","encoding","encoding","265","Statue_VirginMary.jpg","1",".","36","0","4"
"5","5","encoding","encoding","266","GranolaBar.jpg","3",".","36","0","3"
"5","5","encoding","encoding","267","CookieCutter_Tree.jpg","3",".","36","0","5"
"5","5","encoding","encoding","268","CuttingBoard.jpg","3",".","36","0","4"
"5","5","encoding","encoding","269","Shield_Antique.jpg","1",".","36","0","8"
"5","5","encoding","encoding","270","Radio_Vintage.jpg","1",".","36","0","12"
"5","5","encoding","encoding","271","Bindings_Snowboard.jpg","1",".","36","0","11"
"5","5","encoding","encoding","272","BloodpPresureCuff.jpg","3",".","36","0","11"
"5","5","encoding","encoding","273","Lighter_Yellow.jpg","3",".","37","0","3"
"5","5","encoding","encoding","274","Decoration_WallOrnament.jpg","3",".","37","0","4"
"5","5","encoding","encoding","275","PedestalGreek.jpg","3",".","37","0","8"
"5","5","encoding","encoding","276","Shoe_Pink.jpg","3",".","37","0","9"
"5","5","encoding","encoding","277","Strainer_Tea.jpg","1",".","36","0","3"
"5","5","encoding","encoding","278","Glass_Cup.jpg","1",".","37","0","13"
"5","5","encoding","encoding","279","SmokingPipe.jpg","1",".","36","0","9"
"5","5","encoding","encoding","280","Jar_Cotton.jpg","3",".","36","0","1"
"5","5","encoding","encoding","281","Tofu.jpg","3",".","36","0","4294967295"
"5","5","encoding","encoding","282","Cabinet_Display.jpg","1",".","36","0","2"
"5","5","encoding","encoding","283","Hawk.jpg","3",".","36","0","1"
"5","5","encoding","encoding","284","ShoppingCart.jpg","3",".","36","0","5"
"5","5","encoding","encoding","285","Bottle_BubbleBlower.jpg","3",".","36","0","5"
"5","5","encoding","encoding","286","Helmet_Knight.jpg","3",".","36","0","8"
"5","5","encoding","encoding","287","Pickaxe.jpg","3",".","36","0","13"
"5","5","encoding","encoding","288","Pen_Ballpoint.jpg","3",".","37","0","2"
"5","5","encoding","encoding","289","LampPost_OneBulb.jpg","3",".","37","0","7"
"5","5","encoding","encoding","290","Ball_8.jpg","1",".","36","0","6"
"5","5","encoding","encoding","291","Bell_Hand.jpg","3",".","36","0","11"
"5","5","encoding","encoding","292","CartonEggs.jpg","1",".","36","0","4"
"5","5","encoding","encoding","293","Tire_Hollow.jpg","3",".","36","0","4"
"5","5","encoding","encoding","294","Pickaxe.jpg","3",".","36","0","6"
"5","5","encoding","encoding","295","Pipe.jpg","1",".","36","0","1"
"5","5","encoding","encoding","296","Crutches.jpg","3",".","36","0","4"
"5","5","encoding","encoding","297","Pen_Ballpoint.jpg","3",".","36","0","7"
"5","5","encoding","encoding","298","PropellerFan.jpg","3",".","36","0","9"
"5","5","encoding","encoding","299","CuttingBoard.jpg","3",".","36","0","10"
"5","5","encoding","encoding","300","Crutches.jpg","3",".","36","0","12"
"5","5","encoding","encoding","301","Broom_Long.jpg","1",".","37","0","4"
"5","5","encoding","encoding","302","Toy_DollOffice.jpg","3",".","37","0","5"
"5","5","encoding","encoding","303","BloodpPresureCuff.jpg","3",".","37","0","11"
"5","5","encoding","encoding","304","ShoppingCart.jpg","3",".","36","0","2"
"5","5","encoding","encoding","305","Shoe_Pink.jpg","3",".","36","0","8"
"5","5","encoding","encoding","306","Toy_PoliceCar.jpg","3",".","36","0","1"
"5","5","encoding","encoding","307","Bell_Hand.jpg","3",".","36","0","3"
"5","5","encoding","encoding","308","Toy_TableSet.jpg","3",".","36","0","5"
"5","5","encoding","encoding","309","Telescope.jpg","3",".","36","0","9"
"5","5","encoding","encoding","310","Knife_Butter.jpg","1",".","36","0","5"
"5","5","encoding","encoding","311","Sock_Ankle.jpg","3",".","36","0","4"
"5","5","encoding","encoding","312","Screw.jpg","3",".","36","0","7"
"5","5","encoding","encoding","313","Loofa.jpg","1",".","36","0","7"
"5","5","encoding","encoding","314","Currants.jpg","3",".","36","0","10"
"5","5","encoding","encoding","315","DivingBoard.jpg","3",".","37","0","3"
"5","5","encoding","encoding","316","Tribunal_Wooden.jpg","1",".","37","0","4"
"5","5","encoding","encoding","317","Sign_TrafficArrow.jpg","3",".","37","0","12"
"5","5","encoding","encoding","318","ShearsGarden.jpg","3",".","36","0","4"
"5","5","encoding","encoding","319","House_Rural.jpg","3",".","36","0","6"
"5","5","encoding","encoding","320","MobilityScooter.jpg","3",".","36","0","11"
"5","5","encoding","encoding","321","Glass_Martini.jpg","3",".","36","0","0"
"5","5","encoding","encoding","322","Thermostat.jpg","1",".","36","0","11"
"5","5","encoding","encoding","323","Paddle_Beach.jpg","3",".","36","0","7"
"5","5","encoding","encoding","324","SafetyPin.jpg","1",".","36","0","9"
"5","5","encoding","encoding","325","CoffeeGrinder.jpg","",".","36","0","4"
"5","5","retrieval","old_object","1","Cage_Bird.jpg",".","1","36","1","1087"
"5","5","retrieval","new_object","2","Chair_MedicalToilet.jpg",".",".","36","0","11"
"5","5","retrieval","new_object","3","DogTreat.jpg",".",".","36","0","2"
"5","5","retrieval","old_object","4","Glass_Cup.jpg",".","1","36","1","4"
"5","5","retrieval","new_object","5","Knife_Hunting.jpg",".",".","36","0","9"
"5","5","retrieval","new_object","6","Apple_RedAndGreen.jpg",".",".","37","1","5"
"5","5","retrieval","new_object","7","Candle_Blue.jpg",".",".","36","0","12"
"5","5","retrieval","new_object","8","Tickets_Blank.jpg",".",".","37","1","5"
"5","5","retrieval","new_object","9","PaintBrushAndPallette.jpg",".",".","37","1","3"
"5","5","retrieval","old_object","10","PropellerFan.jpg",".","3","36","1","12"
"5","5","retrieval","new_object","11","Light_Siren.jpg",".",".","36","0","8"
"5","5","retrieval","new_object","12","CameoPortrait.jpg",".",".","36","0","7"
"5","5","retrieval","old_object","13","CookieCutter_Tree.jpg",".","3","36","1","9"
"5","5","retrieval","old_object","14","Toy_BearBlackPlastic.jpg",".","3","36","1","11"
"5","5","retrieval","old_object","15","Cabinet_Office.jpg",".","1","37","0","4"
"5","5","retrieval","new_object","16","Spoons_MeasuringDetached.jpg",".",".","37","1","7"
"5","5","retrieval","old_object","17","Loofa.jpg",".","1","37","0","7"
"5","5","retrieval","new_object","18","Bellows.jpg",".",".","37","1","3"
"5","5","retrieval","old_object","19","Helmet_Knight.jpg",".","3","37","0","1"
"5","5","retrieval","old_object","20","BicycleChain.jpg",".","3","37","0","1"
"5","5","retrieval","old_object","21","Lighter_Yellow.jpg",".","3","37","0","5"
"5","5","retrieval","new_object","22","Car_Sedan.jpg",".",".","37","1","4"
"5","5","retrieval","new_object","23","DoorKnob.jpg",".",".","37","1","1"
"5","5","retrieval","old_object","24","Chinchilla.jpg",".","1","36","1","11"
"5","5","retrieval","new_object","25","Wheelbarrow_Green.jpg",".",".","36","0","11"
"5","5","retrieval","old_object","26","Broom_Long.jpg",".","1","37","0","0"
"5","5","retrieval","old_object","27","Pot_Cooking.jpg",".","3","36","1","12"
"5","5","retrieval","new_object","28","Megaphone.jpg",".",".","36","0","9"
"5","5","retrieval","old_object","29","Boardgame_Checkers.jpg",".","1","36","1","8"
"5","5","retrieval","new_object","30","BicycleHandleGrip.jpg",".",".","36","0","11"
"5","5","retrieval","old_object","31","Bell_Hand.jpg",".","3","37","0","3"
"5","5","retrieval","new_object","32","Sign_Wetfloor.jpg",".",".","37","1","1"
"5","5","retrieval","new_object","33","FlashlightHeadBand.jpg",".",".","37","1","9"
"5","5","retrieval","new_object","34","Toy_BlocksPlastic Colourful.jpg",".",".","37","1","4"
"5","5","retrieval","old_object","35","Syrup_Maple.jpg",".","1","37","0","3"
"5","5","retrieval","old_object","36","Truck_Dump.jpg",".","3","37","0","3"
"5","5","retrieval","new_object","37","Mask_Happy.jpg",".",".","37","1","5"
"5","5","retrieval","new_object","38","PuppetTheatre_WhiteGold.jpg",".",".","37","1","1"
"5","5","retrieval","new_object","39","Skates.jpg",".",".","37","1","4"
"5","5","retrieval","old_object","40","Fridge.jpg",".","1","37","0","8"
"5","5","retrieval","old_object","41","Exercise_Machine.jpg",".","3","37","0","9"
"5","5","retrieval","new_object","42","WashRack.jpg",".",".","37","1","12"
"5","5","retrieval","old_object","43","ShoppingCart.jpg",".","3","37","0","8"
"5","5","retrieval","new_object","44","Teabag.jpg",".",".","37","1","11"
"5","5","retrieval","old_object","45","AnsweringMachine.jpg",".","1","37","0","6"
"5","5","retrieval","new_object","46","Tortilla.jpg",".",".","37","1","10"
"5","5","retrieval","old_object","47","Bandage_Wrap.jpg",".","1","37","0","7"
"5","5","retrieval","old_object","48","Pickaxe.jpg",".","3","37","0","1"
"5","5","retrieval","new_object","49","Box_Floral.jpg",".",".","36","0","12"
"5","5","retrieval","old_object","50","Frame_Oval.jpg",".","1","37","0","2"
"5","5","retrieval","old_object","51","Outhouse.jpg",".","3","37","0","6"
"5","5","retrieval","new_object","52","Helmet_Soldier.jpg",".",".","37","1","4"
"5","5","retrieval","old_object","53","Icepick.jpg",".","1","37","0","4"
"5","5","retrieval","old_object","54","Shoe_Pink.jpg",".","3","0","0","2000"
"5","5","retrieval","new_object","55","JukeboxAntique.jpg",".",".","0","0","2000"
"5","5","retrieval","old_object","56","Box_FirstAidOpen.jpg",".","1","0","0","2000"
"5","5","retrieval","new_object","57","NailPolish.jpg",".",".","36","0","473"
"5","5","retrieval","old_object","58","HumanSkeleton.jpg",".","1","36","1","8"
"5","5","retrieval","old_object","59","Switch_LightWhite.jpg",".","3","36","1","8"
"5","5","retrieval","new_object","60","Fuse.jpg",".",".","36","0","1"
"5","5","retrieval","new_object","61","Bottle_Wine.jpg",".",".","36","0","8"
"5","5","retrieval","new_object","62","Notebook.jpg",".",".","36","0","12"
"5","5","retrieval","new_object","63","AmpMeter.jpg",".",".","36","0","12"
"5","5","retrieval","old_object","64","Dart.jpg",".","3","36","1","10"
"5","5","retrieval","old_object","65","Radio_Vintage.jpg",".","1","36","1","1"
"5","5","retrieval","old_object","67","PaperStack.jpg",".","3","37","0","7"
"5","5","retrieval","new_object","68","Balalaika.jpg",".",".","37","1","9"
"5","5","retrieval","new_object","69","Clip_Paper.jpg",".",".","36","0","7"
"5","5","retrieval","old_object","70","Wheel_Steering.jpg",".","1","36","1","5"
"5","5","retrieval","old_object","71","ReindeerHeadband.jpg",".","1","36","1","4"
"5","5","retrieval","old_object","72","Flower_Hibiscus.jpg",".","1","37","0","7"
"5","5","retrieval","old_object","73","Toy_TableSet.jpg",".","3","37","0","2"
"5","5","retrieval","old_object","74","Screw.jpg",".","3","37","0","6"
"5","5","retrieval","old_object","75","Flower_Orchid.jpg",".","1","37","0","7"
"5","5","retrieval","new_object","76","StringBean.jpg",".",".","37","1","11"
"5","5","retrieval","new_object","77","Mattress.jpg",".",".","37","1","11"
"5","5","retrieval","new_object","78","Guitar_Acoustic.jpg",".",".","37","1","11"
"5","5","retrieval","old_object","79","PaintRoller.jpg",".","1","37","0","9"
"5","5","retrieval","new_object","80","Cherry.jpg",".",".","37","1","2"
"5","5","retrieval","old_object","81","Hazelnut.jpg",".","1","37","0","4"
"5","5","retrieval","new_object","82","Mop.jpg",".",".","37","1","8"
"5","5","retrieval","old_object","83","BicycleOdometer.jpg",".","3","36","1","12"
"5","5","retrieval","old_object","84","Hockey_Equipment.jpg",".","3","36","1","10"
"5","5","retrieval","old_object","85","Ball_8.jpg",".","1","36","1","7"
"5","5","retrieval","new_object","86","Drink_Green.jpg",".",".","36","0","7"
"5","5","retrieval","old_object","87","BoogieBoard.jpg",".","3","36","1","2"
"5","5","retrieval","new_object","88","Phone_Wireless.jpg",".",".","36","0","8"
"5","5","retrieval","new_object","89","Sign_Parking.jpg",".",".","36","0","7"
"5","5","retrieval","old_object","90","Toy_PoliceCar.jpg",".","3","36","1","7"
"5","5","retrieval","old_object","91","Thermos_MetalSleek.jpg",".","1","36","1","7"
"5","5","retrieval","new_object","92","fries.jpg",".",".","36","0","7"
"5","5","retrieval","new_object","93","Beater_Electric.jpg",".",".","36","0","8"
"5","5","retrieval","old_object","94","Box_Present.jpg",".","3","36","1","9"
"5","5","retrieval","new_object","95","Toy_GasPump.jpg",".",".","37","1","0"
"5","5","retrieval","new_object","96","Peppermill.jpg",".",".","37","1","5"
"5","5","retrieval","old_object","97","SaxophoneSoprano.jpg",".","3","36","1","12"
"5","5","retrieval","old_object","98","SundaeBanana.jpg",".","3","36","1","9"
"5","5","retrieval","old_object","99","Dolphine.jpg",".","1","36","1","9"
"5","5","retrieval","old_object","100","Statue_SouthAmerican.jpg",".","1","36","1","6"
"5","5","retrieval","new_object","101","Tripod.jpg",".",".","36","0","8"
"5","5","retrieval","new_object","102","Lollipop_Grape.jpg",".",".","0","0","2000"
"5","5","retrieval","old_object","103","Bottle_Specimen.jpg",".","1","0","0","2000"
"5","5","retrieval","old_object","104","Brace_Back.jpg",".","1","36","1","361"
"5","5","retrieval","new_object","105","Shampoo.jpg",".",".","37","1","9"
"5","5","retrieval","new_object","106","Keg.jpg",".",".","0","0","2000"
"5","5","retrieval","new_object","107","TartStrawberry.jpg",".",".","0","0","2000"
"5","5","retrieval","old_object","108","Tape_Washi.jpg",".","1","0","0","2000"
"5","5","retrieval","new_object","109","GPS.jpg",".",".","0","0","2000"
"5","5","retrieval","old_object","110","Decoration_WallOrnament.jpg",".","3","0","0","2000"
"5","5","retrieval","old_object","111","Pig.jpg",".","1","0","0","2000"
"5","5","retrieval","old_object","112","Crib_Basket.jpg",".","3","36","1","1845"
"5","5","retrieval","old_object","113","Gun_Glue.jpg",".","3","36","1","6"
"5","5","retrieval","old_object","114","RibbonSpool.jpg",".","1","37","0","10"
"5","5","retrieval","new_object","115","Trophy.jpg",".",".","37","1","4"
"5","5","retrieval","new_object","116","RemoteControl.jpg",".",".","37","1","8"
"5","5","retrieval","new_object","117","Lantern_TeaBox.jpg",".",".","37","1","8"
"5","5","retrieval","old_object","118","ContactLens.jpg",".","3","37","0","13"
"5","5","retrieval","old_object","119","Bench_Wooden.jpg",".","1","0","0","2000"
"5","5","retrieval","new_object","120","DoorBell.jpg",".",".","0","0","2000"
"5","5","retrieval","new_object","121","Golf_Bag.jpg",".",".","0","0","2000"
"5","5","retrieval","new_object","122","PotatoMasher_Zigzag.jpg",".",".","0","0","2000"
"5","5","retrieval","old_object","123","Thermostat.jpg",".","1","0","0","2000"
"5","5","retrieval","new_object","124","Mitt_Oven.jpg",".",".","0","0","2000"
"5","5","retrieval","old_object","125","Drum_Brazilan.jpg",".","1","0","0","2000"
"5","5","retrieval","new_object","126","Hourglass.jpg",".",".","36","0","283"
"5","5","retrieval","new_object","127","Nyala.jpg",".",".","36","0","6"
"5","5","retrieval","new_object","128","CookieCutter_Bell.jpg",".",".","36","0","11"
"5","5","retrieval","new_object","129","Leaf_Clover.jpg",".",".","36","0","3"
"5","5","retrieval","new_object","130","Shoes_DutchClogs.jpg",".",".","36","0","4"
"5","5","retrieval","new_object","131","Flamingo_Cartoon.jpg",".",".","36","0","1"
"5","5","retrieval","old_object","133","Kite_Rainbow.jpg",".","3","36","1","11"
"5","5","retrieval","old_object","134","DivingBoard.jpg",".","3","36","1","3"
"5","5","retrieval","new_object","135","Goose_Canadian.jpg",".",".","36","0","5"
"5","5","retrieval","old_object","136","Telescope.jpg",".","3","36","1","0"
"5","5","retrieval","new_object","137","MonaLisa.jpg",".",".","36","0","8"
"5","5","retrieval","new_object","138","Dress_Party.jpg",".",".","0","0","2000"
"5","5","retrieval","new_object","139","Toy_Moose.jpg",".",".","0","0","2000"
"5","5","retrieval","old_object","140","CoffeeGrinder.jpg",".","3","0","0","2000"
"5","5","retrieval","new_object","141","BottleOpener.jpg",".",".","36","0","421"
"5","5","retrieval","new_object","142","Chest_Toys.jpg",".",".","37","1","12"
"5","5","retrieval","new_object","143","MixingGlass.jpg",".",".","37","1","6"
"5","5","retrieval","new_object","144","Desk_School.jpg",".",".","37","1","5"
"5","5","retrieval","old_object","145","Toy_DollOffice.jpg",".","3","37","0","6"
"5","5","retrieval","old_object","146","Hat_Baseball.jpg",".","3","36","1","1"
"5","5","retrieval","old_object","147","Boots_KneeHigh.jpg",".","3","36","1","3"
"5","5","retrieval","new_object","148","NeedlesAcupuncture.jpg",".",".","36","0","3"
"5","5","retrieval","old_object","149","PanCooking.jpg",".","3","36","1","2"
"5","5","retrieval","old_object","150","KitchenTools.jpg",".","3","37","0","8"
"5","5","retrieval","new_object","151","Steeple.jpg",".",".","37","1","3"
"5","5","retrieval","old_object","152","Socks_Winter.jpg",".","3","37","0","7"
"5","5","retrieval","new_object","153","Pineapple.jpg",".",".","37","1","7"
"5","5","retrieval","new_object","154","Knee.jpg",".",".","37","1","12"
"5","5","retrieval","new_object","155","PassionFruit.jpg",".",".","36","0","3"
"5","5","retrieval","new_object","156","Exercise_Stretch.jpg",".",".","36","0","5"
"5","5","retrieval","old_object","157","Can_OilSpout.jpg",".","1","36","1","1"
"5","5","retrieval","old_object","158","Jar_Cotton.jpg",".","3","36","1","8"
"5","5","retrieval","old_object","159","Chopsticks.jpg",".","1","36","1","7"
"5","5","retrieval","old_object","160","Toy_Lighthouse.jpg",".","1","36","1","2"
"5","5","retrieval","old_object","161","Tweezers.jpg",".","1","36","1","6"
"5","5","retrieval","new_object","162","Mug_Beer.jpg",".",".","37","1","1"
"5","5","retrieval","old_object","163","Tire_Hollow.jpg",".","3","37","0","6"
"5","5","retrieval","new_object","164","Speaker_OnStand.jpg",".",".","37","1","11"
"5","5","retrieval","old_object","165","Seashell_AlternateTellin.jpg",".","3","37","0","6"
"5","5","retrieval","new_object","166","Spoon_Wooden.jpg",".",".","37","1","6"
"5","5","retrieval","new_object","167","Pants_Jeans.jpg",".",".","37","1","9"
"5","5","retrieval","old_object","168","Knife_Butter.jpg",".","1","37","0","5"
"5","5","retrieval","old_object","169","Statue_VirginMary.jpg",".","1","36","1","1"
"5","5","retrieval","old_object","170","Currants.jpg",".","3","36","1","6"
"5","5","retrieval","old_object","171","ShearsGarden.jpg",".","3","36","1","12"
"5","5","retrieval","old_object","172","Caterpillar.jpg",".","1","36","1","1"
"5","5","retrieval","new_object","173","MouthGuard.jpg",".",".","36","0","3"
"5","5","retrieval","old_object","174","Tribunal_Wooden.jpg",".","1","36","1","3"
"5","5","retrieval","new_object","175","BusStop.jpg",".",".","36","0","12"
"5","5","retrieval","new_object","176","LeatherPuncherTool.jpg",".",".","36","0","8"
"5","5","retrieval","new_object","177","Toy_Shapesorter.jpg",".",".","36","0","13"
"5","5","retrieval","old_object","178","Pajamas.jpg",".","1","36","1","2"
"5","5","retrieval","new_object","179","BicyclePedal.jpg",".",".","36","0","1"
"5","5","retrieval","old_object","180","Hoverboard.jpg",".","1","36","1","6"
"5","5","retrieval","old_object","181","PedestalGreek.jpg",".","3","36","1","6"
"5","5","retrieval","old_object","182","Toolbox_Old.jpg",".","3","36","1","2"
"5","5","retrieval","new_object","183","Bathtub.jpg",".",".","36","0","8"
"5","5","retrieval","new_object","184","Generator.jpg",".",".","36","0","11"
"5","5","retrieval","old_object","185","Glass_Martini.jpg",".","3","36","1","12"
"5","5","retrieval","new_object","186","Colander.jpg",".",".","36","0","7"
"5","5","retrieval","old_object","187","Toy_SeeSaw.jpg",".","3","36","1","1"
"5","5","retrieval","old_object","188","Lamp_TableWhite.jpg",".","3","36","1","9"
"5","5","retrieval","new_object","189","ShoulderPads.jpg",".",".","36","0","6"
"5","5","retrieval","old_object","190","Tofu.jpg",".","3","36","1","12"
"5","5","retrieval","new_object","191","Candy_Chocolate.jpg",".",".","36","0","12"
"5","5","retrieval","old_object","192","Hawk.jpg",".","3","36","1","9"
"5","5","retrieval","old_object","193","Sock_Ankle.jpg",".","3","36","1","11"
"5","5","retrieval","new_object","194","Sushi.jpg",".",".","36","0","9"
"5","5","retrieval","new_object","195","Chair_BeanBag.jpg",".",".","36","0","6"
"5","5","retrieval","new_object","196","Bullet.jpg",".",".","36","0","8"
"5","5","retrieval","new_object","197","BadgeSpecialAgent.jpg",".",".","36","0","2"
"5","5","retrieval","new_object","199","Chest.jpg",".",".","37","1","5"
"5","5","retrieval","new_object","200","DryRack_Dishes.jpg",".",".","37","1","8"
"5","5","retrieval","old_object","201","Jug_Milk.jpg",".","3","37","0","7"
"5","5","retrieval","old_object","202","Sign_TrafficArrow.jpg",".","3","37","0","4"
"5","5","retrieval","new_object","203","Fruit_Cactus.jpg",".",".","37","1","9"
"5","5","retrieval","new_object","204","Oyster.jpg",".",".","37","1","9"
"5","5","retrieval","old_object","205","BicycleGear.jpg",".","1","36","1","6"
"5","5","retrieval","old_object","206","Case_DVD.jpg",".","1","36","1","6"
"5","5","retrieval","old_object","207","OnionRed.jpg",".","1","36","1","5"
"5","5","retrieval","new_object","208","Stove_Camping.jpg",".",".","36","0","7"
"5","5","retrieval","new_object","209","Table_Poker.jpg",".",".","37","1","12"
"5","5","retrieval","new_object","210","PaintRollTray.jpg",".",".","36","0","5"
"5","5","retrieval","old_object","211","MobilityScooter.jpg",".","3","36","1","5"
"5","5","retrieval","old_object","212","House_Rural.jpg",".","3","36","1","3"
"5","5","retrieval","old_object","213","Beaker.jpg",".","1","36","1","2"
"5","5","retrieval","new_object","214","Bowl_Chinese.jpg",".",".","37","1","12"
"5","5","retrieval","new_object","215","Cup_Styrofoam.jpg",".",".","37","1","13"
"5","5","retrieval","new_object","216","Toys_Lego.jpg",".",".","36","0","6"
"5","5","retrieval","new_object","217","Fish_Rockbass.jpg",".",".","36","0","8"
"5","5","retrieval","old_object","218","Strainer_Tea.jpg",".","1","36","1","13"
"5","5","retrieval","new_object","219","Box_Jewellery.jpg",".",".","36","0","6"
"5","5","retrieval","new_object","220","Saw.jpg",".",".","36","0","8"
"5","5","retrieval","old_object","221","Sink_Bathroom.jpg",".","3","36","1","8"
"5","5","retrieval","new_object","222","Helmet_Construction.jpg",".",".","36","0","2"
"5","5","retrieval","new_object","223","Blanket.jpg",".",".","37","1","4"
"5","5","retrieval","new_object","224","Thermostat_Digital.jpg",".",".","37","1","8"
"5","5","retrieval","old_object","225","Paddle_Beach.jpg",".","3","37","0","7"
"5","5","retrieval","old_object","226","Pen_Ballpoint.jpg",".","3","37","0","7"
"5","5","retrieval","new_object","227","Hippopotamus.jpg",".",".","37","1","2"
"5","5","retrieval","new_object","228","Bottle_Blue.jpg",".",".","37","1","5"
"5","5","retrieval","old_object","229","CrepeMaker.jpg",".","3","37","0","4"
"5","5","retrieval","old_object","230","Microphone.jpg",".","1","37","0","9"
"5","5","retrieval","old_object","231","Cannister_Gas.jpg",".","3","37","0","12"
"5","5","retrieval","old_object","232","TireRims.jpg",".","3","37","0","13"
"5","5","retrieval","new_object","233","Pitcher.jpg",".",".","36","0","5"
"5","5","retrieval","old_object","234","CartonEggs.jpg",".","1","36","1","2"
"5","5","retrieval","new_object","235","Almond.jpg",".",".","37","1","12"
"5","5","retrieval","new_object","236","IceCream_Chocolate.jpg",".",".","37","1","6"
"5","5","retrieval","new_object","237","HairDryer.jpg",".",".","37","1","11"
"5","5","retrieval","old_object","238","Pasta_Spaghetti.jpg",".","1","37","0","9"
"5","5","retrieval","old_object","239","ElasticBand.jpg",".","1","37","0","12"
"5","5","retrieval","new_object","240","Cake_Wedding.jpg",".",".","37","1","11"
"5","5","retrieval","old_object","241","CuttingBoard.jpg",".","3","36","1","4"
"5","5","retrieval","old_object","242","Clock_Radio.jpg",".","3","36","1","4"
"5","5","retrieval","old_object","243","Baster.jpg",".","3","36","1","3"
"5","5","retrieval","new_object","244","Autocreeper.jpg",".",".","36","0","5"
"5","5","retrieval","new_object","245","SmokeDetector.jpg",".",".","36","0","8"
"5","5","retrieval","old_object","246","GranolaBar.jpg",".","3","36","1","3"
"5","5","retrieval","old_object","247","Hottub.jpg",".","1","36","1","11"
"5","5","retrieval","old_object","248","Crutches.jpg",".","3","36","1","10"
"5","5","retrieval","new_object","249","WindowBlinds.jpg",".",".","36","0","1"
"5","5","retrieval","new_object","250","Ashtray_Empty.jpg",".",".","36","0","4"
"5","5","retrieval","old_object","251","SmokingPipe.jpg",".","1","36","1","1"
"5","5","retrieval","new_object","252","Trumpet.jpg",".",".","36","0","10"
"5","5","retrieval","new_object","253","Mango.jpg",".",".","36","0","1"
"5","5","retrieval","old_object","254","Bottle_BubbleBlower.jpg",".","3","36","1","4"
"5","5","retrieval","new_object","255","Hook_Fish.jpg",".",".","36","0","4"
"5","5","retrieval","new_object","256","SculptureMetalFish.jpg",".",".","36","0","8"
"5","5","retrieval","old_object","257","Makeup_Foundation.jpg",".","1","36","1","5"
"5","5","retrieval","old_object","258","SkiPoles.jpg",".","3","36","1","5"
"5","5","retrieval","old_object","259","SewingMachine.jpg",".","1","36","1","3"
"5","5","retrieval","new_object","260","DentistOverheadLight.jpg",".",".","36","0","3"
"5","5","retrieval","old_object","261","ChessPiece_Knight.jpg",".","1","36","1","6"
"5","5","retrieval","new_object","262","Lilypad.jpg",".",".","36","0","6"
"5","5","retrieval","new_object","263","MonkeyPuppet.jpg",".",".","36","0","9"
"5","5","retrieval","old_object","265","Cabinet_Display.jpg",".","1","36","1","10"
"5","5","retrieval","new_object","266","TinChristmas.jpg",".",".","36","0","7"
"5","5","retrieval","new_object","267","Jar_JellyBeans.jpg",".",".","37","1","1"
"5","5","retrieval","old_object","268","Ball_Disco.jpg",".","1","37","0","1"
"5","5","retrieval","old_object","269","Hammer.jpg",".","1","37","0","7"
"5","5","retrieval","new_object","270","Fortress.jpg",".",".","37","1","10"
"5","5","retrieval","new_object","271","Cantaloupe.jpg",".",".","37","1","12"
"5","5","retrieval","old_object","272","Gorilla.jpg",".","3","36","1","7"
"5","5","retrieval","new_object","273","Candy_Heart.jpg",".",".","36","0","10"
"5","5","retrieval","old_object","274","TurkeyDinner.jpg",".","1","36","1","13"
"5","5","retrieval","new_object","275","Flute_Wooden.jpg",".",".","36","0","13"
"5","5","retrieval","old_object","276","Bugle.jpg",".","1","36","1","12"
"5","5","retrieval","old_object","277","Dress_Blue.jpg",".","3","36","1","5"
"5","5","retrieval","new_object","278","Toy_StackingRing.jpg",".",".","36","0","3"
"5","5","retrieval","new_object","279","Glove_Rubber.jpg",".",".","36","0","3"
"5","5","retrieval","old_object","280","FlipFlop_PairBlue.jpg",".","3","36","1","10"
"5","5","retrieval","old_object","281","KeyHook_Occupied.jpg",".","1","37","0","5"
"5","5","retrieval","new_object","282","Toy_RockingHorseBlack.jpg",".",".","37","1","11"
"5","5","retrieval","new_object","283","IceCrusher.jpg",".",".","37","1","7"
"5","5","retrieval","new_object","284","ButterDish.jpg",".",".","37","1","4"
"5","5","retrieval","old_object","285","Bindings_Snowboard.jpg",".","1","36","1","11"
"5","5","retrieval","old_object","286","Arch.jpg",".","1","37","0","2"
