"group","subject","blockcode","trialcode","trialnum","stimulus","encoding_condition","old_object_condition","response","correct","latency"
"25","25","encoding","encoding","1","A73.jpg","1",".","37","0","545"
"25","25","encoding","encoding","2","B55.jpg","3",".","37","0","732"
"25","25","encoding","encoding","3","A54.jpg","1",".","37","0","542"
"25","25","encoding","encoding","4","B6.jpg","3",".","37","0","673"
"25","25","encoding","encoding","5","B47.jpg","3",".","37","0","827"
"25","25","encoding","encoding","6","A53.jpg","1",".","37","0","710"
"25","25","encoding","encoding","7","B20.jpg","3",".","36","0","569"
"25","25","encoding","encoding","8","A57.jpg","1",".","37","0","483"
"25","25","encoding","encoding","9","B76.jpg","3",".","37","0","614"
"25","25","encoding","encoding","10","A62.jpg","1",".","37","0","544"
"25","25","encoding","encoding","11","B36.jpg","3",".","37","0","643"
"25","25","encoding","encoding","12","B49.jpg","3",".","36","0","695"
"25","25","encoding","encoding","13","B44.jpg","3",".","37","0","640"
"25","25","encoding","encoding","14","A50.jpg","1",".","37","0","459"
"25","25","encoding","encoding","15","A71.jpg","1",".","37","0","477"
"25","25","encoding","encoding","16","B25.jpg","3",".","37","0","441"
"25","25","encoding","encoding","17","A42.jpg","1",".","37","0","451"
"25","25","encoding","encoding","18","B47.jpg","3",".","37","0","453"
"25","25","encoding","encoding","19","A5.jpg","1",".","37","0","504"
"25","25","encoding","encoding","20","B71.jpg","3",".","37","0","538"
"25","25","encoding","encoding","21","B10.jpg","3",".","37","0","502"
"25","25","encoding","encoding","22","B28.jpg","3",".","37","0","512"
"25","25","encoding","encoding","23","B19.jpg","3",".","37","0","450"
"25","25","encoding","encoding","24","B34.jpg","3",".","37","0","637"
"25","25","encoding","encoding","25","A44.jpg","1",".","37","0","479"
"25","25","encoding","encoding","26","B42.jpg","3",".","37","0","450"
"25","25","encoding","encoding","27","B24.jpg","3",".","37","0","453"
"25","25","encoding","encoding","28","B31.jpg","3",".","37","0","439"
"25","25","encoding","encoding","29","B78.jpg","3",".","37","0","435"
"25","25","encoding","encoding","30","B49.jpg","3",".","36","0","580"
"25","25","encoding","encoding","31","A13.jpg","1",".","37","0","495"
"25","25","encoding","encoding","32","B42.jpg","3",".","37","0","498"
"25","25","encoding","encoding","33","B31.jpg","3",".","37","0","516"
"25","25","encoding","encoding","34","B73.jpg","3",".","36","0","575"
"25","25","encoding","encoding","35","A1.jpg","1",".","36","0","433"
"25","25","encoding","encoding","36","B68.jpg","3",".","37","0","484"
"25","25","encoding","encoding","37","B12.jpg","3",".","37","0","511"
"25","25","encoding","encoding","38","A14.jpg","1",".","37","0","529"
"25","25","encoding","encoding","39","B15.jpg","3",".","37","0","516"
"25","25","encoding","encoding","40","B29.jpg","3",".","37","0","574"
"25","25","encoding","encoding","41","A34.jpg","1",".","37","0","633"
"25","25","encoding","encoding","42","B29.jpg","3",".","37","0","452"
"25","25","encoding","encoding","43","B26.jpg","3",".","37","0","510"
"25","25","encoding","encoding","44","B13.jpg","3",".","36","0","488"
"25","25","encoding","encoding","45","A46.jpg","1",".","37","0","411"
"25","25","encoding","encoding","46","B12.jpg","3",".","37","0","430"
"25","25","encoding","encoding","47","B57.jpg","3",".","37","0","481"
"25","25","encoding","encoding","48","B63.jpg","3",".","37","0","387"
"25","25","encoding","encoding","49","B8.jpg","3",".","37","0","414"
"25","25","encoding","encoding","50","B53.jpg","3",".","37","0","400"
"25","25","encoding","encoding","51","B39.jpg","3",".","37","0","403"
"25","25","encoding","encoding","52","B48.jpg","3",".","37","0","478"
"25","25","encoding","encoding","53","B71.jpg","3",".","37","0","408"
"25","25","encoding","encoding","54","B45.jpg","3",".","37","0","475"
"25","25","encoding","encoding","55","B24.jpg","3",".","37","0","453"
"25","25","encoding","encoding","56","B59.jpg","3",".","37","0","360"
"25","25","encoding","encoding","57","B26.jpg","3",".","37","0","339"
"25","25","encoding","encoding","58","B77.jpg","3",".","36","0","549"
"25","25","encoding","encoding","59","B39.jpg","3",".","37","0","391"
"25","25","encoding","encoding","60","B51.jpg","3",".","37","0","498"
"25","25","encoding","encoding","61","B7.jpg","3",".","37","0","541"
"25","25","encoding","encoding","62","A68.jpg","1",".","36","0","592"
"25","25","encoding","encoding","63","B46.jpg","3",".","0","0","1000"
"25","25","encoding","encoding","64","B15.jpg","3",".","37","0","461"
"25","25","encoding","encoding","65","B70.jpg","3",".","37","0","447"
"25","25","encoding","encoding","67","B46.jpg","3",".","37","0","462"
"25","25","encoding","encoding","68","B4.jpg","3",".","36","0","704"
"25","25","encoding","encoding","69","B40.jpg","3",".","37","0","419"
"25","25","encoding","encoding","70","B49.jpg","3",".","36","0","534"
"25","25","encoding","encoding","71","B72.jpg","3",".","37","0","369"
"25","25","encoding","encoding","72","B54.jpg","3",".","37","0","498"
"25","25","encoding","encoding","73","B40.jpg","3",".","37","0","405"
"25","25","encoding","encoding","74","A65.jpg","1",".","37","0","416"
"25","25","encoding","encoding","75","A30.jpg","1",".","37","0","363"
"25","25","encoding","encoding","76","B11.jpg","3",".","37","0","397"
"25","25","encoding","encoding","77","B69.jpg","3",".","37","0","320"
"25","25","encoding","encoding","78","B77.jpg","3",".","36","0","514"
"25","25","encoding","encoding","79","B12.jpg","3",".","37","0","349"
"25","25","encoding","encoding","80","B3.jpg","3",".","37","0","336"
"25","25","encoding","encoding","81","A22.jpg","1",".","37","0","354"
"25","25","encoding","encoding","82","A56.jpg","1",".","37","0","292"
"25","25","encoding","encoding","83","B13.jpg","3",".","36","0","511"
"25","25","encoding","encoding","84","B4.jpg","3",".","37","0","442"
"25","25","encoding","encoding","85","B67.jpg","3",".","37","0","429"
"25","25","encoding","encoding","86","B22.jpg","3",".","37","0","576"
"25","25","encoding","encoding","87","B23.jpg","3",".","37","0","418"
"25","25","encoding","encoding","88","B36.jpg","3",".","37","0","412"
"25","25","encoding","encoding","89","B64.jpg","3",".","37","0","407"
"25","25","encoding","encoding","90","B58.jpg","3",".","37","0","482"
"25","25","encoding","encoding","91","A15.jpg","1",".","37","0","492"
"25","25","encoding","encoding","92","B70.jpg","3",".","37","0","471"
"25","25","encoding","encoding","93","B72.jpg","3",".","37","0","433"
"25","25","encoding","encoding","94","B27.jpg","3",".","37","0","580"
"25","25","encoding","encoding","95","A40.jpg","1",".","37","0","895"
"25","25","encoding","encoding","96","B58.jpg","3",".","37","0","593"
"25","25","encoding","encoding","97","A28.jpg","1",".","37","0","620"
"25","25","encoding","encoding","98","A60.jpg","1",".","37","0","726"
"25","25","encoding","encoding","99","B47.jpg","3",".","37","0","537"
"25","25","encoding","encoding","100","B46.jpg","3",".","37","0","524"
"25","25","encoding","encoding","101","B66.jpg","3",".","0","0","1000"
"25","25","encoding","encoding","102","A32.jpg","1",".","37","0","473"
"25","25","encoding","encoding","103","B53.jpg","3",".","37","0","531"
"25","25","encoding","encoding","104","A20.jpg","1",".","37","0","390"
"25","25","encoding","encoding","105","B54.jpg","3",".","37","0","681"
"25","25","encoding","encoding","106","A6.jpg","1",".","36","0","594"
"25","25","encoding","encoding","107","B75.jpg","3",".","36","0","597"
"25","25","encoding","encoding","108","B10.jpg","3",".","37","0","440"
"25","25","encoding","encoding","109","B7.jpg","3",".","36","0","739"
"25","25","encoding","encoding","110","B19.jpg","3",".","37","0","494"
"25","25","encoding","encoding","111","B52.jpg","3",".","37","0","520"
"25","25","encoding","encoding","112","B23.jpg","3",".","37","0","427"
"25","25","encoding","encoding","113","B75.jpg","3",".","36","0","629"
"25","25","encoding","encoding","114","A11.jpg","1",".","37","0","432"
"25","25","encoding","encoding","115","B7.jpg","3",".","36","0","619"
"25","25","encoding","encoding","116","A66.jpg","1",".","37","0","477"
"25","25","encoding","encoding","117","A52.jpg","1",".","37","0","416"
"25","25","encoding","encoding","118","B76.jpg","3",".","36","0","538"
"25","25","encoding","encoding","119","B9.jpg","3",".","36","0","716"
"25","25","encoding","encoding","120","B13.jpg","3",".","36","0","496"
"25","25","encoding","encoding","121","B19.jpg","3",".","37","0","482"
"25","25","encoding","encoding","122","B4.jpg","3",".","37","0","573"
"25","25","encoding","encoding","123","B21.jpg","3",".","37","0","583"
"25","25","encoding","encoding","124","A19.jpg","1",".","37","0","490"
"25","25","encoding","encoding","125","B44.jpg","3",".","37","0","469"
"25","25","encoding","encoding","126","B20.jpg","3",".","36","0","519"
"25","25","encoding","encoding","127","A24.jpg","1",".","37","0","370"
"25","25","encoding","encoding","128","A0.jpg","1",".","37","0","452"
"25","25","encoding","encoding","129","A76.jpg","1",".","37","0","487"
"25","25","encoding","encoding","130","B56.jpg","3",".","36","0","618"
"25","25","encoding","encoding","131","B8.jpg","3",".","37","0","412"
"25","25","encoding","encoding","133","B52.jpg","3",".","37","0","438"
"25","25","encoding","encoding","134","B75.jpg","3",".","37","0","593"
"25","25","encoding","encoding","135","B30.jpg","3",".","37","0","459"
"25","25","encoding","encoding","136","B38.jpg","3",".","37","0","502"
"25","25","encoding","encoding","137","B9.jpg","3",".","37","0","440"
"25","25","encoding","encoding","138","B57.jpg","3",".","37","0","547"
"25","25","encoding","encoding","139","B53.jpg","3",".","37","0","510"
"25","25","encoding","encoding","140","B5.jpg","3",".","37","0","472"
"25","25","encoding","encoding","141","B66.jpg","3",".","37","0","603"
"25","25","encoding","encoding","142","B1.jpg","3",".","37","0","421"
"25","25","encoding","encoding","143","A23.jpg","1",".","37","0","424"
"25","25","encoding","encoding","144","A4.jpg","1",".","37","0","515"
"25","25","encoding","encoding","145","B26.jpg","3",".","37","0","397"
"25","25","encoding","encoding","146","B5.jpg","3",".","37","0","303"
"25","25","encoding","encoding","147","A38.jpg","1",".","37","0","442"
"25","25","encoding","encoding","148","B32.jpg","3",".","37","0","373"
"25","25","encoding","encoding","149","B17.jpg","3",".","37","0","399"
"25","25","encoding","encoding","150","B78.jpg","3",".","37","0","425"
"25","25","encoding","encoding","151","A55.jpg","1",".","37","0","428"
"25","25","encoding","encoding","152","B79.jpg","3",".","37","0","327"
"25","25","encoding","encoding","153","A51.jpg","1",".","36","0","626"
"25","25","encoding","encoding","154","B22.jpg","3",".","37","0","395"
"25","25","encoding","encoding","155","A21.jpg","1",".","37","0","486"
"25","25","encoding","encoding","156","B2.jpg","3",".","37","0","403"
"25","25","encoding","encoding","157","B65.jpg","3",".","37","0","395"
"25","25","encoding","encoding","158","A72.jpg","1",".","37","0","431"
"25","25","encoding","encoding","159","B50.jpg","3",".","37","0","370"
"25","25","encoding","encoding","160","B58.jpg","3",".","37","0","363"
"25","25","encoding","encoding","161","B45.jpg","3",".","37","0","423"
"25","25","encoding","encoding","162","B31.jpg","3",".","37","0","376"
"25","25","encoding","encoding","163","B35.jpg","3",".","37","0","404"
"25","25","encoding","encoding","164","A39.jpg","1",".","37","0","421"
"25","25","encoding","encoding","165","A45.jpg","1",".","36","0","568"
"25","25","encoding","encoding","166","B66.jpg","3",".","37","0","675"
"25","25","encoding","encoding","167","B2.jpg","3",".","37","0","406"
"25","25","encoding","encoding","168","B76.jpg","3",".","36","0","640"
"25","25","encoding","encoding","169","B55.jpg","3",".","37","0","418"
"25","25","encoding","encoding","170","B33.jpg","3",".","37","0","501"
"25","25","encoding","encoding","171","B56.jpg","3",".","36","0","544"
"25","25","encoding","encoding","172","B45.jpg","3",".","37","0","387"
"25","25","encoding","encoding","173","A7.jpg","1",".","36","0","557"
"25","25","encoding","encoding","174","A27.jpg","1",".","37","0","448"
"25","25","encoding","encoding","175","B28.jpg","3",".","37","0","418"
"25","25","encoding","encoding","176","A48.jpg","1",".","37","0","431"
"25","25","encoding","encoding","177","B57.jpg","3",".","37","0","375"
"25","25","encoding","encoding","178","B79.jpg","3",".","37","0","458"
"25","25","encoding","encoding","179","B22.jpg","3",".","37","0","509"
"25","25","encoding","encoding","180","B55.jpg","3",".","37","0","511"
"25","25","encoding","encoding","181","A43.jpg","1",".","36","0","578"
"25","25","encoding","encoding","182","A35.jpg","1",".","37","0","476"
"25","25","encoding","encoding","183","B32.jpg","3",".","37","0","383"
"25","25","encoding","encoding","184","B6.jpg","3",".","37","0","449"
"25","25","encoding","encoding","185","A64.jpg","1",".","37","0","413"
"25","25","encoding","encoding","186","B35.jpg","3",".","37","0","415"
"25","25","encoding","encoding","187","B41.jpg","3",".","37","0","442"
"25","25","encoding","encoding","188","B62.jpg","3",".","37","0","469"
"25","25","encoding","encoding","189","B8.jpg","3",".","37","0","502"
"25","25","encoding","encoding","190","B64.jpg","3",".","36","0","601"
"25","25","encoding","encoding","191","B17.jpg","3",".","37","0","460"
"25","25","encoding","encoding","192","A78.jpg","1",".","37","0","510"
"25","25","encoding","encoding","193","B33.jpg","3",".","37","0","441"
"25","25","encoding","encoding","194","A31.jpg","1",".","36","0","547"
"25","25","encoding","encoding","195","B11.jpg","3",".","37","0","775"
"25","25","encoding","encoding","196","B60.jpg","3",".","37","0","466"
"25","25","encoding","encoding","197","B43.jpg","3",".","36","0","716"
"25","25","encoding","encoding","199","B2.jpg","3",".","37","0","556"
"25","25","encoding","encoding","200","B78.jpg","3",".","37","0","502"
"25","25","encoding","encoding","201","B43.jpg","3",".","37","0","496"
"25","25","encoding","encoding","202","B69.jpg","3",".","37","0","394"
"25","25","encoding","encoding","203","A12.jpg","1",".","37","0","453"
"25","25","encoding","encoding","204","B37.jpg","3",".","37","0","376"
"25","25","encoding","encoding","205","B50.jpg","3",".","37","0","458"
"25","25","encoding","encoding","206","B51.jpg","3",".","37","0","533"
"25","25","encoding","encoding","207","A25.jpg","1",".","37","0","367"
"25","25","encoding","encoding","208","A3.jpg","1",".","37","0","370"
"25","25","encoding","encoding","209","A26.jpg","1",".","36","0","549"
"25","25","encoding","encoding","210","A29.jpg","1",".","37","0","375"
"25","25","encoding","encoding","211","B50.jpg","3",".","37","0","418"
"25","25","encoding","encoding","212","B41.jpg","3",".","37","0","381"
"25","25","encoding","encoding","213","B24.jpg","3",".","37","0","343"
"25","25","encoding","encoding","214","B1.jpg","3",".","37","0","450"
"25","25","encoding","encoding","215","B65.jpg","3",".","37","0","388"
"25","25","encoding","encoding","216","B43.jpg","3",".","37","0","495"
"25","25","encoding","encoding","217","B56.jpg","3",".","36","0","521"
"25","25","encoding","encoding","218","B51.jpg","3",".","37","0","460"
"25","25","encoding","encoding","219","B16.jpg","3",".","37","0","415"
"25","25","encoding","encoding","220","A77.jpg","1",".","37","0","402"
"25","25","encoding","encoding","221","B39.jpg","3",".","37","0","412"
"25","25","encoding","encoding","222","B61.jpg","3",".","37","0","678"
"25","25","encoding","encoding","223","B35.jpg","3",".","37","0","393"
"25","25","encoding","encoding","224","B3.jpg","3",".","37","0","916"
"25","25","encoding","encoding","225","B15.jpg","3",".","37","0","462"
"25","25","encoding","encoding","226","A9.jpg","1",".","37","0","489"
"25","25","encoding","encoding","227","B63.jpg","3",".","37","0","348"
"25","25","encoding","encoding","228","B16.jpg","3",".","37","0","503"
"25","25","encoding","encoding","229","B59.jpg","3",".","37","0","449"
"25","25","encoding","encoding","230","B70.jpg","3",".","37","0","379"
"25","25","encoding","encoding","231","A61.jpg","1",".","37","0","479"
"25","25","encoding","encoding","232","A67.jpg","1",".","37","0","841"
"25","25","encoding","encoding","233","A59.jpg","1",".","37","0","468"
"25","25","encoding","encoding","234","A75.jpg","1",".","37","0","526"
"25","25","encoding","encoding","235","A41.jpg","1",".","37","0","440"
"25","25","encoding","encoding","236","B67.jpg","3",".","37","0","387"
"25","25","encoding","encoding","237","B0.jpg","3",".","37","0","414"
"25","25","encoding","encoding","238","A49.jpg","1",".","37","0","393"
"25","25","encoding","encoding","239","B62.jpg","3",".","37","0","675"
"25","25","encoding","encoding","240","B68.jpg","3",".","37","0","501"
"25","25","encoding","encoding","241","B73.jpg","3",".","36","0","608"
"25","25","encoding","encoding","242","B74.jpg","3",".","36","0","451"
"25","25","encoding","encoding","243","B74.jpg","3",".","36","0","453"
"25","25","encoding","encoding","244","A58.jpg","1",".","37","0","384"
"25","25","encoding","encoding","245","B14.jpg","3",".","37","0","434"
"25","25","encoding","encoding","246","A69.jpg","1",".","37","0","477"
"25","25","encoding","encoding","247","B30.jpg","3",".","37","0","399"
"25","25","encoding","encoding","248","A47.jpg","1",".","37","0","483"
"25","25","encoding","encoding","249","B61.jpg","3",".","37","0","413"
"25","25","encoding","encoding","250","B27.jpg","3",".","37","0","519"
"25","25","encoding","encoding","251","B67.jpg","3",".","37","0","386"
"25","25","encoding","encoding","252","B14.jpg","3",".","37","0","452"
"25","25","encoding","encoding","253","B77.jpg","3",".","36","0","415"
"25","25","encoding","encoding","254","B30.jpg","3",".","37","0","594"
"25","25","encoding","encoding","255","B36.jpg","3",".","37","0","829"
"25","25","encoding","encoding","256","A36.jpg","1",".","37","0","519"
"25","25","encoding","encoding","257","A70.jpg","1",".","37","0","585"
"25","25","encoding","encoding","258","B74.jpg","3",".","36","0","540"
"25","25","encoding","encoding","259","A79.jpg","1",".","37","0","391"
"25","25","encoding","encoding","260","B63.jpg","3",".","37","0","401"
"25","25","encoding","encoding","261","B44.jpg","3",".","37","0","804"
"25","25","encoding","encoding","262","B18.jpg","3",".","37","0","447"
"25","25","encoding","encoding","263","B48.jpg","3",".","37","0","481"
"25","25","encoding","encoding","265","A63.jpg","1",".","37","0","994"
"25","25","encoding","encoding","266","B59.jpg","3",".","37","0","525"
"25","25","encoding","encoding","267","A16.jpg","1",".","37","0","367"
"25","25","encoding","encoding","268","A10.jpg","1",".","37","0","314"
"25","25","encoding","encoding","269","B27.jpg","3",".","37","0","357"
"25","25","encoding","encoding","270","B60.jpg","3",".","37","0","431"
"25","25","encoding","encoding","271","B37.jpg","3",".","37","0","418"
"25","25","encoding","encoding","272","B0.jpg","3",".","37","0","381"
"25","25","encoding","encoding","273","B34.jpg","3",".","37","0","375"
"25","25","encoding","encoding","274","B69.jpg","3",".","37","0","386"
"25","25","encoding","encoding","275","B68.jpg","3",".","37","0","372"
"25","25","encoding","encoding","276","A2.jpg","1",".","37","0","431"
"25","25","encoding","encoding","277","B9.jpg","3",".","37","0","441"
"25","25","encoding","encoding","278","B38.jpg","3",".","37","0","437"
"25","25","encoding","encoding","279","B41.jpg","3",".","37","0","351"
"25","25","encoding","encoding","280","B79.jpg","3",".","37","0","401"
"25","25","encoding","encoding","281","A37.jpg","1",".","37","0","515"
"25","25","encoding","encoding","282","B29.jpg","3",".","37","0","407"
"25","25","encoding","encoding","283","B20.jpg","3",".","36","0","537"
"25","25","encoding","encoding","284","B23.jpg","3",".","37","0","604"
"25","25","encoding","encoding","285","B5.jpg","3",".","37","0","670"
"25","25","encoding","encoding","286","B21.jpg","3",".","37","0","537"
"25","25","encoding","encoding","287","B21.jpg","3",".","37","0","419"
"25","25","encoding","encoding","288","B60.jpg","3",".","37","0","415"
"25","25","encoding","encoding","289","B72.jpg","3",".","37","0","577"
"25","25","encoding","encoding","290","B38.jpg","3",".","37","0","579"
"25","25","encoding","encoding","291","B3.jpg","3",".","37","0","638"
"25","25","encoding","encoding","292","B25.jpg","3",".","37","0","504"
"25","25","encoding","encoding","293","B18.jpg","3",".","37","0","339"
"25","25","encoding","encoding","294","B48.jpg","3",".","37","0","510"
"25","25","encoding","encoding","295","B62.jpg","3",".","37","0","673"
"25","25","encoding","encoding","296","B33.jpg","3",".","37","0","396"
"25","25","encoding","encoding","297","B40.jpg","3",".","37","0","415"
"25","25","encoding","encoding","298","B54.jpg","3",".","37","0","448"
"25","25","encoding","encoding","299","B28.jpg","3",".","37","0","996"
"25","25","encoding","encoding","300","B73.jpg","3",".","36","0","549"
"25","25","encoding","encoding","301","B61.jpg","3",".","37","0","481"
"25","25","encoding","encoding","302","B32.jpg","3",".","37","0","483"
"25","25","encoding","encoding","303","A8.jpg","1",".","37","0","478"
"25","25","encoding","encoding","304","B25.jpg","3",".","37","0","728"
"25","25","encoding","encoding","305","B65.jpg","3",".","37","0","378"
"25","25","encoding","encoding","306","B18.jpg","3",".","37","0","541"
"25","25","encoding","encoding","307","B64.jpg","3",".","36","0","551"
"25","25","encoding","encoding","308","B10.jpg","3",".","37","0","531"
"25","25","encoding","encoding","309","B37.jpg","3",".","37","0","565"
"25","25","encoding","encoding","310","B42.jpg","3",".","0","0","1000"
"25","25","encoding","encoding","311","B16.jpg","3",".","37","0","402"
"25","25","encoding","encoding","312","B34.jpg","3",".","37","0","333"
"25","25","encoding","encoding","313","B6.jpg","3",".","37","0","343"
"25","25","encoding","encoding","314","A17.jpg","1",".","37","0","393"
"25","25","encoding","encoding","315","B17.jpg","3",".","37","0","749"
"25","25","encoding","encoding","316","A33.jpg","1",".","37","0","567"
"25","25","encoding","encoding","317","A18.jpg","1",".","37","0","498"
"25","25","encoding","encoding","318","A74.jpg","1",".","37","0","748"
"25","25","encoding","encoding","319","B11.jpg","3",".","37","0","967"
"25","25","encoding","encoding","320","B52.jpg","3",".","37","0","834"
"25","25","encoding","encoding","321","B0.jpg","3",".","37","0","636"
"25","25","encoding","encoding","322","B1.jpg","3",".","37","0","670"
"25","25","encoding","encoding","323","B71.jpg","3",".","37","0","529"
"25","25","encoding","encoding","324","B14.jpg","3",".","0","0","1000"
"25","25","encoding","encoding","325","A73.jpg","",".","37","0","438"
"25","25","retrieval","new_object","1","D20.jpg",".",".","37","1","1258"
"25","25","retrieval","old_object","2","B4.jpg",".","3","36","1","724"
"25","25","retrieval","new_object","3","C65.jpg",".",".","37","1","493"
"25","25","retrieval","old_object","4","A56.jpg",".","1","37","0","488"
"25","25","retrieval","new_object","5","C36.jpg",".",".","37","1","451"
"25","25","retrieval","new_object","6","D9.jpg",".",".","37","1","477"
"25","25","retrieval","old_object","7","B54.jpg",".","3","36","1","784"
"25","25","retrieval","old_object","8","A17.jpg",".","1","36","1","763"
"25","25","retrieval","old_object","9","A78.jpg",".","1","36","1","718"
"25","25","retrieval","new_object","10","C41.jpg",".",".","37","1","503"
"25","25","retrieval","new_object","11","C48.jpg",".",".","37","1","529"
"25","25","retrieval","old_object","12","A18.jpg",".","1","37","0","469"
"25","25","retrieval","new_object","13","C55.jpg",".",".","37","1","815"
"25","25","retrieval","new_object","14","C62.jpg",".",".","37","1","554"
"25","25","retrieval","old_object","15","A4.jpg",".","1","37","0","468"
"25","25","retrieval","old_object","16","A74.jpg",".","1","36","1","870"
"25","25","retrieval","old_object","17","B20.jpg",".","3","36","1","801"
"25","25","retrieval","old_object","18","B53.jpg",".","3","36","1","699"
"25","25","retrieval","old_object","19","A63.jpg",".","1","36","1","791"
"25","25","retrieval","old_object","20","A65.jpg",".","1","37","0","650"
"25","25","retrieval","old_object","21","B62.jpg",".","3","36","1","653"
"25","25","retrieval","old_object","22","A43.jpg",".","1","36","1","582"
"25","25","retrieval","new_object","23","C10.jpg",".",".","37","1","704"
"25","25","retrieval","new_object","24","D46.jpg",".",".","37","1","587"
"25","25","retrieval","old_object","25","B43.jpg",".","3","36","1","677"
"25","25","retrieval","old_object","26","A30.jpg",".","1","37","0","569"
"25","25","retrieval","old_object","27","A31.jpg",".","1","36","1","747"
"25","25","retrieval","old_object","28","B31.jpg",".","3","36","1","837"
"25","25","retrieval","new_object","29","D65.jpg",".",".","37","1","647"
"25","25","retrieval","new_object","30","C70.jpg",".",".","37","1","578"
"25","25","retrieval","new_object","31","D17.jpg",".",".","37","1","669"
"25","25","retrieval","new_object","32","D64.jpg",".",".","37","1","609"
"25","25","retrieval","new_object","33","D40.jpg",".",".","37","1","513"
"25","25","retrieval","new_object","34","C13.jpg",".",".","37","1","485"
"25","25","retrieval","new_object","35","C6.jpg",".",".","37","1","503"
"25","25","retrieval","old_object","36","A21.jpg",".","1","37","0","561"
"25","25","retrieval","old_object","37","A69.jpg",".","1","37","0","500"
"25","25","retrieval","new_object","38","D1.jpg",".",".","37","1","623"
"25","25","retrieval","old_object","39","B71.jpg",".","3","36","1","714"
"25","25","retrieval","old_object","40","A9.jpg",".","1","36","1","667"
"25","25","retrieval","new_object","41","C18.jpg",".",".","37","1","551"
"25","25","retrieval","old_object","42","B26.jpg",".","3","36","1","776"
"25","25","retrieval","old_object","43","B14.jpg",".","3","36","1","732"
"25","25","retrieval","new_object","44","D2.jpg",".",".","37","1","614"
"25","25","retrieval","new_object","45","D54.jpg",".",".","37","1","545"
"25","25","retrieval","old_object","46","A34.jpg",".","1","37","0","484"
"25","25","retrieval","new_object","47","C60.jpg",".",".","37","1","677"
"25","25","retrieval","new_object","48","D14.jpg",".",".","37","1","633"
"25","25","retrieval","new_object","49","D24.jpg",".",".","37","1","522"
"25","25","retrieval","old_object","50","B68.jpg",".","3","36","1","877"
"25","25","retrieval","old_object","51","B55.jpg",".","3","36","1","656"
"25","25","retrieval","old_object","52","A29.jpg",".","1","36","1","778"
"25","25","retrieval","old_object","53","A64.jpg",".","1","37","0","550"
"25","25","retrieval","new_object","54","D26.jpg",".",".","37","1","663"
"25","25","retrieval","new_object","55","D12.jpg",".",".","37","1","587"
"25","25","retrieval","new_object","56","C58.jpg",".",".","37","1","805"
"25","25","retrieval","new_object","57","D32.jpg",".",".","37","1","559"
"25","25","retrieval","new_object","58","D25.jpg",".",".","37","1","505"
"25","25","retrieval","old_object","59","B67.jpg",".","3","37","0","485"
"25","25","retrieval","old_object","60","B33.jpg",".","3","36","1","670"
"25","25","retrieval","old_object","61","B2.jpg",".","3","37","0","1641"
"25","25","retrieval","new_object","62","C72.jpg",".",".","37","1","661"
"25","25","retrieval","new_object","63","D41.jpg",".",".","37","1","990"
"25","25","retrieval","old_object","64","B7.jpg",".","3","36","1","1129"
"25","25","retrieval","old_object","65","A44.jpg",".","1","37","0","764"
"25","25","retrieval","new_object","67","C2.jpg",".",".","37","1","685"
"25","25","retrieval","old_object","68","B39.jpg",".","3","36","1","777"
"25","25","retrieval","old_object","69","A16.jpg",".","1","37","0","642"
"25","25","retrieval","old_object","70","A8.jpg",".","1","37","0","733"
"25","25","retrieval","old_object","71","A70.jpg",".","1","37","0","679"
"25","25","retrieval","old_object","72","B44.jpg",".","3","37","0","418"
"25","25","retrieval","old_object","73","A5.jpg",".","1","37","0","500"
"25","25","retrieval","new_object","74","D69.jpg",".",".","37","1","920"
"25","25","retrieval","old_object","75","A0.jpg",".","1","37","0","609"
"25","25","retrieval","old_object","76","B9.jpg",".","3","36","1","1140"
"25","25","retrieval","new_object","77","D19.jpg",".",".","37","1","712"
"25","25","retrieval","old_object","78","B47.jpg",".","3","36","1","1626"
"25","25","retrieval","new_object","79","C4.jpg",".",".","37","1","676"
"25","25","retrieval","new_object","80","C8.jpg",".",".","37","1","1014"
"25","25","retrieval","old_object","81","A66.jpg",".","1","36","1","1074"
"25","25","retrieval","old_object","82","B27.jpg",".","3","37","0","564"
"25","25","retrieval","old_object","83","B21.jpg",".","3","36","1","998"
"25","25","retrieval","new_object","84","D48.jpg",".",".","37","1","825"
"25","25","retrieval","new_object","85","C26.jpg",".",".","37","1","795"
"25","25","retrieval","old_object","86","A27.jpg",".","1","36","1","958"
"25","25","retrieval","old_object","87","A73.jpg",".","1","36","1","832"
"25","25","retrieval","old_object","88","B59.jpg",".","3","36","1","915"
"25","25","retrieval","old_object","89","A39.jpg",".","1","36","1","1173"
"25","25","retrieval","old_object","90","B17.jpg",".","3","36","1","745"
"25","25","retrieval","new_object","91","C56.jpg",".",".","37","1","714"
"25","25","retrieval","new_object","92","C30.jpg",".",".","37","1","613"
"25","25","retrieval","new_object","93","C12.jpg",".",".","37","1","519"
"25","25","retrieval","new_object","94","C47.jpg",".",".","37","1","650"
"25","25","retrieval","old_object","95","A19.jpg",".","1","36","1","725"
"25","25","retrieval","old_object","96","B42.jpg",".","3","36","1","631"
"25","25","retrieval","new_object","97","D55.jpg",".",".","37","1","587"
"25","25","retrieval","new_object","98","C7.jpg",".",".","37","1","901"
"25","25","retrieval","old_object","99","A48.jpg",".","1","36","1","831"
"25","25","retrieval","old_object","100","B30.jpg",".","3","36","1","674"
"25","25","retrieval","new_object","101","C25.jpg",".",".","37","1","653"
"25","25","retrieval","old_object","102","B46.jpg",".","3","36","1","702"
"25","25","retrieval","new_object","103","C79.jpg",".",".","37","1","674"
"25","25","retrieval","new_object","104","C21.jpg",".",".","37","1","604"
"25","25","retrieval","new_object","105","D44.jpg",".",".","37","1","614"
"25","25","retrieval","new_object","106","C43.jpg",".",".","37","1","545"
"25","25","retrieval","old_object","107","B73.jpg",".","3","36","1","636"
"25","25","retrieval","new_object","108","D36.jpg",".",".","37","1","654"
"25","25","retrieval","old_object","109","B29.jpg",".","3","36","1","752"
"25","25","retrieval","old_object","110","A68.jpg",".","1","36","1","844"
"25","25","retrieval","old_object","111","B35.jpg",".","3","36","1","742"
"25","25","retrieval","new_object","112","D38.jpg",".",".","37","1","624"
"25","25","retrieval","new_object","113","C44.jpg",".",".","37","1","892"
"25","25","retrieval","old_object","114","B65.jpg",".","3","36","1","1085"
"25","25","retrieval","old_object","115","A79.jpg",".","1","36","1","776"
"25","25","retrieval","old_object","116","A33.jpg",".","1","36","1","818"
"25","25","retrieval","old_object","117","A7.jpg",".","1","36","1","830"
"25","25","retrieval","old_object","118","A22.jpg",".","1","37","0","879"
"25","25","retrieval","new_object","119","C19.jpg",".",".","37","1","643"
"25","25","retrieval","new_object","120","D47.jpg",".",".","37","1","580"
"25","25","retrieval","new_object","121","D59.jpg",".",".","37","1","504"
"25","25","retrieval","new_object","122","C20.jpg",".",".","37","1","643"
"25","25","retrieval","old_object","123","B22.jpg",".","3","37","0","444"
"25","25","retrieval","new_object","124","C75.jpg",".",".","37","1","543"
"25","25","retrieval","new_object","125","C68.jpg",".",".","37","1","570"
"25","25","retrieval","old_object","126","B12.jpg",".","3","37","0","532"
"25","25","retrieval","old_object","127","A62.jpg",".","1","37","0","550"
"25","25","retrieval","new_object","128","C24.jpg",".",".","37","1","874"
"25","25","retrieval","old_object","129","B66.jpg",".","3","36","1","867"
"25","25","retrieval","new_object","130","C61.jpg",".",".","37","1","607"
"25","25","retrieval","new_object","131","C73.jpg",".",".","37","1","625"
"25","25","retrieval","new_object","133","D52.jpg",".",".","37","1","590"
"25","25","retrieval","new_object","134","D13.jpg",".",".","37","1","553"
"25","25","retrieval","old_object","135","A59.jpg",".","1","37","0","611"
"25","25","retrieval","old_object","136","A38.jpg",".","1","37","0","495"
"25","25","retrieval","old_object","137","B1.jpg",".","3","37","0","496"
"25","25","retrieval","new_object","138","D34.jpg",".",".","37","1","651"
"25","25","retrieval","new_object","139","D71.jpg",".",".","37","1","582"
"25","25","retrieval","new_object","140","C39.jpg",".",".","37","1","528"
"25","25","retrieval","old_object","141","B61.jpg",".","3","36","1","652"
"25","25","retrieval","old_object","142","A77.jpg",".","1","36","1","749"
"25","25","retrieval","old_object","143","B69.jpg",".","3","36","1","776"
"25","25","retrieval","new_object","144","D68.jpg",".",".","37","1","563"
"25","25","retrieval","old_object","145","A2.jpg",".","1","37","0","541"
"25","25","retrieval","new_object","146","D58.jpg",".",".","37","1","736"
"25","25","retrieval","new_object","147","C67.jpg",".",".","37","1","730"
"25","25","retrieval","old_object","148","B56.jpg",".","3","36","1","702"
"25","25","retrieval","new_object","149","C49.jpg",".",".","37","1","584"
"25","25","retrieval","new_object","150","D70.jpg",".",".","37","1","747"
"25","25","retrieval","old_object","151","A32.jpg",".","1","37","0","684"
"25","25","retrieval","new_object","152","C52.jpg",".",".","37","1","623"
"25","25","retrieval","new_object","153","D76.jpg",".",".","37","1","481"
"25","25","retrieval","old_object","154","B74.jpg",".","3","36","1","732"
"25","25","retrieval","new_object","155","D75.jpg",".",".","37","1","655"
"25","25","retrieval","old_object","156","B58.jpg",".","3","37","0","465"
"25","25","retrieval","old_object","157","B78.jpg",".","3","37","0","820"
"25","25","retrieval","new_object","158","C32.jpg",".",".","37","1","1046"
"25","25","retrieval","old_object","159","B8.jpg",".","3","36","1","850"
"25","25","retrieval","new_object","160","C23.jpg",".",".","37","1","629"
"25","25","retrieval","new_object","161","C22.jpg",".",".","37","1","630"
"25","25","retrieval","old_object","162","A76.jpg",".","1","36","1","840"
"25","25","retrieval","old_object","163","B3.jpg",".","3","36","1","747"
"25","25","retrieval","new_object","164","C64.jpg",".",".","37","1","590"
"25","25","retrieval","old_object","165","A52.jpg",".","1","36","1","776"
"25","25","retrieval","old_object","166","B51.jpg",".","3","36","1","923"
"25","25","retrieval","old_object","167","B70.jpg",".","3","36","1","821"
"25","25","retrieval","old_object","168","B75.jpg",".","3","36","1","673"
"25","25","retrieval","old_object","169","A25.jpg",".","1","37","0","754"
"25","25","retrieval","new_object","170","D43.jpg",".",".","37","1","733"
"25","25","retrieval","old_object","171","A51.jpg",".","1","36","1","904"
"25","25","retrieval","new_object","172","D21.jpg",".",".","37","1","954"
"25","25","retrieval","old_object","173","B16.jpg",".","3","36","1","1078"
"25","25","retrieval","old_object","174","B63.jpg",".","3","36","1","799"
"25","25","retrieval","old_object","175","B13.jpg",".","3","36","1","714"
"25","25","retrieval","new_object","176","D29.jpg",".",".","37","1","764"
"25","25","retrieval","old_object","177","A1.jpg",".","1","36","1","1200"
"25","25","retrieval","new_object","178","C0.jpg",".",".","37","1","729"
"25","25","retrieval","old_object","179","B48.jpg",".","3","36","1","860"
"25","25","retrieval","new_object","180","D3.jpg",".",".","37","1","662"
"25","25","retrieval","old_object","181","B28.jpg",".","3","37","0","609"
"25","25","retrieval","new_object","182","C45.jpg",".",".","37","1","572"
"25","25","retrieval","old_object","183","B60.jpg",".","3","36","1","718"
"25","25","retrieval","old_object","184","B40.jpg",".","3","36","1","849"
"25","25","retrieval","old_object","185","A26.jpg",".","1","36","1","843"
"25","25","retrieval","new_object","186","D15.jpg",".",".","37","1","590"
"25","25","retrieval","new_object","187","C15.jpg",".",".","37","1","560"
"25","25","retrieval","old_object","188","A60.jpg",".","1","37","0","515"
"25","25","retrieval","new_object","189","D18.jpg",".",".","37","1","566"
"25","25","retrieval","old_object","190","A50.jpg",".","1","36","1","864"
"25","25","retrieval","old_object","191","B19.jpg",".","3","36","1","739"
"25","25","retrieval","old_object","192","B41.jpg",".","3","37","0","1093"
"25","25","retrieval","old_object","193","B45.jpg",".","3","36","1","776"
"25","25","retrieval","new_object","194","C5.jpg",".",".","37","1","738"
"25","25","retrieval","new_object","195","D11.jpg",".",".","37","1","821"
"25","25","retrieval","old_object","196","A57.jpg",".","1","37","0","624"
"25","25","retrieval","old_object","197","B0.jpg",".","3","36","1","595"
"25","25","retrieval","new_object","199","C40.jpg",".",".","37","1","630"
"25","25","retrieval","old_object","200","A11.jpg",".","1","36","1","831"
"25","25","retrieval","new_object","201","C54.jpg",".",".","37","1","602"
"25","25","retrieval","old_object","202","A3.jpg",".","1","37","0","652"
"25","25","retrieval","old_object","203","A12.jpg",".","1","37","0","560"
"25","25","retrieval","new_object","204","C27.jpg",".",".","37","1","716"
"25","25","retrieval","new_object","205","C78.jpg",".",".","37","1","572"
"25","25","retrieval","new_object","206","D49.jpg",".",".","37","1","624"
"25","25","retrieval","old_object","207","A41.jpg",".","1","37","0","625"
"25","25","retrieval","new_object","208","C51.jpg",".",".","37","1","645"
"25","25","retrieval","new_object","209","C63.jpg",".",".","37","1","558"
"25","25","retrieval","old_object","210","A20.jpg",".","1","36","1","826"
"25","25","retrieval","new_object","211","D10.jpg",".",".","37","1","685"
"25","25","retrieval","old_object","212","B11.jpg",".","3","36","1","767"
"25","25","retrieval","new_object","213","D42.jpg",".",".","37","1","514"
"25","25","retrieval","new_object","214","D28.jpg",".",".","37","1","732"
"25","25","retrieval","old_object","215","A35.jpg",".","1","37","0","575"
"25","25","retrieval","old_object","216","A55.jpg",".","1","36","1","784"
"25","25","retrieval","old_object","217","A10.jpg",".","1","37","0","604"
"25","25","retrieval","old_object","218","B50.jpg",".","3","36","1","917"
"25","25","retrieval","new_object","219","C46.jpg",".",".","37","1","1088"
"25","25","retrieval","new_object","220","C3.jpg",".",".","37","1","587"
"25","25","retrieval","new_object","221","D22.jpg",".",".","37","1","613"
"25","25","retrieval","old_object","222","A15.jpg",".","1","36","1","897"
"25","25","retrieval","new_object","223","C28.jpg",".",".","37","1","826"
"25","25","retrieval","old_object","224","B38.jpg",".","3","37","0","614"
"25","25","retrieval","old_object","225","B37.jpg",".","3","36","1","816"
"25","25","retrieval","old_object","226","A61.jpg",".","1","36","1","746"
"25","25","retrieval","new_object","227","D67.jpg",".",".","37","1","836"
"25","25","retrieval","old_object","228","A67.jpg",".","1","36","1","608"
"25","25","retrieval","new_object","229","C74.jpg",".",".","37","1","657"
"25","25","retrieval","new_object","230","D51.jpg",".",".","37","1","716"
"25","25","retrieval","new_object","231","D39.jpg",".",".","37","1","776"
"25","25","retrieval","new_object","232","C59.jpg",".",".","37","1","602"
"25","25","retrieval","new_object","233","D35.jpg",".",".","37","1","565"
"25","25","retrieval","old_object","234","A54.jpg",".","1","36","1","703"
"25","25","retrieval","old_object","235","A24.jpg",".","1","37","0","586"
"25","25","retrieval","old_object","236","B18.jpg",".","3","36","1","676"
"25","25","retrieval","old_object","237","A23.jpg",".","1","37","0","599"
"25","25","retrieval","old_object","238","A72.jpg",".","1","37","0","626"
"25","25","retrieval","old_object","239","A42.jpg",".","1","36","1","788"
"25","25","retrieval","new_object","240","D61.jpg",".",".","37","1","807"
"25","25","retrieval","old_object","241","B57.jpg",".","3","36","1","944"
"25","25","retrieval","old_object","242","B25.jpg",".","3","36","1","804"
"25","25","retrieval","new_object","243","D4.jpg",".",".","37","1","654"
"25","25","retrieval","old_object","244","B77.jpg",".","3","36","1","712"
"25","25","retrieval","new_object","245","D74.jpg",".",".","37","1","610"
"25","25","retrieval","old_object","246","A47.jpg",".","1","36","1","821"
"25","25","retrieval","new_object","247","D73.jpg",".",".","37","1","769"
"25","25","retrieval","new_object","248","D8.jpg",".",".","37","1","779"
"25","25","retrieval","old_object","249","A75.jpg",".","1","36","1","1175"
"25","25","retrieval","old_object","250","A46.jpg",".","1","36","1","736"
"25","25","retrieval","new_object","251","D27.jpg",".",".","37","1","626"
"25","25","retrieval","new_object","252","D77.jpg",".",".","37","1","581"
"25","25","retrieval","old_object","253","B23.jpg",".","3","36","1","927"
"25","25","retrieval","new_object","254","C1.jpg",".",".","37","1","809"
"25","25","retrieval","new_object","255","C71.jpg",".",".","37","1","685"
"25","25","retrieval","old_object","256","B32.jpg",".","3","36","1","719"
"25","25","retrieval","old_object","257","B34.jpg",".","3","37","0","1921"
"25","25","retrieval","old_object","258","B49.jpg",".","3","36","1","828"
"25","25","retrieval","old_object","259","B6.jpg",".","3","36","1","830"
"25","25","retrieval","new_object","260","C42.jpg",".",".","37","1","754"
"25","25","retrieval","old_object","261","A45.jpg",".","1","36","1","692"
"25","25","retrieval","new_object","262","C33.jpg",".",".","37","1","558"
"25","25","retrieval","old_object","263","B15.jpg",".","3","36","1","753"
"25","25","retrieval","old_object","265","A13.jpg",".","1","36","1","949"
"25","25","retrieval","old_object","266","A36.jpg",".","1","37","0","640"
"25","25","retrieval","new_object","267","C16.jpg",".",".","37","1","660"
"25","25","retrieval","new_object","268","D23.jpg",".",".","37","1","798"
"25","25","retrieval","old_object","269","B72.jpg",".","3","36","1","720"
"25","25","retrieval","old_object","270","A40.jpg",".","1","37","0","587"
"25","25","retrieval","old_object","271","A58.jpg",".","1","36","1","813"
"25","25","retrieval","new_object","272","D63.jpg",".",".","37","1","776"
"25","25","retrieval","new_object","273","C17.jpg",".",".","37","1","666"
"25","25","retrieval","new_object","274","D66.jpg",".",".","37","1","621"
"25","25","retrieval","old_object","275","A71.jpg",".","1","36","1","880"
"25","25","retrieval","old_object","276","A14.jpg",".","1","36","1","1010"
"25","25","retrieval","new_object","277","D57.jpg",".",".","37","1","668"
"25","25","retrieval","new_object","278","C11.jpg",".",".","37","1","615"
"25","25","retrieval","old_object","279","B64.jpg",".","3","36","1","753"
"25","25","retrieval","new_object","280","C37.jpg",".",".","37","1","676"
"25","25","retrieval","new_object","281","D62.jpg",".",".","37","1","687"
"25","25","retrieval","new_object","282","C77.jpg",".",".","37","1","745"
"25","25","retrieval","new_object","283","C50.jpg",".",".","37","1","844"
"25","25","retrieval","new_object","284","D30.jpg",".",".","37","1","654"
"25","25","retrieval","old_object","285","A6.jpg",".","1","36","1","649"
"25","25","retrieval","new_object","286","D33.jpg",".",".","37","1","659"
"25","25","retrieval","old_object","287","B36.jpg",".","3","36","1","622"
"25","25","retrieval","new_object","288","D16.jpg",".",".","37","1","544"
"25","25","retrieval","old_object","289","B24.jpg",".","3","36","1","835"
"25","25","retrieval","new_object","290","D31.jpg",".",".","37","1","606"
"25","25","retrieval","new_object","291","C69.jpg",".",".","37","1","632"
"25","25","retrieval","new_object","292","D78.jpg",".",".","37","1","779"
"25","25","retrieval","new_object","293","D79.jpg",".",".","37","1","597"
"25","25","retrieval","old_object","294","B76.jpg",".","3","36","1","737"
"25","25","retrieval","old_object","295","A53.jpg",".","1","36","1","794"
"25","25","retrieval","new_object","296","C38.jpg",".",".","37","1","581"
"25","25","retrieval","new_object","297","D37.jpg",".",".","37","1","624"
"25","25","retrieval","new_object","298","D6.jpg",".",".","37","1","762"
"25","25","retrieval","old_object","299","B10.jpg",".","3","36","1","565"
"25","25","retrieval","new_object","300","D53.jpg",".",".","37","1","455"
"25","25","retrieval","old_object","301","B79.jpg",".","3","36","1","691"
"25","25","retrieval","new_object","302","C14.jpg",".",".","37","1","589"
"25","25","retrieval","new_object","303","C29.jpg",".",".","37","1","671"
"25","25","retrieval","old_object","304","A49.jpg",".","1","36","1","874"
"25","25","retrieval","new_object","305","C76.jpg",".",".","37","1","564"
"25","25","retrieval","new_object","306","C57.jpg",".",".","37","1","534"
"25","25","retrieval","old_object","307","A28.jpg",".","1","36","1","793"
"25","25","retrieval","new_object","308","C9.jpg",".",".","37","1","764"
"25","25","retrieval","new_object","309","C66.jpg",".",".","37","1","750"
"25","25","retrieval","new_object","310","D56.jpg",".",".","37","1","601"
"25","25","retrieval","new_object","311","C53.jpg",".",".","37","1","547"
"25","25","retrieval","new_object","312","D5.jpg",".",".","37","1","638"
"25","25","retrieval","old_object","313","B5.jpg",".","3","36","1","680"
"25","25","retrieval","new_object","314","C35.jpg",".",".","37","1","899"
"25","25","retrieval","old_object","315","B52.jpg",".","3","36","1","927"
"25","25","retrieval","new_object","316","D7.jpg",".",".","37","1","656"
"25","25","retrieval","new_object","317","D72.jpg",".",".","37","1","563"
"25","25","retrieval","new_object","318","C31.jpg",".",".","37","1","605"
"25","25","retrieval","new_object","319","D45.jpg",".",".","37","1","809"
"25","25","retrieval","old_object","320","A37.jpg",".","1","37","0","762"
"25","25","retrieval","new_object","321","D0.jpg",".",".","37","1","581"
"25","25","retrieval","new_object","322","D60.jpg",".",".","37","1","743"
"25","25","retrieval","old_object","323","B4.jpg",".","","36","1","658"
"25","25","retrieval","new_object","324","C34.jpg",".",".","37","1","757"
"25","25","retrieval","new_object","325","D50.jpg",".",".","37","1","607"
"25","25","demographics_block","gender","1",".",".",".","Female","1","13428"
"25","25","demographics_block","age","1",".",".",".","34","1","13428"
"25","25","demographics_block","education","1",".",".",".","13","1","13428"
"25","25","demographics_block","left_right_handed","2",".",".",".","Left","1","7590"
"25","25","demographics_block","raceoption1","2",".",".",".","0","1","7590"
"25","25","demographics_block","raceoption2","2",".",".",".","","1","7590"
"25","25","demographics_block","raceoption3","2",".",".",".","","1","7590"
"25","25","demographics_block","raceoption4","2",".",".",".","","1","7590"
"25","25","demographics_block","raceoption5","2",".",".",".","","1","7590"
"25","25","demographics_block","raceoption6","2",".",".",".","","1","7590"
"25","25","demographics_block","raceoption7","2",".",".",".","","1","7590"
"25","25","demographics_block","raceoption8","2",".",".",".","","1","7590"
"25","25","demographics_block","raceoption9","2",".",".",".","","1","7590"
"25","25","demographics_block","raceother","2",".",".",".","","1","7590"
"25","25","demographics_block","raceother","2",".",".",".","","1","7590"
"25","25","demographics_block","english_language","2",".",".",".","Yes","1","7590"
"25","25","demographics_block","other","2",".",".",".","","1","7590"
"25","25","demographics_block","eyesight","3",".",".",".","Yes","1","3946"
"25","25","demographics_block","colorblind","3",".",".",".","No","1","3946"
