"group","subject","blockcode","trialcode","trialnum","stimulus","encoding_condition","old_object_condition","response","correct","latency"
"4","4","encoding","encoding","1","DeepFryer.jpg","3",".","0","0","1000"
"4","4","encoding","encoding","2","VinylRecord.jpg","3",".","36","0","731"
"4","4","encoding","encoding","3","Suitcase.jpg","1",".","37","0","745"
"4","4","encoding","encoding","4","Cologne.jpg","3",".","0","0","1000"
"4","4","encoding","encoding","5","DonaldDuck_Toy.jpg","3",".","0","0","1000"
"4","4","encoding","encoding","6","Bag_Toiletry.jpg","1",".","37","0","699"
"4","4","encoding","encoding","7","Boat_Colourful.jpg","1",".","37","0","877"
"4","4","encoding","encoding","8","Bucket_WoodenLight.jpg","1",".","37","0","623"
"4","4","encoding","encoding","9","Piano_Upright.jpg","3",".","0","0","1000"
"4","4","encoding","encoding","10","Jars_PetFood.jpg","1",".","37","0","962"
"4","4","encoding","encoding","11","RecorderInstrument.jpg","3",".","0","0","1000"
"4","4","encoding","encoding","12","MortarPestle_WhiteMarble.jpg","3",".","37","0","699"
"4","4","encoding","encoding","13","Piano_Upright.jpg","3",".","37","0","569"
"4","4","encoding","encoding","14","SaladCaesar.jpg","3",".","37","0","878"
"4","4","encoding","encoding","15","Snowpea.jpg","3",".","36","0","860"
"4","4","encoding","encoding","16","Puffin.jpg","1",".","0","0","1000"
"4","4","encoding","encoding","17","IceCubes.jpg","3",".","0","0","1000"
"4","4","encoding","encoding","18","Toy_Bat.jpg","3",".","0","0","1000"
"4","4","encoding","encoding","19","RecorderInstrument.jpg","3",".","37","0","761"
"4","4","encoding","encoding","20","PersonWooden.jpg","3",".","37","0","789"
"4","4","encoding","encoding","21","Card_TwoSpade.jpg","3",".","37","0","858"
"4","4","encoding","encoding","22","Clamp_Screw.jpg","3",".","37","0","880"
"4","4","encoding","encoding","23","Car_Buggy.jpg","3",".","37","0","723"
"4","4","encoding","encoding","24","Sink_Kitchen.jpg","3",".","37","0","721"
"4","4","encoding","encoding","25","Box_WoodCrate.jpg","1",".","37","0","612"
"4","4","encoding","encoding","26","Ginger.jpg","3",".","37","0","629"
"4","4","encoding","encoding","27","Toy_Dog.jpg","3",".","0","0","1000"
"4","4","encoding","encoding","28","NailFiles.jpg","3",".","0","0","1000"
"4","4","encoding","encoding","29","Cologne.jpg","3",".","37","0","810"
"4","4","encoding","encoding","30","Tray_Medical.jpg","3",".","0","0","1000"
"4","4","encoding","encoding","31","Stick_Stirring.jpg","1",".","37","0","841"
"4","4","encoding","encoding","32","Bicycle_Kids.jpg","3",".","0","0","1000"
"4","4","encoding","encoding","33","Lips_Wax.jpg","3",".","37","0","637"
"4","4","encoding","encoding","34","MortarPestle_WhiteMarble.jpg","3",".","0","0","1000"
"4","4","encoding","encoding","35","PersonWooden.jpg","3",".","37","0","388"
"4","4","encoding","encoding","36","Shrimp.jpg","3",".","37","0","691"
"4","4","encoding","encoding","37","Toy_Rooster.jpg","3",".","37","0","743"
"4","4","encoding","encoding","38","Box_Cutlery.jpg","3",".","37","0","625"
"4","4","encoding","encoding","39","Suit_Women.jpg","3",".","37","0","810"
"4","4","encoding","encoding","40","Decoration_ChristmasWhite.jpg","1",".","37","0","691"
"4","4","encoding","encoding","41","HairBand.jpg","1",".","37","0","921"
"4","4","encoding","encoding","42","Suit_Women.jpg","3",".","37","0","641"
"4","4","encoding","encoding","43","IroningBoard.jpg","3",".","37","0","825"
"4","4","encoding","encoding","44","Ruler_Wooden.jpg","1",".","37","0","828"
"4","4","encoding","encoding","45","Toy_Taxi.jpg","3",".","37","0","693"
"4","4","encoding","encoding","46","PaperTowel_Brown.jpg","3",".","0","0","1000"
"4","4","encoding","encoding","47","Stick_IceHockey.jpg","3",".","36","0","889"
"4","4","encoding","encoding","48","Pouch_Red.jpg","1",".","0","0","1000"
"4","4","encoding","encoding","49","Stool_Camping.jpg","3",".","0","0","1000"
"4","4","encoding","encoding","50","HairClipper.jpg","3",".","36","0","257"
"4","4","encoding","encoding","51","PaperCutter.jpg","3",".","37","0","711"
"4","4","encoding","encoding","52","Toy_Ladybug.jpg","1",".","37","0","929"
"4","4","encoding","encoding","53","SnowmanDecor.jpg","3",".","37","0","705"
"4","4","encoding","encoding","54","Flashlight.jpg","1",".","37","0","823"
"4","4","encoding","encoding","55","RecorderInstrument.jpg","3",".","0","0","1000"
"4","4","encoding","encoding","56","Hat_Feather.jpg","3",".","37","0","970"
"4","4","encoding","encoding","57","Helicopter.jpg","1",".","37","0","700"
"4","4","encoding","encoding","58","Compressor.jpg","1",".","36","0","158"
"4","4","encoding","encoding","59","CarLighter.jpg","3",".","37","0","1"
"4","4","encoding","encoding","60","Mask_VenetianCat.jpg","3",".","37","0","75"
"4","4","encoding","encoding","61","Toy_BeadMaze.jpg","1",".","37","0","4294967292"
"4","4","encoding","encoding","62","TelescopeSpacecraft.jpg","3",".","37","0","52"
"4","4","encoding","encoding","63","Boar.jpg","1",".","37","0","69"
"4","4","encoding","encoding","64","Toy_Bat.jpg","3",".","37","0","765"
"4","4","encoding","encoding","65","Cheeseburger.jpg","1",".","37","0","561"
"4","4","encoding","encoding","67","Card_Deck.jpg","3",".","0","0","1000"
"4","4","encoding","encoding","68","CDstack.jpg","3",".","37","0","875"
"4","4","encoding","encoding","69","Speakers_Theatre.jpg","3",".","37","0","457"
"4","4","encoding","encoding","70","Carrot.jpg","1",".","0","0","1000"
"4","4","encoding","encoding","71","Sandwich_Ham.jpg","3",".","37","0","955"
"4","4","encoding","encoding","72","Otoscope.jpg","1",".","37","0","827"
"4","4","encoding","encoding","73","TowelRack_Metal.jpg","1",".","37","0","915"
"4","4","encoding","encoding","74","SoapDish.jpg","3",".","37","0","636"
"4","4","encoding","encoding","75","Toy_Firetruck.jpg","3",".","37","0","839"
"4","4","encoding","encoding","76","Ginger.jpg","3",".","37","0","689"
"4","4","encoding","encoding","77","RadioactiveContainer.jpg","1",".","37","0","568"
"4","4","encoding","encoding","78","OperaGlasses.jpg","3",".","37","0","662"
"4","4","encoding","encoding","79","FuzzyDice.jpg","3",".","37","0","771"
"4","4","encoding","encoding","80","PowderProtein.jpg","1",".","37","0","765"
"4","4","encoding","encoding","81","Garlic_Clove.jpg","3",".","0","0","1000"
"4","4","encoding","encoding","82","Broccoli.jpg","1",".","37","0","172"
"4","4","encoding","encoding","83","EyeChart.jpg","3",".","37","0","785"
"4","4","encoding","encoding","84","Toy_Firetruck.jpg","3",".","37","0","710"
"4","4","encoding","encoding","85","DonaldDuck_Toy.jpg","3",".","37","0","826"
"4","4","encoding","encoding","86","Dice.jpg","3",".","37","0","596"
"4","4","encoding","encoding","87","MatchBook.jpg","1",".","37","0","644"
"4","4","encoding","encoding","88","Bowl_Chopsticks.jpg","3",".","0","0","1000"
"4","4","encoding","encoding","89","Nail.jpg","3",".","0","0","1000"
"4","4","encoding","encoding","90","Seeder.jpg","3",".","37","0","705"
"4","4","encoding","encoding","91","Car_Buggy.jpg","3",".","37","0","858"
"4","4","encoding","encoding","92","Shovel_Garden.jpg","1",".","37","0","514"
"4","4","encoding","encoding","93","Backhoe.jpg","1",".","0","0","1000"
"4","4","encoding","encoding","94","Speakers_Theatre.jpg","3",".","37","0","581"
"4","4","encoding","encoding","95","SnowmanDecor.jpg","3",".","37","0","631"
"4","4","encoding","encoding","96","Cloud.jpg","3",".","37","0","566"
"4","4","encoding","encoding","97","Sandwich_Ham.jpg","3",".","36","0","816"
"4","4","encoding","encoding","98","Stone_Spa.jpg","1",".","37","0","959"
"4","4","encoding","encoding","99","TelescopeSpacecraft.jpg","3",".","36","0","766"
"4","4","encoding","encoding","100","BrainSagittal.jpg","1",".","37","0","572"
"4","4","encoding","encoding","101","ColoringSet.jpg","3",".","37","0","800"
"4","4","encoding","encoding","102","Toy_Wooden rings.jpg","3",".","36","0","720"
"4","4","encoding","encoding","103","Stool_Camping.jpg","3",".","37","0","929"
"4","4","encoding","encoding","104","Candleholder_LampShaped.jpg","3",".","0","0","1000"
"4","4","encoding","encoding","105","FuzzyDice.jpg","3",".","0","0","1000"
"4","4","encoding","encoding","106","PumpBreast.jpg","3",".","37","0","928"
"4","4","encoding","encoding","107","Lips_Wax.jpg","3",".","0","0","1000"
"4","4","encoding","encoding","108","Canister_Tea.jpg","1",".","36","0","768"
"4","4","encoding","encoding","109","Pyramid.jpg","1",".","37","0","941"
"4","4","encoding","encoding","110","Dropper.jpg","3",".","0","0","1000"
"4","4","encoding","encoding","111","Sphinx.jpg","1",".","37","0","941"
"4","4","encoding","encoding","112","Ginger.jpg","3",".","0","0","1000"
"4","4","encoding","encoding","113","WalkieTalkie_Yellow.jpg","1",".","0","0","1000"
"4","4","encoding","encoding","114","Snowpea.jpg","3",".","37","0","852"
"4","4","encoding","encoding","115","Pretzel_Sticks.jpg","3",".","37","0","757"
"4","4","encoding","encoding","116","Celery.jpg","3",".","0","0","1000"
"4","4","encoding","encoding","117","Toy_Dog.jpg","3",".","37","0","749"
"4","4","encoding","encoding","118","NailFiles.jpg","3",".","36","0","915"
"4","4","encoding","encoding","119","Toy_Firetruck.jpg","3",".","37","0","558"
"4","4","encoding","encoding","120","Mitt_Blue.jpg","3",".","37","0","680"
"4","4","encoding","encoding","121","Ostrich.jpg","1",".","37","0","521"
"4","4","encoding","encoding","122","LintRemover.jpg","3",".","36","0","751"
"4","4","encoding","encoding","123","Nail.jpg","3",".","37","0","803"
"4","4","encoding","encoding","124","LeafBlower.jpg","1",".","37","0","897"
"4","4","encoding","encoding","125","Piano_Upright.jpg","3",".","37","0","810"
"4","4","encoding","encoding","126","Pretzel_Sticks.jpg","3",".","36","0","842"
"4","4","encoding","encoding","127","Card_TwoSpade.jpg","3",".","37","0","648"
"4","4","encoding","encoding","128","Heater_ElectricUpright.jpg","1",".","37","0","515"
"4","4","encoding","encoding","129","Protractor.jpg","3",".","37","0","467"
"4","4","encoding","encoding","130","Drum_Ramadan.jpg","3",".","37","0","635"
"4","4","encoding","encoding","131","Lynx.jpg","1",".","37","0","791"
"4","4","encoding","encoding","133","Glasses_Sun.jpg","3",".","0","0","1000"
"4","4","encoding","encoding","134","DeepFryer.jpg","3",".","37","0","741"
"4","4","encoding","encoding","135","Airplane_Small.jpg","3",".","37","0","697"
"4","4","encoding","encoding","136","Toy_Rooster.jpg","3",".","37","0","472"
"4","4","encoding","encoding","137","VacuumHose.jpg","3",".","36","0","396"
"4","4","encoding","encoding","138","TowelRack_Brown.jpg","1",".","37","0","5"
"4","4","encoding","encoding","139","Cloud.jpg","3",".","37","0","586"
"4","4","encoding","encoding","140","Lips_Wax.jpg","3",".","37","0","596"
"4","4","encoding","encoding","141","Box_Cutlery.jpg","3",".","37","0","460"
"4","4","encoding","encoding","142","Celery.jpg","3",".","36","0","499"
"4","4","encoding","encoding","143","Drum_Ramadan.jpg","3",".","37","0","783"
"4","4","encoding","encoding","144","Hat_Feather.jpg","3",".","37","0","545"
"4","4","encoding","encoding","145","Garlic_Clove.jpg","3",".","36","0","893"
"4","4","encoding","encoding","146","Seeder.jpg","3",".","37","0","858"
"4","4","encoding","encoding","147","Level.jpg","3",".","37","0","860"
"4","4","encoding","encoding","148","Coral.jpg","1",".","0","0","1000"
"4","4","encoding","encoding","149","Lobster.jpg","1",".","0","0","1000"
"4","4","encoding","encoding","150","Bagpipes.jpg","3",".","0","0","1000"
"4","4","encoding","encoding","151","Makeup_Bag.jpg","3",".","37","0","655"
"4","4","encoding","encoding","152","IceCubes.jpg","3",".","37","0","561"
"4","4","encoding","encoding","153","Card_Deck.jpg","3",".","37","0","505"
"4","4","encoding","encoding","154","Golf_Club.jpg","3",".","37","0","399"
"4","4","encoding","encoding","155","Makeup_Bag.jpg","3",".","0","0","1000"
"4","4","encoding","encoding","156","PaperCutter.jpg","3",".","37","0","327"
"4","4","encoding","encoding","157","Shoes_Mould.jpg","1",".","37","0","154"
"4","4","encoding","encoding","158","Toy_Wooden rings.jpg","3",".","37","0","630"
"4","4","encoding","encoding","159","Sign_SlipperyRoad.jpg","1",".","37","0","919"
"4","4","encoding","encoding","160","Pear_Green.jpg","1",".","0","0","1000"
"4","4","encoding","encoding","161","WaterCooler.jpg","1",".","37","0","713"
"4","4","encoding","encoding","162","Scorpion.jpg","1",".","37","0","968"
"4","4","encoding","encoding","163","Mat_Bamboo.jpg","1",".","37","0","930"
"4","4","encoding","encoding","164","ClothesDryingRack.jpg","3",".","0","0","1000"
"4","4","encoding","encoding","165","Toy_Rooster.jpg","3",".","37","0","943"
"4","4","encoding","encoding","166","ComputerKey_Escape.jpg","3",".","0","0","1000"
"4","4","encoding","encoding","167","Golf_Club.jpg","3",".","0","0","1000"
"4","4","encoding","encoding","168","GrillRack.jpg","3",".","0","0","1000"
"4","4","encoding","encoding","169","Desk_Office.jpg","1",".","0","0","1000"
"4","4","encoding","encoding","170","Camera_Video.jpg","3",".","37","0","383"
"4","4","encoding","encoding","171","VacuumHose.jpg","3",".","0","0","1000"
"4","4","encoding","encoding","172","Toy_BearBrownPlushie.jpg","1",".","0","0","1000"
"4","4","encoding","encoding","173","Bowl_Chopsticks.jpg","3",".","0","0","1000"
"4","4","encoding","encoding","174","HairClipper.jpg","3",".","0","0","1000"
"4","4","encoding","encoding","175","MortarPestle_WhiteMarble.jpg","3",".","37","0","161"
"4","4","encoding","encoding","176","SaladCaesar.jpg","3",".","37","0","710"
"4","4","encoding","encoding","177","Car_Buggy.jpg","3",".","37","0","716"
"4","4","encoding","encoding","178","ComputerKey_Escape.jpg","3",".","37","0","858"
"4","4","encoding","encoding","179","Hat_Police.jpg","3",".","37","0","856"
"4","4","encoding","encoding","180","SoapDish.jpg","3",".","37","0","731"
"4","4","encoding","encoding","181","Golf_Club.jpg","3",".","0","0","1000"
"4","4","encoding","encoding","182","Sink_Kitchen.jpg","3",".","0","0","1000"
"4","4","encoding","encoding","183","Protractor.jpg","3",".","0","0","1000"
"4","4","encoding","encoding","184","Dice.jpg","3",".","37","0","689"
"4","4","encoding","encoding","185","Seeder.jpg","3",".","37","0","114"
"4","4","encoding","encoding","186","Camera_Video.jpg","3",".","37","0","879"
"4","4","encoding","encoding","187","Computer_ExpansionCard.jpg","1",".","37","0","868"
"4","4","encoding","encoding","188","OperaGlasses.jpg","3",".","37","0","700"
"4","4","encoding","encoding","189","Makeup_Bag.jpg","3",".","37","0","553"
"4","4","encoding","encoding","190","Paddle_Canoe.jpg","1",".","37","0","908"
"4","4","encoding","encoding","191","Shrimp.jpg","3",".","0","0","1000"
"4","4","encoding","encoding","192","Squash_Butternut.jpg","1",".","37","0","747"
"4","4","encoding","encoding","193","PaperTowel_Brown.jpg","3",".","0","0","1000"
"4","4","encoding","encoding","194","FuzzyDice.jpg","3",".","0","0","1000"
"4","4","encoding","encoding","195","Hat_Feather.jpg","3",".","0","0","1000"
"4","4","encoding","encoding","196","Case_CD.jpg","1",".","36","0","232"
"4","4","encoding","encoding","197","Card_TwoSpade.jpg","3",".","37","0","116"
"4","4","encoding","encoding","199","PersonWooden.jpg","3",".","0","0","1000"
"4","4","encoding","encoding","200","Garlic_Clove.jpg","3",".","36","0","335"
"4","4","encoding","encoding","201","Bagpipes.jpg","3",".","36","0","866"
"4","4","encoding","encoding","202","Shrimp.jpg","3",".","36","0","620"
"4","4","encoding","encoding","203","Balcony.jpg","1",".","36","0","705"
"4","4","encoding","encoding","204","PumpBreast.jpg","3",".","37","0","665"
"4","4","encoding","encoding","205","Airplane_Small.jpg","3",".","37","0","209"
"4","4","encoding","encoding","206","CarLighter.jpg","3",".","37","0","707"
"4","4","encoding","encoding","207","Tray_Medical.jpg","3",".","0","0","1000"
"4","4","encoding","encoding","208","Puzzle_Animal.jpg","3",".","37","0","755"
"4","4","encoding","encoding","209","Bagpipes.jpg","3",".","0","0","1000"
"4","4","encoding","encoding","210","PaperTowel_Brown.jpg","3",".","0","0","1000"
"4","4","encoding","encoding","211","IroningBoard.jpg","3",".","0","0","1000"
"4","4","encoding","encoding","212","Speakers_Theatre.jpg","3",".","0","0","1000"
"4","4","encoding","encoding","213","Snorkle.jpg","3",".","0","0","1000"
"4","4","encoding","encoding","214","Nail.jpg","3",".","37","0","552"
"4","4","encoding","encoding","215","Bowl_Chopsticks.jpg","3",".","0","0","1000"
"4","4","encoding","encoding","216","Drum_Ramadan.jpg","3",".","37","0","194"
"4","4","encoding","encoding","217","ClothesDryingRack.jpg","3",".","37","0","398"
"4","4","encoding","encoding","218","Sink_Kitchen.jpg","3",".","36","0","152"
"4","4","encoding","encoding","219","Pretzel_Sticks.jpg","3",".","37","0","808"
"4","4","encoding","encoding","220","ClothesDryingRack.jpg","3",".","37","0","298"
"4","4","encoding","encoding","221","Protractor.jpg","3",".","0","0","1000"
"4","4","encoding","encoding","222","Snorkle.jpg","3",".","0","0","1000"
"4","4","encoding","encoding","223","Snorkle.jpg","3",".","36","0","891"
"4","4","encoding","encoding","224","VinylRecord.jpg","3",".","37","0","399"
"4","4","encoding","encoding","225","Bus_DoubleDecker.jpg","1",".","37","0","275"
"4","4","encoding","encoding","226","LintRemover.jpg","3",".","37","0","522"
"4","4","encoding","encoding","227","SaladCaesar.jpg","3",".","36","0","843"
"4","4","encoding","encoding","228","Puzzle_Animal.jpg","3",".","37","0","116"
"4","4","encoding","encoding","229","BowlingPin.jpg","1",".","36","0","847"
"4","4","encoding","encoding","230","CarLighter.jpg","3",".","37","0","803"
"4","4","encoding","encoding","231","CDstack.jpg","3",".","37","0","588"
"4","4","encoding","encoding","232","Mask_VenetianCat.jpg","3",".","36","0","502"
"4","4","encoding","encoding","233","Paddle_Ball.jpg","1",".","37","0","788"
"4","4","encoding","encoding","234","Stick_IceHockey.jpg","3",".","37","0","249"
"4","4","encoding","encoding","235","Fan_Straw.jpg","3",".","37","0","80"
"4","4","encoding","encoding","236","OperaGlasses.jpg","3",".","37","0","26"
"4","4","encoding","encoding","237","IceCubes.jpg","3",".","37","0","841"
"4","4","encoding","encoding","238","Bicycle_Kids.jpg","3",".","37","0","722"
"4","4","encoding","encoding","239","Card_Deck.jpg","3",".","37","0","682"
"4","4","encoding","encoding","240","Dragonfly.jpg","1",".","37","0","615"
"4","4","encoding","encoding","241","GrillRack.jpg","3",".","37","0","364"
"4","4","encoding","encoding","242","Cloud.jpg","3",".","37","0","630"
"4","4","encoding","encoding","243","Toy_Taxi.jpg","3",".","37","0","508"
"4","4","encoding","encoding","244","Hat_Police.jpg","3",".","37","0","741"
"4","4","encoding","encoding","245","Bicycle_Kids.jpg","3",".","37","0","381"
"4","4","encoding","encoding","246","Clippers_Glass.jpg","1",".","37","0","127"
"4","4","encoding","encoding","247","IroningBoard.jpg","3",".","0","0","1000"
"4","4","encoding","encoding","248","Toy_Bat.jpg","3",".","36","0","952"
"4","4","encoding","encoding","249","Blueberry.jpg","1",".","36","0","656"
"4","4","encoding","encoding","250","Dog_Bulldog.jpg","1",".","0","0","1000"
"4","4","encoding","encoding","251","Tape_Dispenser.jpg","1",".","0","0","1000"
"4","4","encoding","encoding","252","Heater_Outdoor.jpg","1",".","37","0","838"
"4","4","encoding","encoding","253","Candleholder_LampShaped.jpg","3",".","37","0","630"
"4","4","encoding","encoding","254","Suit_Women.jpg","3",".","0","0","1000"
"4","4","encoding","encoding","255","Clamp_Screw.jpg","3",".","0","0","1000"
"4","4","encoding","encoding","256","ColoringSet.jpg","3",".","37","0","657"
"4","4","encoding","encoding","257","ComputerKey_Escape.jpg","3",".","37","0","800"
"4","4","encoding","encoding","258","DonaldDuck_Toy.jpg","3",".","37","0","844"
"4","4","encoding","encoding","259","ShinPads.jpg","1",".","37","0","628"
"4","4","encoding","encoding","260","LintRemover.jpg","3",".","0","0","1000"
"4","4","encoding","encoding","261","Candleholder_LampShaped.jpg","3",".","37","0","747"
"4","4","encoding","encoding","262","Mask_VenetianCat.jpg","3",".","37","0","578"
"4","4","encoding","encoding","263","FlintIgniter.jpg","1",".","37","0","441"
"4","4","encoding","encoding","265","Glasses_Sun.jpg","3",".","37","0","547"
"4","4","encoding","encoding","266","TelescopeSpacecraft.jpg","3",".","36","0","869"
"4","4","encoding","encoding","267","Puzzle_Animal.jpg","3",".","37","0","593"
"4","4","encoding","encoding","268","SnowmanDecor.jpg","3",".","37","0","581"
"4","4","encoding","encoding","269","Airplane_Small.jpg","3",".","37","0","499"
"4","4","encoding","encoding","270","Glove_Baseball.jpg","3",".","37","0","190"
"4","4","encoding","encoding","271","Neckrest.jpg","1",".","0","0","1000"
"4","4","encoding","encoding","272","Clamp_Screw.jpg","3",".","37","0","0"
"4","4","encoding","encoding","273","Mitt_Blue.jpg","3",".","37","0","37"
"4","4","encoding","encoding","274","VacuumHose.jpg","3",".","37","0","33"
"4","4","encoding","encoding","275","Pasta_Fettuccine.jpg","1",".","0","0","1000"
"4","4","encoding","encoding","276","Mitt_Blue.jpg","3",".","0","0","1000"
"4","4","encoding","encoding","277","Toy_Taxi.jpg","3",".","37","0","892"
"4","4","encoding","encoding","278","Toy_Wooden rings.jpg","3",".","37","0","709"
"4","4","encoding","encoding","279","HairClipper.jpg","3",".","37","0","622"
"4","4","encoding","encoding","280","Camera_Video.jpg","3",".","37","0","660"
"4","4","encoding","encoding","281","Tray_Medical.jpg","3",".","37","0","530"
"4","4","encoding","encoding","282","Match.jpg","1",".","37","0","638"
"4","4","encoding","encoding","283","SoapDish.jpg","3",".","37","0","532"
"4","4","encoding","encoding","284","Stick_IceHockey.jpg","3",".","37","0","441"
"4","4","encoding","encoding","285","Walkman.jpg","1",".","37","0","810"
"4","4","encoding","encoding","286","Dice.jpg","3",".","37","0","795"
"4","4","encoding","encoding","287","Sandwich_Ham.jpg","3",".","37","0","612"
"4","4","encoding","encoding","288","Notepad.jpg","1",".","36","0","582"
"4","4","encoding","encoding","289","Dropper.jpg","3",".","37","0","513"
"4","4","encoding","encoding","290","Snowpea.jpg","3",".","37","0","611"
"4","4","encoding","encoding","291","Cologne.jpg","3",".","36","0","755"
"4","4","encoding","encoding","292","VinylRecord.jpg","3",".","37","0","615"
"4","4","encoding","encoding","293","Shirt_Tshirt.jpg","1",".","37","0","415"
"4","4","encoding","encoding","294","Toy_TrailerAirport.jpg","1",".","37","0","253"
"4","4","encoding","encoding","295","Glove_Baseball.jpg","3",".","36","0","72"
"4","4","encoding","encoding","296","WaterHeater.jpg","1",".","37","0","859"
"4","4","encoding","encoding","297","Celery.jpg","3",".","37","0","230"
"4","4","encoding","encoding","298","CDstack.jpg","3",".","37","0","89"
"4","4","encoding","encoding","299","Tray_Metal.jpg","1",".","37","0","563"
"4","4","encoding","encoding","300","PumpBreast.jpg","3",".","37","0","242"
"4","4","encoding","encoding","301","Fan_Straw.jpg","3",".","37","0","853"
"4","4","encoding","encoding","302","Coin.jpg","1",".","37","0","73"
"4","4","encoding","encoding","303","Barrel_Wine.jpg","1",".","37","0","165"
"4","4","encoding","encoding","304","Box_Cutlery.jpg","3",".","0","0","1000"
"4","4","encoding","encoding","305","Level.jpg","3",".","0","0","1000"
"4","4","encoding","encoding","306","Glasses_Sun.jpg","3",".","0","0","1000"
"4","4","encoding","encoding","307","Fan_Straw.jpg","3",".","37","0","772"
"4","4","encoding","encoding","308","PaperCutter.jpg","3",".","37","0","663"
"4","4","encoding","encoding","309","Glove_Baseball.jpg","3",".","37","0","508"
"4","4","encoding","encoding","310","TreeStump.jpg","1",".","37","0","561"
"4","4","encoding","encoding","311","Toy_DonkeyFur.jpg","1",".","37","0","917"
"4","4","encoding","encoding","312","Toy_Christmastree.jpg","1",".","36","0","802"
"4","4","encoding","encoding","313","ColoringSet.jpg","3",".","37","0","723"
"4","4","encoding","encoding","314","Toy_Dog.jpg","3",".","37","0","574"
"4","4","encoding","encoding","315","EyeChart.jpg","3",".","37","0","955"
"4","4","encoding","encoding","316","NailFiles.jpg","3",".","37","0","796"
"4","4","encoding","encoding","317","GrillRack.jpg","3",".","0","0","1000"
"4","4","encoding","encoding","318","Level.jpg","3",".","0","0","1000"
"4","4","encoding","encoding","319","Hat_Police.jpg","3",".","37","0","935"
"4","4","encoding","encoding","320","Dropper.jpg","3",".","37","0","595"
"4","4","encoding","encoding","321","DeepFryer.jpg","3",".","37","0","394"
"4","4","encoding","encoding","322","ShoeLace_Flat.jpg","1",".","37","0","470"
"4","4","encoding","encoding","323","EyeChart.jpg","3",".","37","0","490"
"4","4","encoding","encoding","324","Stool_Camping.jpg","3",".","37","0","804"
"4","4","encoding","encoding","325","DeepFryer.jpg","",".","37","0","461"
"4","4","retrieval","old_object","1","Sign_SlipperyRoad.jpg",".","1","37","0","1149"
"4","4","retrieval","old_object","2","Tray_Medical.jpg",".","3","36","1","859"
"4","4","retrieval","old_object","3","Box_Cutlery.jpg",".","3","37","0","544"
"4","4","retrieval","old_object","4","Snowpea.jpg",".","3","36","1","4294967295"
"4","4","retrieval","old_object","5","GrillRack.jpg",".","3","37","0","456"
"4","4","retrieval","old_object","6","ShinPads.jpg",".","1","36","1","15"
"4","4","retrieval","new_object","7","Backpack_Suitcase.jpg",".",".","37","1","1251"
"4","4","retrieval","old_object","8","Box_WoodCrate.jpg",".","1","36","1","1562"
"4","4","retrieval","new_object","9","Bus_School.jpg",".",".","37","1","1129"
"4","4","retrieval","new_object","10","AirPump.jpg",".",".","37","1","355"
"4","4","retrieval","new_object","11","MemoPaperSpike.jpg",".",".","37","1","295"
"4","4","retrieval","new_object","12","Helmet_Motorcycle.jpg",".",".","0","0","2000"
"4","4","retrieval","new_object","13","CarSuspension.jpg",".",".","37","1","846"
"4","4","retrieval","old_object","14","Cheeseburger.jpg",".","1","36","1","669"
"4","4","retrieval","old_object","15","Boar.jpg",".","1","37","0","69"
"4","4","retrieval","old_object","16","PowderProtein.jpg",".","1","37","0","926"
"4","4","retrieval","new_object","17","Bag_Diaper.jpg",".",".","36","0","476"
"4","4","retrieval","old_object","18","Shrimp.jpg",".","3","37","0","972"
"4","4","retrieval","new_object","19","SolderingIron.jpg",".",".","36","0","392"
"4","4","retrieval","new_object","20","Desk_White.jpg",".",".","37","1","213"
"4","4","retrieval","new_object","21","MousepadAndMouse.jpg",".",".","37","1","191"
"4","4","retrieval","new_object","22","SewingPin_Cushion.jpg",".",".","37","1","823"
"4","4","retrieval","old_object","23","Shirt_Tshirt.jpg",".","1","36","1","1185"
"4","4","retrieval","new_object","24","Corkboard.jpg",".",".","37","1","984"
"4","4","retrieval","old_object","25","Puzzle_Animal.jpg",".","3","37","0","493"
"4","4","retrieval","old_object","26","Clippers_Glass.jpg",".","1","36","1","71"
"4","4","retrieval","old_object","27","BowlingPin.jpg",".","1","36","1","705"
"4","4","retrieval","new_object","28","Envelope_Manila.jpg",".",".","36","0","633"
"4","4","retrieval","new_object","29","Stone_AncientWriting.jpg",".",".","36","0","814"
"4","4","retrieval","old_object","30","Broccoli.jpg",".","1","36","1","376"
"4","4","retrieval","old_object","31","Toy_BearBrownPlushie.jpg",".","1","36","1","678"
"4","4","retrieval","old_object","32","Suitcase.jpg",".","1","37","0","808"
"4","4","retrieval","new_object","33","Makeup_Compact.jpg",".",".","37","1","1452"
"4","4","retrieval","new_object","34","Fork_Regular.jpg",".",".","37","1","1249"
"4","4","retrieval","old_object","35","Toy_Rooster.jpg",".","3","37","0","1677"
"4","4","retrieval","old_object","36","Suit_Women.jpg",".","3","36","1","1547"
"4","4","retrieval","new_object","37","Canister_Oil.jpg",".",".","36","0","910"
"4","4","retrieval","new_object","38","SolderingWire.jpg",".",".","37","1","1007"
"4","4","retrieval","old_object","39","PaperCutter.jpg",".","3","37","0","938"
"4","4","retrieval","old_object","40","Toy_Ladybug.jpg",".","1","37","0","1139"
"4","4","retrieval","new_object","41","Candy_Lozenge.jpg",".",".","0","0","2000"
"4","4","retrieval","new_object","42","Hat_Colonial.jpg",".",".","0","0","2000"
"4","4","retrieval","new_object","43","Bat_Cricket.jpg",".",".","0","0","2000"
"4","4","retrieval","old_object","44","Carrot.jpg",".","1","0","0","2000"
"4","4","retrieval","new_object","45","Cinnamonroll.jpg",".",".","0","0","2000"
"4","4","retrieval","old_object","46","Hat_Police.jpg",".","3","0","0","2000"
"4","4","retrieval","new_object","47","Wontons.jpg",".",".","0","0","2000"
"4","4","retrieval","old_object","48","Coral.jpg",".","1","36","1","1154"
"4","4","retrieval","new_object","49","Radish.jpg",".",".","37","1","1413"
"4","4","retrieval","new_object","50","Bottle_Beer.jpg",".",".","36","0","1314"
"4","4","retrieval","new_object","51","Case_Pencil.jpg",".",".","37","1","941"
"4","4","retrieval","old_object","52","Sphinx.jpg",".","1","37","0","651"
"4","4","retrieval","new_object","53","GasStation.jpg",".",".","37","1","1084"
"4","4","retrieval","new_object","54","Earring_Hoop.jpg",".",".","37","1","1865"
"4","4","retrieval","old_object","55","VinylRecord.jpg",".","3","37","0","676"
"4","4","retrieval","old_object","56","Shovel_Garden.jpg",".","1","37","0","616"
"4","4","retrieval","new_object","57","PagodaModel.jpg",".",".","37","1","910"
"4","4","retrieval","old_object","58","Hat_Feather.jpg",".","3","36","1","751"
"4","4","retrieval","old_object","59","FuzzyDice.jpg",".","3","37","0","489"
"4","4","retrieval","old_object","60","Stick_Stirring.jpg",".","1","37","0","1123"
"4","4","retrieval","old_object","61","Pasta_Fettuccine.jpg",".","1","37","0","940"
"4","4","retrieval","new_object","62","WaterWell.jpg",".",".","37","1","1922"
"4","4","retrieval","old_object","63","HairClipper.jpg",".","3","37","0","1200"
"4","4","retrieval","old_object","64","Golf_Club.jpg",".","3","37","0","850"
"4","4","retrieval","old_object","65","Lobster.jpg",".","1","37","0","985"
"4","4","retrieval","old_object","67","Garlic_Clove.jpg",".","3","36","1","988"
"4","4","retrieval","old_object","68","Coin.jpg",".","1","37","0","783"
"4","4","retrieval","old_object","69","Pouch_Red.jpg",".","1","37","0","1203"
"4","4","retrieval","new_object","70","Mask_Ski.jpg",".",".","0","0","2000"
"4","4","retrieval","new_object","71","Gecko.jpg",".",".","0","0","2000"
"4","4","retrieval","new_object","72","Stool_Metal.jpg",".",".","37","1","1012"
"4","4","retrieval","old_object","73","Glove_Baseball.jpg",".","3","37","0","710"
"4","4","retrieval","new_object","74","Candy_Toffee.jpg",".",".","37","1","826"
"4","4","retrieval","old_object","75","Card_TwoSpade.jpg",".","3","37","0","660"
"4","4","retrieval","new_object","76","Barometer.jpg",".",".","36","0","803"
"4","4","retrieval","new_object","77","Cassette_Video.jpg",".",".","37","1","1156"
"4","4","retrieval","new_object","78","Jar_Honey.jpg",".",".","36","0","1057"
"4","4","retrieval","new_object","79","Bucket_Halloween.jpg",".",".","37","1","1545"
"4","4","retrieval","old_object","80","SnowmanDecor.jpg",".","3","37","0","1018"
"4","4","retrieval","new_object","81","Bread_Loaf.jpg",".",".","37","1","1132"
"4","4","retrieval","new_object","82","Toy_LambPlushie.jpg",".",".","37","1","999"
"4","4","retrieval","new_object","83","Nuts_Pecan.jpg",".",".","37","1","818"
"4","4","retrieval","old_object","84","Walkman.jpg",".","1","0","0","2000"
"4","4","retrieval","new_object","85","Statue_Man.jpg",".",".","37","1","1141"
"4","4","retrieval","new_object","86","PumiceStone.jpg",".",".","37","1","909"
"4","4","retrieval","new_object","87","Bread_Roll.jpg",".",".","36","0","944"
"4","4","retrieval","new_object","88","Thermometer_Room.jpg",".",".","37","1","689"
"4","4","retrieval","new_object","89","Bowl_Glass.jpg",".",".","37","1","605"
"4","4","retrieval","old_object","90","Seeder.jpg",".","3","37","0","700"
"4","4","retrieval","old_object","91","TelescopeSpacecraft.jpg",".","3","37","0","792"
"4","4","retrieval","old_object","92","Toy_Wooden rings.jpg",".","3","36","1","950"
"4","4","retrieval","old_object","93","Mat_Bamboo.jpg",".","1","37","0","849"
"4","4","retrieval","old_object","94","WaterHeater.jpg",".","1","37","0","739"
"4","4","retrieval","new_object","95","Carousel.jpg",".",".","37","1","1179"
"4","4","retrieval","new_object","96","Bread_Carrot.jpg",".",".","36","0","1162"
"4","4","retrieval","new_object","97","Light_Studio.jpg",".",".","36","0","1122"
"4","4","retrieval","old_object","98","Squash_Butternut.jpg",".","1","37","0","347"
"4","4","retrieval","new_object","99","LicensePlate.jpg",".",".","36","0","470"
"4","4","retrieval","new_object","100","Van.jpg",".",".","37","1","671"
"4","4","retrieval","new_object","101","Ladybug.jpg",".",".","37","1","790"
"4","4","retrieval","new_object","102","Tube_Glue.jpg",".",".","37","1","739"
"4","4","retrieval","new_object","103","Chair_Office.jpg",".",".","37","1","458"
"4","4","retrieval","old_object","104","Ostrich.jpg",".","1","36","1","1117"
"4","4","retrieval","old_object","105","Piano_Upright.jpg",".","3","37","0","508"
"4","4","retrieval","new_object","106","DoubleBass.jpg",".",".","37","1","552"
"4","4","retrieval","old_object","107","IceCubes.jpg",".","3","36","1","4294967295"
"4","4","retrieval","old_object","108","RadioactiveContainer.jpg",".","1","37","0","4294967295"
"4","4","retrieval","old_object","109","Pear_Green.jpg",".","1","36","1","118"
"4","4","retrieval","old_object","110","Toy_Christmastree.jpg",".","1","37","0","188"
"4","4","retrieval","old_object","111","Card_Deck.jpg",".","3","37","0","99"
"4","4","retrieval","new_object","112","Light_Fixtures.jpg",".",".","36","0","105"
"4","4","retrieval","old_object","113","Stool_Camping.jpg",".","3","37","0","554"
"4","4","retrieval","old_object","114","Cloud.jpg",".","3","37","0","225"
"4","4","retrieval","old_object","115","TreeStump.jpg",".","1","36","1","186"
"4","4","retrieval","new_object","116","Bird_Duck.jpg",".",".","36","0","110"
"4","4","retrieval","new_object","117","ManholeCover.jpg",".",".","0","0","2000"
"4","4","retrieval","old_object","118","Sink_Kitchen.jpg",".","3","36","1","251"
"4","4","retrieval","new_object","119","SelfieStick.jpg",".",".","37","1","1040"
"4","4","retrieval","old_object","120","NailFiles.jpg",".","3","37","0","604"
"4","4","retrieval","old_object","121","Sandwich_Ham.jpg",".","3","37","0","224"
"4","4","retrieval","old_object","122","Neckrest.jpg",".","1","37","0","626"
"4","4","retrieval","new_object","123","Lollipop_Rainbow.jpg",".",".","36","0","285"
"4","4","retrieval","new_object","124","Mailbox_Antique.jpg",".",".","36","0","375"
"4","4","retrieval","new_object","125","Brush_Light.jpg",".",".","37","1","197"
"4","4","retrieval","new_object","126","CodeDoorLock.jpg",".",".","36","0","96"
"4","4","retrieval","old_object","127","Barrel_Wine.jpg",".","1","37","0","308"
"4","4","retrieval","old_object","128","Camera_Video.jpg",".","3","37","0","263"
"4","4","retrieval","new_object","129","TortillaChip.jpg",".",".","37","1","259"
"4","4","retrieval","new_object","130","Bandage_Adhesive.jpg",".",".","Ctrl+'Q'","1","1539"
"6","6","encoding","encoding","1","DeepFryer.jpg","3",".","0","0","1000"
"6","6","encoding","encoding","2","VinylRecord.jpg","3",".","0","0","1000"
"6","6","encoding","encoding","3","Suitcase.jpg","1",".","0","0","1000"
"6","6","encoding","encoding","4","Cologne.jpg","3",".","0","0","1000"
"6","6","encoding","encoding","5","DonaldDuck_Toy.jpg","3",".","36","0","992"
"6","6","encoding","encoding","6","Bag_Toiletry.jpg","1",".","0","0","1000"
"6","6","encoding","encoding","7","Boat_Colourful.jpg","1",".","37","0","738"
"6","6","encoding","encoding","8","Bucket_WoodenLight.jpg","1",".","37","0","411"
"6","6","encoding","encoding","9","Piano_Upright.jpg","3",".","37","0","653"
"6","6","encoding","encoding","10","Jars_PetFood.jpg","1",".","37","0","502"
"6","6","encoding","encoding","11","RecorderInstrument.jpg","3",".","37","0","448"
"6","6","encoding","encoding","12","MortarPestle_WhiteMarble.jpg","3",".","37","0","633"
"6","6","encoding","encoding","13","Piano_Upright.jpg","3",".","37","0","427"
"6","6","encoding","encoding","14","SaladCaesar.jpg","3",".","37","0","756"
"6","6","encoding","encoding","15","Snowpea.jpg","3",".","36","0","589"
"6","6","encoding","encoding","16","Puffin.jpg","1",".","37","0","479"
"6","6","encoding","encoding","17","IceCubes.jpg","3",".","37","0","431"
"6","6","encoding","encoding","18","Toy_Bat.jpg","3",".","37","0","432"
"6","6","encoding","encoding","19","RecorderInstrument.jpg","3",".","37","0","419"
"6","6","encoding","encoding","20","PersonWooden.jpg","3",".","37","0","372"
"6","6","encoding","encoding","21","Card_TwoSpade.jpg","3",".","0","0","1000"
"6","6","encoding","encoding","22","Clamp_Screw.jpg","3",".","0","0","1000"
"6","6","encoding","encoding","23","Car_Buggy.jpg","3",".","0","0","1000"
"6","6","encoding","encoding","24","Sink_Kitchen.jpg","3",".","0","0","1000"
"6","6","encoding","encoding","25","Box_WoodCrate.jpg","1",".","0","0","1000"
"6","6","encoding","encoding","26","Ginger.jpg","3",".","0","0","1000"
"6","6","encoding","encoding","27","Toy_Dog.jpg","3",".","0","0","1000"
"6","6","encoding","encoding","28","NailFiles.jpg","3",".","abort","1","990"
"9","9","encoding","encoding","1","DeepFryer.jpg","3",".","0","0","1000"
"9","9","encoding","encoding","2","VinylRecord.jpg","3",".","37","0","761"
"9","9","encoding","encoding","3","Suitcase.jpg","1",".","37","0","877"
"9","9","encoding","encoding","4","Cologne.jpg","3",".","37","0","857"
"9","9","encoding","encoding","5","DonaldDuck_Toy.jpg","3",".","0","0","1000"
"9","9","encoding","encoding","6","Bag_Toiletry.jpg","1",".","37","0","952"
"9","9","encoding","encoding","7","Boat_Colourful.jpg","1",".","0","0","1000"
"9","9","encoding","encoding","8","Bucket_WoodenLight.jpg","1",".","37","0","696"
"9","9","encoding","encoding","9","Piano_Upright.jpg","3",".","37","0","771"
"9","9","encoding","encoding","10","Jars_PetFood.jpg","1",".","37","0","891"
"9","9","encoding","encoding","11","RecorderInstrument.jpg","3",".","37","0","869"
"9","9","encoding","encoding","12","MortarPestle_WhiteMarble.jpg","3",".","0","0","1000"
"9","9","encoding","encoding","13","Piano_Upright.jpg","3",".","37","0","542"
"9","9","encoding","encoding","14","SaladCaesar.jpg","3",".","36","0","739"
"9","9","encoding","encoding","15","Snowpea.jpg","3",".","0","0","1000"
"9","9","encoding","encoding","16","Puffin.jpg","1",".","0","0","1000"
"9","9","encoding","encoding","17","IceCubes.jpg","3",".","0","0","1000"
"9","9","encoding","encoding","18","Toy_Bat.jpg","3",".","37","0","451"
"9","9","encoding","encoding","19","RecorderInstrument.jpg","3",".","37","0","751"
"9","9","encoding","encoding","20","PersonWooden.jpg","3",".","0","0","1000"
"9","9","encoding","encoding","21","Card_TwoSpade.jpg","3",".","37","0","884"
"9","9","encoding","encoding","22","Clamp_Screw.jpg","3",".","37","0","662"
"9","9","encoding","encoding","23","Car_Buggy.jpg","3",".","37","0","739"
"9","9","encoding","encoding","24","Sink_Kitchen.jpg","3",".","37","0","596"
"9","9","encoding","encoding","25","Box_WoodCrate.jpg","1",".","37","0","965"
"9","9","encoding","encoding","26","Ginger.jpg","3",".","36","0","726"
"9","9","encoding","encoding","27","Toy_Dog.jpg","3",".","37","0","718"
"9","9","encoding","encoding","28","NailFiles.jpg","3",".","37","0","717"
"9","9","encoding","encoding","29","Cologne.jpg","3",".","37","0","471"
"9","9","encoding","encoding","30","Tray_Medical.jpg","3",".","37","0","655"
"9","9","encoding","encoding","31","Stick_Stirring.jpg","1",".","37","0","766"
"9","9","encoding","encoding","32","Bicycle_Kids.jpg","3",".","37","0","689"
"9","9","encoding","encoding","33","Lips_Wax.jpg","3",".","37","0","628"
"9","9","encoding","encoding","34","MortarPestle_WhiteMarble.jpg","3",".","36","0","625"
"9","9","encoding","encoding","35","PersonWooden.jpg","3",".","37","0","155"
"9","9","encoding","encoding","36","Shrimp.jpg","3",".","37","0","91"
"9","9","encoding","encoding","37","Toy_Rooster.jpg","3",".","37","0","36"
"9","9","encoding","encoding","38","Box_Cutlery.jpg","3",".","37","0","966"
"9","9","encoding","encoding","39","Suit_Women.jpg","3",".","0","0","1000"
"9","9","encoding","encoding","40","Decoration_ChristmasWhite.jpg","1",".","37","0","839"
"9","9","encoding","encoding","41","HairBand.jpg","1",".","36","0","970"
"9","9","encoding","encoding","42","Suit_Women.jpg","3",".","37","0","917"
"9","9","encoding","encoding","43","IroningBoard.jpg","3",".","37","0","889"
"9","9","encoding","encoding","44","Ruler_Wooden.jpg","1",".","37","0","710"
"9","9","encoding","encoding","45","Toy_Taxi.jpg","3",".","37","0","650"
"9","9","encoding","encoding","46","PaperTowel_Brown.jpg","3",".","37","0","574"
"9","9","encoding","encoding","47","Stick_IceHockey.jpg","3",".","37","0","759"
"9","9","encoding","encoding","48","Pouch_Red.jpg","1",".","37","0","853"
"9","9","encoding","encoding","49","Stool_Camping.jpg","3",".","37","0","603"
"9","9","encoding","encoding","50","HairClipper.jpg","3",".","37","0","610"
"9","9","encoding","encoding","51","PaperCutter.jpg","3",".","37","0","618"
"9","9","encoding","encoding","52","Toy_Ladybug.jpg","1",".","37","0","642"
"9","9","encoding","encoding","53","SnowmanDecor.jpg","3",".","37","0","513"
"9","9","encoding","encoding","54","Flashlight.jpg","1",".","37","0","665"
"9","9","encoding","encoding","55","RecorderInstrument.jpg","3",".","37","0","797"
"9","9","encoding","encoding","56","Hat_Feather.jpg","3",".","0","0","1000"
"9","9","encoding","encoding","57","Helicopter.jpg","1",".","0","0","1000"
"9","9","encoding","encoding","58","Compressor.jpg","1",".","0","0","1000"
"9","9","encoding","encoding","59","CarLighter.jpg","3",".","0","0","1000"
"9","9","encoding","encoding","60","Mask_VenetianCat.jpg","3",".","0","0","1000"
"9","9","encoding","encoding","61","Toy_BeadMaze.jpg","1",".","0","0","1000"
"9","9","encoding","encoding","62","TelescopeSpacecraft.jpg","3",".","0","0","1000"
"9","9","encoding","encoding","63","Boar.jpg","1",".","0","0","1000"
"9","9","encoding","encoding","64","Toy_Bat.jpg","3",".","0","0","1000"
"9","9","encoding","encoding","65","Cheeseburger.jpg","1",".","0","0","1000"
"9","9","encoding","encoding","67","Card_Deck.jpg","3",".","0","0","1000"
"9","9","encoding","encoding","68","CDstack.jpg","3",".","37","0","739"
"9","9","encoding","encoding","69","Speakers_Theatre.jpg","3",".","37","0","600"
"9","9","encoding","encoding","70","Carrot.jpg","1",".","37","0","832"
"9","9","encoding","encoding","71","Sandwich_Ham.jpg","3",".","36","0","713"
"9","9","encoding","encoding","72","Otoscope.jpg","1",".","37","0","903"
"9","9","encoding","encoding","73","TowelRack_Metal.jpg","1",".","37","0","617"
"9","9","encoding","encoding","74","SoapDish.jpg","3",".","37","0","626"
"9","9","encoding","encoding","75","Toy_Firetruck.jpg","3",".","37","0","778"
"9","9","encoding","encoding","76","Ginger.jpg","3",".","36","0","816"
"9","9","encoding","encoding","77","RadioactiveContainer.jpg","1",".","37","0","663"
"9","9","encoding","encoding","78","OperaGlasses.jpg","3",".","37","0","652"
"9","9","encoding","encoding","79","FuzzyDice.jpg","3",".","37","0","602"
"9","9","encoding","encoding","80","PowderProtein.jpg","1",".","37","0","726"
"9","9","encoding","encoding","81","Garlic_Clove.jpg","3",".","36","0","865"
"9","9","encoding","encoding","82","Broccoli.jpg","1",".","36","0","899"
"9","9","encoding","encoding","83","EyeChart.jpg","3",".","37","0","698"
"9","9","encoding","encoding","84","Toy_Firetruck.jpg","3",".","0","0","1000"
"9","9","encoding","encoding","85","DonaldDuck_Toy.jpg","3",".","37","0","641"
"9","9","encoding","encoding","86","Dice.jpg","3",".","37","0","776"
"9","9","encoding","encoding","87","MatchBook.jpg","1",".","37","0","754"
"9","9","encoding","encoding","88","Bowl_Chopsticks.jpg","3",".","37","0","932"
"9","9","encoding","encoding","89","Nail.jpg","3",".","37","0","783"
"9","9","encoding","encoding","90","Seeder.jpg","3",".","37","0","636"
"9","9","encoding","encoding","91","Car_Buggy.jpg","3",".","37","0","638"
"9","9","encoding","encoding","92","Shovel_Garden.jpg","1",".","37","0","539"
"9","9","encoding","encoding","93","Backhoe.jpg","1",".","37","0","847"
"9","9","encoding","encoding","94","Speakers_Theatre.jpg","3",".","37","0","667"
"9","9","encoding","encoding","95","SnowmanDecor.jpg","3",".","37","0","814"
"9","9","encoding","encoding","96","Cloud.jpg","3",".","37","0","591"
"9","9","encoding","encoding","97","Sandwich_Ham.jpg","3",".","37","0","966"
"9","9","encoding","encoding","98","Stone_Spa.jpg","1",".","37","0","719"
"9","9","encoding","encoding","99","TelescopeSpacecraft.jpg","3",".","37","0","816"
"9","9","encoding","encoding","100","BrainSagittal.jpg","1",".","37","0","911"
"9","9","encoding","encoding","101","ColoringSet.jpg","3",".","0","0","1000"
"9","9","encoding","encoding","102","Toy_Wooden rings.jpg","3",".","37","0","184"
"9","9","encoding","encoding","103","Stool_Camping.jpg","3",".","37","0","467"
"9","9","encoding","encoding","104","Candleholder_LampShaped.jpg","3",".","37","0","613"
"9","9","encoding","encoding","105","FuzzyDice.jpg","3",".","37","0","556"
"9","9","encoding","encoding","106","PumpBreast.jpg","3",".","37","0","700"
"9","9","encoding","encoding","107","Lips_Wax.jpg","3",".","37","0","766"
"9","9","encoding","encoding","108","Canister_Tea.jpg","1",".","37","0","827"
"9","9","encoding","encoding","109","Pyramid.jpg","1",".","37","0","869"
"9","9","encoding","encoding","110","Dropper.jpg","3",".","37","0","599"
"9","9","encoding","encoding","111","Sphinx.jpg","1",".","37","0","805"
"9","9","encoding","encoding","112","Ginger.jpg","3",".","37","0","754"
"9","9","encoding","encoding","113","WalkieTalkie_Yellow.jpg","1",".","37","0","841"
"9","9","encoding","encoding","114","Snowpea.jpg","3",".","36","0","896"
"9","9","encoding","encoding","115","Pretzel_Sticks.jpg","3",".","0","0","1000"
"9","9","encoding","encoding","116","Celery.jpg","3",".","36","0","616"
"9","9","encoding","encoding","117","Toy_Dog.jpg","3",".","37","0","900"
"9","9","encoding","encoding","118","NailFiles.jpg","3",".","37","0","887"
"9","9","encoding","encoding","119","Toy_Firetruck.jpg","3",".","37","0","761"
"9","9","encoding","encoding","120","Mitt_Blue.jpg","3",".","37","0","835"
"9","9","encoding","encoding","121","Ostrich.jpg","1",".","37","0","856"
"9","9","encoding","encoding","122","LintRemover.jpg","3",".","37","0","942"
"9","9","encoding","encoding","123","Nail.jpg","3",".","37","0","826"
"9","9","encoding","encoding","124","LeafBlower.jpg","1",".","37","0","745"
"9","9","encoding","encoding","125","Piano_Upright.jpg","3",".","37","0","693"
"9","9","encoding","encoding","126","Pretzel_Sticks.jpg","3",".","37","0","482"
"9","9","encoding","encoding","127","Card_TwoSpade.jpg","3",".","37","0","769"
"9","9","encoding","encoding","128","Heater_ElectricUpright.jpg","1",".","37","0","798"
"9","9","encoding","encoding","129","Protractor.jpg","3",".","37","0","661"
"9","9","encoding","encoding","130","Drum_Ramadan.jpg","3",".","37","0","683"
"9","9","encoding","encoding","131","Lynx.jpg","1",".","37","0","913"
"9","9","encoding","encoding","133","Glasses_Sun.jpg","3",".","0","0","1000"
"9","9","encoding","encoding","134","DeepFryer.jpg","3",".","37","0","500"
"9","9","encoding","encoding","135","Airplane_Small.jpg","3",".","37","0","857"
"9","9","encoding","encoding","136","Toy_Rooster.jpg","3",".","36","0","948"
"9","9","encoding","encoding","137","VacuumHose.jpg","3",".","37","0","783"
"9","9","encoding","encoding","138","TowelRack_Brown.jpg","1",".","37","0","768"
"9","9","encoding","encoding","139","Cloud.jpg","3",".","37","0","962"
"9","9","encoding","encoding","140","Lips_Wax.jpg","3",".","37","0","959"
"9","9","encoding","encoding","141","Box_Cutlery.jpg","3",".","37","0","907"
"9","9","encoding","encoding","142","Celery.jpg","3",".","36","0","905"
"9","9","encoding","encoding","143","Drum_Ramadan.jpg","3",".","37","0","759"
"9","9","encoding","encoding","144","Hat_Feather.jpg","3",".","37","0","810"
"9","9","encoding","encoding","145","Garlic_Clove.jpg","3",".","36","0","927"
"9","9","encoding","encoding","146","Seeder.jpg","3",".","37","0","687"
"9","9","encoding","encoding","147","Level.jpg","3",".","37","0","802"
"9","9","encoding","encoding","148","Coral.jpg","1",".","0","0","1000"
"9","9","encoding","encoding","149","Lobster.jpg","1",".","0","0","1000"
"9","9","encoding","encoding","150","Bagpipes.jpg","3",".","37","0","804"
"9","9","encoding","encoding","151","Makeup_Bag.jpg","3",".","37","0","450"
"9","9","encoding","encoding","152","IceCubes.jpg","3",".","36","0","517"
"9","9","encoding","encoding","153","Card_Deck.jpg","3",".","37","0","30"
"9","9","encoding","encoding","154","Golf_Club.jpg","3",".","37","0","101"
"9","9","encoding","encoding","155","Makeup_Bag.jpg","3",".","36","0","78"
"9","9","encoding","encoding","156","PaperCutter.jpg","3",".","36","0","98"
"9","9","encoding","encoding","157","Shoes_Mould.jpg","1",".","37","0","822"
"9","9","encoding","encoding","158","Toy_Wooden rings.jpg","3",".","37","0","637"
"9","9","encoding","encoding","159","Sign_SlipperyRoad.jpg","1",".","37","0","515"
"9","9","encoding","encoding","160","Pear_Green.jpg","1",".","37","0","437"
"9","9","encoding","encoding","161","WaterCooler.jpg","1",".","37","0","705"
"9","9","encoding","encoding","162","Scorpion.jpg","1",".","37","0","825"
"9","9","encoding","encoding","163","Mat_Bamboo.jpg","1",".","37","0","930"
"9","9","encoding","encoding","164","ClothesDryingRack.jpg","3",".","37","0","727"
"9","9","encoding","encoding","165","Toy_Rooster.jpg","3",".","37","0","980"
"9","9","encoding","encoding","166","ComputerKey_Escape.jpg","3",".","37","0","514"
"9","9","encoding","encoding","167","Golf_Club.jpg","3",".","37","0","622"
"9","9","encoding","encoding","168","GrillRack.jpg","3",".","37","0","762"
"9","9","encoding","encoding","169","Desk_Office.jpg","1",".","37","0","618"
"9","9","encoding","encoding","170","Camera_Video.jpg","3",".","37","0","483"
"9","9","encoding","encoding","171","VacuumHose.jpg","3",".","37","0","537"
"9","9","encoding","encoding","172","Toy_BearBrownPlushie.jpg","1",".","37","0","332"
"9","9","encoding","encoding","173","Bowl_Chopsticks.jpg","3",".","37","0","711"
"9","9","encoding","encoding","174","HairClipper.jpg","3",".","37","0","608"
"9","9","encoding","encoding","175","MortarPestle_WhiteMarble.jpg","3",".","37","0","493"
"9","9","encoding","encoding","176","SaladCaesar.jpg","3",".","37","0","503"
"9","9","encoding","encoding","177","Car_Buggy.jpg","3",".","37","0","607"
"9","9","encoding","encoding","178","ComputerKey_Escape.jpg","3",".","37","0","438"
"9","9","encoding","encoding","179","Hat_Police.jpg","3",".","37","0","364"
"9","9","encoding","encoding","180","SoapDish.jpg","3",".","37","0","511"
"9","9","encoding","encoding","181","Golf_Club.jpg","3",".","37","0","838"
"9","9","encoding","encoding","182","Sink_Kitchen.jpg","3",".","37","0","470"
"9","9","encoding","encoding","183","Protractor.jpg","3",".","37","0","712"
"9","9","encoding","encoding","184","Dice.jpg","3",".","37","0","706"
"9","9","encoding","encoding","185","Seeder.jpg","3",".","37","0","871"
"9","9","encoding","encoding","186","Camera_Video.jpg","3",".","37","0","964"
"9","9","encoding","encoding","187","Computer_ExpansionCard.jpg","1",".","0","0","1000"
"9","9","encoding","encoding","188","OperaGlasses.jpg","3",".","37","0","863"
"9","9","encoding","encoding","189","Makeup_Bag.jpg","3",".","37","0","687"
"9","9","encoding","encoding","190","Paddle_Canoe.jpg","1",".","37","0","881"
"9","9","encoding","encoding","191","Shrimp.jpg","3",".","37","0","674"
"9","9","encoding","encoding","192","Squash_Butternut.jpg","1",".","37","0","696"
"9","9","encoding","encoding","193","PaperTowel_Brown.jpg","3",".","37","0","583"
"9","9","encoding","encoding","194","FuzzyDice.jpg","3",".","37","0","616"
"9","9","encoding","encoding","195","Hat_Feather.jpg","3",".","37","0","582"
"9","9","encoding","encoding","196","Case_CD.jpg","1",".","37","0","634"
"9","9","encoding","encoding","197","Card_TwoSpade.jpg","3",".","37","0","844"
"9","9","encoding","encoding","199","PersonWooden.jpg","3",".","37","0","767"
"9","9","encoding","encoding","200","Garlic_Clove.jpg","3",".","0","0","1000"
"9","9","encoding","encoding","201","Bagpipes.jpg","3",".","37","0","680"
"9","9","encoding","encoding","202","Shrimp.jpg","3",".","37","0","655"
"9","9","encoding","encoding","203","Balcony.jpg","1",".","0","0","1000"
"9","9","encoding","encoding","204","PumpBreast.jpg","3",".","37","0","743"
"9","9","encoding","encoding","205","Airplane_Small.jpg","3",".","37","0","689"
"9","9","encoding","encoding","206","CarLighter.jpg","3",".","37","0","612"
"9","9","encoding","encoding","207","Tray_Medical.jpg","3",".","37","0","619"
"9","9","encoding","encoding","208","Puzzle_Animal.jpg","3",".","37","0","705"
"9","9","encoding","encoding","209","Bagpipes.jpg","3",".","37","0","601"
"9","9","encoding","encoding","210","PaperTowel_Brown.jpg","3",".","37","0","585"
"9","9","encoding","encoding","211","IroningBoard.jpg","3",".","37","0","846"
"9","9","encoding","encoding","212","Speakers_Theatre.jpg","3",".","37","0","594"
"9","9","encoding","encoding","213","Snorkle.jpg","3",".","0","0","1000"
"9","9","encoding","encoding","214","Nail.jpg","3",".","37","0","623"
"9","9","encoding","encoding","215","Bowl_Chopsticks.jpg","3",".","37","0","640"
"9","9","encoding","encoding","216","Drum_Ramadan.jpg","3",".","37","0","665"
"9","9","encoding","encoding","217","ClothesDryingRack.jpg","3",".","37","0","621"
"9","9","encoding","encoding","218","Sink_Kitchen.jpg","3",".","0","0","1000"
"9","9","encoding","encoding","219","Pretzel_Sticks.jpg","3",".","37","0","755"
"9","9","encoding","encoding","220","ClothesDryingRack.jpg","3",".","37","0","576"
"9","9","encoding","encoding","221","Protractor.jpg","3",".","37","0","614"
"9","9","encoding","encoding","222","Snorkle.jpg","3",".","37","0","864"
"9","9","encoding","encoding","223","Snorkle.jpg","3",".","37","0","844"
"9","9","encoding","encoding","224","VinylRecord.jpg","3",".","0","0","1000"
"9","9","encoding","encoding","225","Bus_DoubleDecker.jpg","1",".","37","0","788"
"9","9","encoding","encoding","226","LintRemover.jpg","3",".","37","0","731"
"9","9","encoding","encoding","227","SaladCaesar.jpg","3",".","37","0","943"
"9","9","encoding","encoding","228","Puzzle_Animal.jpg","3",".","37","0","871"
"9","9","encoding","encoding","229","BowlingPin.jpg","1",".","0","0","1000"
"9","9","encoding","encoding","230","CarLighter.jpg","3",".","37","0","887"
"9","9","encoding","encoding","231","CDstack.jpg","3",".","37","0","875"
"9","9","encoding","encoding","232","Mask_VenetianCat.jpg","3",".","37","0","750"
"9","9","encoding","encoding","233","Paddle_Ball.jpg","1",".","37","0","971"
"9","9","encoding","encoding","234","Stick_IceHockey.jpg","3",".","37","0","900"
"9","9","encoding","encoding","235","Fan_Straw.jpg","3",".","37","0","784"
"9","9","encoding","encoding","236","OperaGlasses.jpg","3",".","37","0","728"
"9","9","encoding","encoding","237","IceCubes.jpg","3",".","37","0","695"
"9","9","encoding","encoding","238","Bicycle_Kids.jpg","3",".","0","0","1000"
"9","9","encoding","encoding","239","Card_Deck.jpg","3",".","37","0","777"
"9","9","encoding","encoding","240","Dragonfly.jpg","1",".","37","0","851"
"9","9","encoding","encoding","241","GrillRack.jpg","3",".","37","0","914"
"9","9","encoding","encoding","242","Cloud.jpg","3",".","37","0","566"
"9","9","encoding","encoding","243","Toy_Taxi.jpg","3",".","37","0","539"
"9","9","encoding","encoding","244","Hat_Police.jpg","3",".","37","0","656"
"9","9","encoding","encoding","245","Bicycle_Kids.jpg","3",".","37","0","673"
"9","9","encoding","encoding","246","Clippers_Glass.jpg","1",".","37","0","790"
"9","9","encoding","encoding","247","IroningBoard.jpg","3",".","37","0","663"
"9","9","encoding","encoding","248","Toy_Bat.jpg","3",".","37","0","684"
"9","9","encoding","encoding","249","Blueberry.jpg","1",".","37","0","687"
"9","9","encoding","encoding","250","Dog_Bulldog.jpg","1",".","37","0","756"
"9","9","encoding","encoding","251","Tape_Dispenser.jpg","1",".","37","0","793"
"9","9","encoding","encoding","252","Heater_Outdoor.jpg","1",".","37","0","717"
"9","9","encoding","encoding","253","Candleholder_LampShaped.jpg","3",".","37","0","586"
"9","9","encoding","encoding","254","Suit_Women.jpg","3",".","37","0","874"
"9","9","encoding","encoding","255","Clamp_Screw.jpg","3",".","37","0","860"
"9","9","encoding","encoding","256","ColoringSet.jpg","3",".","37","0","693"
"9","9","encoding","encoding","257","ComputerKey_Escape.jpg","3",".","37","0","616"
"9","9","encoding","encoding","258","DonaldDuck_Toy.jpg","3",".","37","0","719"
"9","9","encoding","encoding","259","ShinPads.jpg","1",".","37","0","601"
"9","9","encoding","encoding","260","LintRemover.jpg","3",".","37","0","581"
"9","9","encoding","encoding","261","Candleholder_LampShaped.jpg","3",".","37","0","568"
"9","9","encoding","encoding","262","Mask_VenetianCat.jpg","3",".","37","0","485"
"9","9","encoding","encoding","263","FlintIgniter.jpg","1",".","37","0","800"
"9","9","encoding","encoding","265","Glasses_Sun.jpg","3",".","37","0","957"
"9","9","encoding","encoding","266","TelescopeSpacecraft.jpg","3",".","37","0","932"
"9","9","encoding","encoding","267","Puzzle_Animal.jpg","3",".","37","0","929"
"9","9","encoding","encoding","268","SnowmanDecor.jpg","3",".","37","0","624"
"9","9","encoding","encoding","269","Airplane_Small.jpg","3",".","37","0","604"
"9","9","encoding","encoding","270","Glove_Baseball.jpg","3",".","37","0","948"
"9","9","encoding","encoding","271","Neckrest.jpg","1",".","37","0","732"
"9","9","encoding","encoding","272","Clamp_Screw.jpg","3",".","37","0","800"
"9","9","encoding","encoding","273","Mitt_Blue.jpg","3",".","37","0","828"
"9","9","encoding","encoding","274","VacuumHose.jpg","3",".","37","0","671"
"9","9","encoding","encoding","275","Pasta_Fettuccine.jpg","1",".","37","0","570"
"9","9","encoding","encoding","276","Mitt_Blue.jpg","3",".","37","0","481"
"9","9","encoding","encoding","277","Toy_Taxi.jpg","3",".","37","0","593"
"9","9","encoding","encoding","278","Toy_Wooden rings.jpg","3",".","37","0","769"
"9","9","encoding","encoding","279","HairClipper.jpg","3",".","37","0","717"
"9","9","encoding","encoding","280","Camera_Video.jpg","3",".","37","0","585"
"9","9","encoding","encoding","281","Tray_Medical.jpg","3",".","37","0","800"
"9","9","encoding","encoding","282","Match.jpg","1",".","37","0","910"
"9","9","encoding","encoding","283","SoapDish.jpg","3",".","37","0","657"
"9","9","encoding","encoding","284","Stick_IceHockey.jpg","3",".","37","0","656"
"9","9","encoding","encoding","285","Walkman.jpg","1",".","37","0","652"
"9","9","encoding","encoding","286","Dice.jpg","3",".","37","0","607"
"9","9","encoding","encoding","287","Sandwich_Ham.jpg","3",".","37","0","710"
"9","9","encoding","encoding","288","Notepad.jpg","1",".","0","0","1000"
"9","9","encoding","encoding","289","Dropper.jpg","3",".","37","0","682"
"9","9","encoding","encoding","290","Snowpea.jpg","3",".","0","0","1000"
"9","9","encoding","encoding","291","Cologne.jpg","3",".","37","0","784"
"9","9","encoding","encoding","292","VinylRecord.jpg","3",".","37","0","671"
"9","9","encoding","encoding","293","Shirt_Tshirt.jpg","1",".","37","0","937"
"9","9","encoding","encoding","294","Toy_TrailerAirport.jpg","1",".","37","0","740"
"9","9","encoding","encoding","295","Glove_Baseball.jpg","3",".","37","0","637"
"9","9","encoding","encoding","296","WaterHeater.jpg","1",".","37","0","567"
"9","9","encoding","encoding","297","Celery.jpg","3",".","36","0","717"
"9","9","encoding","encoding","298","CDstack.jpg","3",".","37","0","742"
"9","9","encoding","encoding","299","Tray_Metal.jpg","1",".","0","0","1000"
"9","9","encoding","encoding","300","PumpBreast.jpg","3",".","37","0","636"
"9","9","encoding","encoding","301","Fan_Straw.jpg","3",".","37","0","815"
"9","9","encoding","encoding","302","Coin.jpg","1",".","37","0","780"
"9","9","encoding","encoding","303","Barrel_Wine.jpg","1",".","0","0","1000"
"9","9","encoding","encoding","304","Box_Cutlery.jpg","3",".","37","0","70"
"9","9","encoding","encoding","305","Level.jpg","3",".","37","0","824"
"9","9","encoding","encoding","306","Glasses_Sun.jpg","3",".","36","0","758"
"9","9","encoding","encoding","307","Fan_Straw.jpg","3",".","37","0","752"
"9","9","encoding","encoding","308","PaperCutter.jpg","3",".","37","0","739"
"9","9","encoding","encoding","309","Glove_Baseball.jpg","3",".","37","0","697"
"9","9","encoding","encoding","310","TreeStump.jpg","1",".","37","0","664"
"9","9","encoding","encoding","311","Toy_DonkeyFur.jpg","1",".","37","0","752"
"9","9","encoding","encoding","312","Toy_Christmastree.jpg","1",".","37","0","593"
"9","9","encoding","encoding","313","ColoringSet.jpg","3",".","37","0","522"
"9","9","encoding","encoding","314","Toy_Dog.jpg","3",".","37","0","485"
"9","9","encoding","encoding","315","EyeChart.jpg","3",".","37","0","493"
"9","9","encoding","encoding","316","NailFiles.jpg","3",".","37","0","601"
"9","9","encoding","encoding","317","GrillRack.jpg","3",".","37","0","683"
"9","9","encoding","encoding","318","Level.jpg","3",".","37","0","641"
"9","9","encoding","encoding","319","Hat_Police.jpg","3",".","37","0","684"
"9","9","encoding","encoding","320","Dropper.jpg","3",".","37","0","428"
"9","9","encoding","encoding","321","DeepFryer.jpg","3",".","37","0","504"
"9","9","encoding","encoding","322","ShoeLace_Flat.jpg","1",".","0","0","1000"
"9","9","encoding","encoding","323","EyeChart.jpg","3",".","37","0","635"
"9","9","encoding","encoding","324","Stool_Camping.jpg","3",".","37","0","596"
"9","9","encoding","encoding","325","DeepFryer.jpg","",".","37","0","710"
"9","9","retrieval","old_object","1","Sign_SlipperyRoad.jpg",".","1","37","0","1160"
"9","9","retrieval","new_object","2","Lighter_Black.jpg",".",".","37","1","967"
"9","9","retrieval","old_object","3","Tray_Medical.jpg",".","3","36","1","1070"
"9","9","retrieval","old_object","4","Box_Cutlery.jpg",".","3","36","1","939"
"9","9","retrieval","old_object","5","Snowpea.jpg",".","3","36","1","990"
"9","9","retrieval","new_object","6","MousepadAndMouse.jpg",".",".","37","1","711"
"9","9","retrieval","new_object","7","Umbrella_Classic.jpg",".",".","36","0","1194"
"9","9","retrieval","new_object","8","SofaAntique.jpg",".",".","37","1","1007"
"9","9","retrieval","new_object","9","Binder.jpg",".",".","37","1","999"
"9","9","retrieval","old_object","10","GrillRack.jpg",".","3","37","0","769"
"9","9","retrieval","new_object","11","Cymbals.jpg",".",".","37","1","1168"
"9","9","retrieval","old_object","12","ShinPads.jpg",".","1","37","0","892"
"9","9","retrieval","new_object","13","Taco.jpg",".",".","36","0","1100"
"9","9","retrieval","new_object","14","PumiceStone.jpg",".",".","37","1","1190"
"9","9","retrieval","old_object","15","Box_WoodCrate.jpg",".","1","37","0","861"
"9","9","retrieval","new_object","16","Handbag.jpg",".",".","37","1","959"
"9","9","retrieval","old_object","17","Cheeseburger.jpg",".","1","37","0","1471"
"9","9","retrieval","new_object","18","Toy_MerryGoRound.jpg",".",".","36","0","1330"
"9","9","retrieval","new_object","19","Bat_Cricket.jpg",".",".","36","0","926"
"9","9","retrieval","old_object","20","Boar.jpg",".","1","36","1","1045"
"9","9","retrieval","old_object","21","PowderProtein.jpg",".","1","36","1","1213"
"9","9","retrieval","new_object","22","Bleachers.jpg",".",".","36","0","1013"
"9","9","retrieval","old_object","23","Shrimp.jpg",".","3","36","1","901"
"9","9","retrieval","old_object","24","Shirt_Tshirt.jpg",".","1","36","1","990"
"9","9","retrieval","new_object","25","Flags_CheckeredRacing.jpg",".",".","36","0","1663"
"9","9","retrieval","new_object","26","Corkboard.jpg",".",".","36","0","1125"
"9","9","retrieval","old_object","27","Puzzle_Animal.jpg",".","3","37","0","894"
"9","9","retrieval","old_object","28","Clippers_Glass.jpg",".","1","37","0","1887"
"9","9","retrieval","new_object","29","Fork_Regular.jpg",".",".","36","0","1208"
"9","9","retrieval","new_object","30","DogSled.jpg",".",".","36","0","1765"
"9","9","retrieval","old_object","31","BowlingPin.jpg",".","1","36","1","936"
"9","9","retrieval","old_object","32","Broccoli.jpg",".","1","36","1","1422"
"9","9","retrieval","old_object","33","Toy_BearBrownPlushie.jpg",".","1","36","1","1067"
"9","9","retrieval","new_object","34","HoseNozzle.jpg",".",".","36","0","1068"
"9","9","retrieval","old_object","35","Suitcase.jpg",".","1","37","0","1071"
"9","9","retrieval","new_object","36","Barbecue_Charcoal.jpg",".",".","36","0","614"
"9","9","retrieval","new_object","37","Heelpad.jpg",".",".","37","1","1520"
"9","9","retrieval","new_object","38","Bread_Loaf.jpg",".",".","37","1","1053"
"9","9","retrieval","new_object","39","Table_Saw.jpg",".",".","37","1","1005"
"9","9","retrieval","new_object","40","ManholeCover.jpg",".",".","36","0","886"
"9","9","retrieval","old_object","41","Toy_Rooster.jpg",".","3","36","1","854"
"9","9","retrieval","new_object","42","House_Wooden.jpg",".",".","36","0","1311"
"9","9","retrieval","new_object","43","Ship_Cruise.jpg",".",".","37","1","1123"
"9","9","retrieval","new_object","44","Jar_Honey.jpg",".",".","37","1","1757"
"9","9","retrieval","old_object","45","Suit_Women.jpg",".","3","37","0","1106"
"9","9","retrieval","new_object","46","Carousel.jpg",".",".","36","0","1011"
"9","9","retrieval","old_object","47","PaperCutter.jpg",".","3","37","0","1120"
"9","9","retrieval","new_object","48","Makeup_Compact.jpg",".",".","37","1","1241"
"9","9","retrieval","old_object","49","Toy_Ladybug.jpg",".","1","37","0","751"
"9","9","retrieval","new_object","50","Crab.jpg",".",".","36","0","1286"
"9","9","retrieval","new_object","51","Tube_Paint.jpg",".",".","36","0","1266"
"9","9","retrieval","old_object","52","Carrot.jpg",".","1","37","0","1192"
"9","9","retrieval","old_object","53","Hat_Police.jpg",".","3","37","0","1122"
"9","9","retrieval","old_object","54","Coral.jpg",".","1","36","1","1332"
"9","9","retrieval","old_object","55","Sphinx.jpg",".","1","36","1","1503"
"9","9","retrieval","old_object","56","VinylRecord.jpg",".","3","36","1","1130"
"9","9","retrieval","old_object","57","Shovel_Garden.jpg",".","1","36","1","989"
"9","9","retrieval","new_object","58","Trash_Medical.jpg",".",".","36","0","941"
"9","9","retrieval","old_object","59","Hat_Feather.jpg",".","3","36","1","1136"
"9","9","retrieval","new_object","60","Cassette_Video.jpg",".",".","37","1","1092"
"9","9","retrieval","old_object","61","FuzzyDice.jpg",".","3","36","1","1126"
"9","9","retrieval","new_object","62","SewingPin_Cushion.jpg",".",".","36","0","1327"
"9","9","retrieval","old_object","63","Stick_Stirring.jpg",".","1","36","1","1502"
"9","9","retrieval","new_object","64","Cart_Janitor.jpg",".",".","37","1","973"
"9","9","retrieval","old_object","65","Pasta_Fettuccine.jpg",".","1","37","0","1251"
"9","9","retrieval","old_object","67","HairClipper.jpg",".","3","37","0","1089"
"9","9","retrieval","new_object","68","SelfieStick.jpg",".",".","37","1","1270"
"9","9","retrieval","new_object","69","Bread_Melon.jpg",".",".","37","1","885"
"9","9","retrieval","new_object","70","Lens_Camera.jpg",".",".","37","1","920"
"9","9","retrieval","old_object","71","Golf_Club.jpg",".","3","36","1","791"
"9","9","retrieval","new_object","72","AirPump.jpg",".",".","37","1","1025"
"9","9","retrieval","new_object","73","Castle_Sand.jpg",".",".","37","1","989"
"9","9","retrieval","old_object","74","Lobster.jpg",".","1","36","1","1612"
"9","9","retrieval","new_object","75","Bark.jpg",".",".","36","0","1151"
"9","9","retrieval","old_object","76","Garlic_Clove.jpg",".","3","36","1","929"
"9","9","retrieval","old_object","77","Coin.jpg",".","1","36","1","1215"
"9","9","retrieval","new_object","78","Cake_Cheese.jpg",".",".","37","1","1276"
"9","9","retrieval","new_object","79","Toolbox_BlackOpen.jpg",".",".","37","1","1389"
"9","9","retrieval","old_object","80","Pouch_Red.jpg",".","1","36","1","996"
"9","9","retrieval","old_object","81","Glove_Baseball.jpg",".","3","37","0","921"
"9","9","retrieval","new_object","82","Earring_Hoop.jpg",".",".","37","1","1419"
"9","9","retrieval","new_object","83","Bible.jpg",".",".","37","1","1187"
"9","9","retrieval","new_object","84","Case_Pencil.jpg",".",".","36","0","958"
"9","9","retrieval","new_object","85","SatelliteDish.jpg",".",".","37","1","730"
"9","9","retrieval","old_object","86","Card_TwoSpade.jpg",".","3","37","0","757"
"9","9","retrieval","old_object","87","SnowmanDecor.jpg",".","3","37","0","552"
"9","9","retrieval","old_object","88","Walkman.jpg",".","1","37","0","703"
"9","9","retrieval","new_object","89","Clave.jpg",".",".","37","1","1315"
"9","9","retrieval","new_object","90","Box_FirstAid.jpg",".",".","37","1","624"
"9","9","retrieval","new_object","91","Cable_JumpStart.jpg",".",".","37","1","596"
"9","9","retrieval","new_object","92","Cannon.jpg",".",".","37","1","818"
"9","9","retrieval","new_object","93","Hockey_Puck.jpg",".",".","37","1","1089"
"9","9","retrieval","new_object","94","CodeDoorLock.jpg",".",".","36","0","894"
"9","9","retrieval","old_object","95","Seeder.jpg",".","3","37","0","795"
"9","9","retrieval","new_object","96","Statue_Horse.jpg",".",".","37","1","985"
"9","9","retrieval","old_object","97","TelescopeSpacecraft.jpg",".","3","37","0","817"
"9","9","retrieval","old_object","98","Toy_Wooden rings.jpg",".","3","37","0","639"
"9","9","retrieval","new_object","99","GasStation.jpg",".",".","37","1","989"
"9","9","retrieval","new_object","100","Briefcase_Silver.jpg",".",".","37","1","759"
"9","9","retrieval","old_object","101","Mat_Bamboo.jpg",".","1","37","0","629"
"9","9","retrieval","old_object","102","WaterHeater.jpg",".","1","37","0","590"
"9","9","retrieval","old_object","103","Squash_Butternut.jpg",".","1","36","1","882"
"9","9","retrieval","new_object","104","Clock_Interior.jpg",".",".","36","0","941"
"9","9","retrieval","new_object","105","Helmet_Motorcycle.jpg",".",".","37","1","837"
"9","9","retrieval","old_object","106","Ostrich.jpg",".","1","36","1","1085"
"9","9","retrieval","new_object","107","Carabiner_Orange.jpg",".",".","36","0","1076"
"9","9","retrieval","old_object","108","Piano_Upright.jpg",".","3","37","0","787"
"9","9","retrieval","old_object","109","IceCubes.jpg",".","3","37","0","909"
"9","9","retrieval","new_object","110","Milkshake_Strawberry.jpg",".",".","37","1","942"
"9","9","retrieval","new_object","111","Bowl_Glass.jpg",".",".","37","1","1151"
"9","9","retrieval","new_object","112","Acorn.jpg",".",".","36","0","892"
"9","9","retrieval","new_object","113","Brush_Light.jpg",".",".","36","0","1103"
"9","9","retrieval","new_object","114","LifeJacket_Orangejpg.jpg",".",".","37","1","700"
"9","9","retrieval","old_object","115","RadioactiveContainer.jpg",".","1","36","1","985"
"9","9","retrieval","new_object","116","Light_Halogen.jpg",".",".","37","1","935"
"9","9","retrieval","old_object","117","Pear_Green.jpg",".","1","37","0","1355"
"9","9","retrieval","old_object","118","Toy_Christmastree.jpg",".","1","37","0","1197"
"9","9","retrieval","new_object","119","Spear.jpg",".",".","36","0","996"
"9","9","retrieval","new_object","120","Hedgehog.jpg",".",".","36","0","867"
"9","9","retrieval","new_object","121","DartBoard.jpg",".",".","37","1","1528"
"9","9","retrieval","old_object","122","Card_Deck.jpg",".","3","36","1","1603"
"9","9","retrieval","old_object","123","Stool_Camping.jpg",".","3","37","0","955"
"9","9","retrieval","old_object","124","Cloud.jpg",".","3","37","0","1028"
"9","9","retrieval","old_object","125","TreeStump.jpg",".","1","36","1","1070"
"9","9","retrieval","new_object","126","Stove_WithOven.jpg",".",".","37","1","1363"
"9","9","retrieval","new_object","127","sign_traffic.jpg",".",".","36","0","891"
"9","9","retrieval","old_object","128","Sink_Kitchen.jpg",".","3","36","1","864"
"9","9","retrieval","old_object","129","NailFiles.jpg",".","3","37","0","668"
"9","9","retrieval","new_object","130","Toy_PandaPlushie.jpg",".",".","37","1","611"
"9","9","retrieval","new_object","131","Chair_Office.jpg",".",".","37","1","974"
"9","9","retrieval","new_object","133","Branch.jpg",".",".","36","0","1192"
"9","9","retrieval","old_object","134","Sandwich_Ham.jpg",".","3","37","0","1196"
"9","9","retrieval","new_object","135","Statue_Man.jpg",".",".","36","0","1617"
"9","9","retrieval","old_object","136","Neckrest.jpg",".","1","37","0","1258"
"9","9","retrieval","old_object","137","Barrel_Wine.jpg",".","1","36","1","1459"
"9","9","retrieval","old_object","138","Camera_Video.jpg",".","3","37","0","804"
"9","9","retrieval","new_object","139","Candy_Lozenge.jpg",".",".","36","0","1917"
"9","9","retrieval","new_object","140","LicensePlate.jpg",".",".","36","0","1171"
"9","9","retrieval","old_object","141","ShoeLace_Flat.jpg",".","1","36","1","1016"
"9","9","retrieval","new_object","142","Bag_Diaper.jpg",".",".","36","0","1136"
"9","9","retrieval","new_object","143","Helmet_Football.jpg",".",".","37","1","1017"
"9","9","retrieval","new_object","144","Toy_Lizard.jpg",".",".","36","0","1037"
"9","9","retrieval","new_object","145","WaterWell.jpg",".",".","36","0","1098"
"9","9","retrieval","new_object","146","BumperCar.jpg",".",".","36","0","1096"
"9","9","retrieval","new_object","147","Walker_Blue.jpg",".",".","37","1","909"
"9","9","retrieval","old_object","148","Dragonfly.jpg",".","1","36","1","1087"
"9","9","retrieval","old_object","149","Fan_Straw.jpg",".","3","37","0","1109"
"9","9","retrieval","new_object","150","Light_Fixtures.jpg",".",".","37","1","913"
"9","9","retrieval","old_object","151","Heater_ElectricUpright.jpg",".","1","37","0","1003"
"9","9","retrieval","new_object","152","TailLight.jpg",".",".","37","1","989"
"9","9","retrieval","new_object","153","ProjectorScreen.jpg",".",".","37","1","980"
"9","9","retrieval","old_object","154","Bucket_WoodenLight.jpg",".","1","37","0","1574"
"9","9","retrieval","old_object","155","Toy_DonkeyFur.jpg",".","1","36","1","1226"
"9","9","retrieval","new_object","156","Van.jpg",".",".","37","1","1112"
"9","9","retrieval","old_object","157","Celery.jpg",".","3","36","1","1110"
"9","9","retrieval","new_object","158","Bus_School.jpg",".",".","36","0","1399"
"9","9","retrieval","new_object","159","Bird_Duck.jpg",".",".","36","0","1102"
"9","9","retrieval","old_object","160","VacuumHose.jpg",".","3","36","1","823"
"9","9","retrieval","new_object","161","AirCompressor.jpg",".",".","37","1","883"
"9","9","retrieval","new_object","162","PagodaModel.jpg",".",".","37","1","1119"
"9","9","retrieval","new_object","163","Oars.jpg",".",".","36","0","876"
"9","9","retrieval","new_object","164","Desk_White.jpg",".",".","36","0","1414"
"9","9","retrieval","new_object","165","Bucket_Halloween.jpg",".",".","37","1","1256"
"9","9","retrieval","new_object","166","Mailbox_Community.jpg",".",".","36","0","718"
"9","9","retrieval","old_object","167","DeepFryer.jpg",".","3","37","0","607"
"9","9","retrieval","new_object","168","PyramidWooden.jpg",".",".","36","0","1223"
"9","9","retrieval","old_object","169","Blueberry.jpg",".","1","36","1","998"
"9","9","retrieval","old_object","170","Canister_Tea.jpg",".","1","37","0","720"
"9","9","retrieval","old_object","171","BrainSagittal.jpg",".","1","36","1","1330"
"9","9","retrieval","old_object","172","Bicycle_Kids.jpg",".","3","37","0","1015"
"9","9","retrieval","new_object","173","Bone.jpg",".",".","37","1","1296"
"9","9","retrieval","old_object","174","Stone_Spa.jpg",".","1","36","1","1054"
"9","9","retrieval","old_object","175","Shoes_Mould.jpg",".","1","37","0","595"
"9","9","retrieval","new_object","176","Aquarium.jpg",".",".","37","1","930"
"9","9","retrieval","old_object","177","Level.jpg",".","3","37","0","1221"
"9","9","retrieval","new_object","178","Weathervane.jpg",".",".","37","1","1303"
"9","9","retrieval","old_object","179","Airplane_Small.jpg",".","3","37","0","713"
"9","9","retrieval","old_object","180","Stick_IceHockey.jpg",".","3","37","0","728"
"9","9","retrieval","old_object","181","DonaldDuck_Toy.jpg",".","3","37","0","709"
"9","9","retrieval","old_object","182","Candleholder_LampShaped.jpg",".","3","37","0","900"
"9","9","retrieval","old_object","183","Paddle_Ball.jpg",".","1","37","0","1140"
"9","9","retrieval","new_object","184","Hat_Colonial.jpg",".",".","37","1","1461"
"9","9","retrieval","new_object","185","TortillaChip.jpg",".",".","37","1","605"
"9","9","retrieval","old_object","186","Clamp_Screw.jpg",".","3","37","0","844"
"9","9","retrieval","new_object","187","MetalDetector.jpg",".",".","37","1","959"
"9","9","retrieval","old_object","188","Paddle_Canoe.jpg",".","1","36","1","1183"
"9","9","retrieval","old_object","189","Bagpipes.jpg",".","3","37","0","949"
"9","9","retrieval","new_object","190","Stool_Metal.jpg",".",".","36","0","1157"
"9","9","retrieval","new_object","191","Mask_Ski.jpg",".",".","36","0","1299"
"9","9","retrieval","old_object","192","Case_CD.jpg",".","1","37","0","1097"
"9","9","retrieval","new_object","193","CarSuspension.jpg",".",".","37","1","930"
"9","9","retrieval","old_object","194","OperaGlasses.jpg",".","3","37","0","1056"
"9","9","retrieval","new_object","195","SolderingWire.jpg",".",".","37","1","911"
"9","9","retrieval","old_object","196","LeafBlower.jpg",".","1","36","1","979"
"9","9","retrieval","old_object","197","Pyramid.jpg",".","1","36","1","1565"
"9","9","retrieval","new_object","199","Hanger.jpg",".",".","36","0","1511"
"9","9","retrieval","old_object","200","CarLighter.jpg",".","3","37","0","927"
"9","9","retrieval","new_object","201","Toy_LambPlushie.jpg",".",".","36","0","1393"
"9","9","retrieval","old_object","202","PumpBreast.jpg",".","3","37","0","870"
"9","9","retrieval","old_object","203","Otoscope.jpg",".","1","37","0","1068"
"9","9","retrieval","new_object","204","Candy_Toffee.jpg",".",".","37","1","1012"
"9","9","retrieval","new_object","205","Can_Oblong.jpg",".",".","37","1","1289"
"9","9","retrieval","old_object","206","Dice.jpg",".","3","37","0","1150"
"9","9","retrieval","new_object","207","Radish.jpg",".",".","36","0","1474"
"9","9","retrieval","new_object","208","Thermometer_Room.jpg",".",".","37","1","850"
"9","9","retrieval","old_object","209","Bowl_Chopsticks.jpg",".","3","37","0","814"
"9","9","retrieval","new_object","210","RAMchip.jpg",".",".","37","1","1020"
"9","9","retrieval","new_object","211","Light_Studio.jpg",".",".","37","1","879"
"9","9","retrieval","new_object","212","Mailbox_Antique.jpg",".",".","37","1","906"
"9","9","retrieval","old_object","213","Desk_Office.jpg",".","1","37","0","622"
"9","9","retrieval","old_object","214","Jars_PetFood.jpg",".","1","37","0","727"
"9","9","retrieval","old_object","215","WaterCooler.jpg",".","1","36","1","1025"
"9","9","retrieval","new_object","216","MechanicalSpring.jpg",".",".","36","0","1586"
"9","9","retrieval","old_object","217","IroningBoard.jpg",".","3","37","0","1308"
"9","9","retrieval","old_object","218","Nail.jpg",".","3","36","1","1111"
"9","9","retrieval","old_object","219","Glasses_Sun.jpg",".","3","36","1","1543"
"9","9","retrieval","old_object","220","TowelRack_Metal.jpg",".","1","36","1","844"
"9","9","retrieval","new_object","221","Gecko.jpg",".",".","36","0","862"
"9","9","retrieval","new_object","222","Hubcap.jpg",".",".","37","1","1195"
"9","9","retrieval","new_object","223","Television.jpg",".",".","37","1","1029"
"9","9","retrieval","new_object","224","Stone_AncientWriting.jpg",".",".","36","0","845"
"9","9","retrieval","old_object","225","Lynx.jpg",".","1","36","1","1074"
"9","9","retrieval","old_object","226","Backhoe.jpg",".","1","36","1","1051"
"9","9","retrieval","new_object","227","PencilCase.jpg",".",".","36","0","1167"
"9","9","retrieval","new_object","228","IceCream_Popsicle.jpg",".",".","36","0","1054"
"9","9","retrieval","old_object","229","RecorderInstrument.jpg",".","3","36","1","1175"
"9","9","retrieval","old_object","230","ClothesDryingRack.jpg",".","3","36","1","735"
"9","9","retrieval","old_object","231","Tray_Metal.jpg",".","1","37","0","1037"
"9","9","retrieval","old_object","232","SaladCaesar.jpg",".","3","36","1","885"
"9","9","retrieval","old_object","233","Toy_Dog.jpg",".","3","36","1","1153"
"9","9","retrieval","new_object","234","Envelope_Manila.jpg",".",".","36","0","1119"
"9","9","retrieval","new_object","235","CoffeeLid.jpg",".",".","37","1","1547"
"9","9","retrieval","new_object","236","Tube_Glue.jpg",".",".","37","1","929"
"9","9","retrieval","new_object","237","Bandage_Adhesive.jpg",".",".","36","0","1253"
"9","9","retrieval","new_object","238","Barometer_Wood.jpg",".",".","0","0","2000"
"9","9","retrieval","new_object","239","Scythe.jpg",".",".","36","0","1203"
"9","9","retrieval","old_object","240","PersonWooden.jpg",".","3","36","1","848"
"9","9","retrieval","old_object","241","Lips_Wax.jpg",".","3","36","1","1188"
"9","9","retrieval","new_object","242","DoubleBass.jpg",".",".","37","1","1203"
"9","9","retrieval","new_object","243","Microwave.jpg",".",".","37","1","839"
"9","9","retrieval","new_object","244","MemoPaperSpike.jpg",".",".","37","1","1101"
"9","9","retrieval","old_object","245","CDstack.jpg",".","3","37","0","752"
"9","9","retrieval","old_object","246","Drum_Ramadan.jpg",".","3","36","1","1565"
"9","9","retrieval","new_object","247","Platter_Vegetables.jpg",".",".","36","0","1112"
"9","9","retrieval","old_object","248","Toy_TrailerAirport.jpg",".","1","37","0","688"
"9","9","retrieval","old_object","249","Helicopter.jpg",".","1","37","0","690"
"9","9","retrieval","old_object","250","Balcony.jpg",".","1","36","1","1251"
"9","9","retrieval","new_object","251","PocketKnife.jpg",".",".","36","0","1117"
"9","9","retrieval","new_object","252","PulleyWooden.jpg",".",".","36","0","769"
"9","9","retrieval","old_object","253","Toy_Taxi.jpg",".","3","37","0","772"
"9","9","retrieval","new_object","254","HairCurler.jpg",".",".","36","0","1374"
"9","9","retrieval","old_object","255","Flashlight.jpg",".","1","36","1","1207"
"9","9","retrieval","old_object","256","Makeup_Bag.jpg",".","3","36","1","918"
"9","9","retrieval","old_object","257","Puffin.jpg",".","1","36","1","1146"
"9","9","retrieval","old_object","258","Bus_DoubleDecker.jpg",".","1","36","1","1577"
"9","9","retrieval","new_object","259","Amp.jpg",".",".","37","1","980"
"9","9","retrieval","old_object","260","Computer_ExpansionCard.jpg",".","1","37","0","759"
"9","9","retrieval","old_object","261","Compressor.jpg",".","1","37","0","808"
"9","9","retrieval","old_object","262","Protractor.jpg",".","3","37","0","657"
"9","9","retrieval","old_object","263","MortarPestle_WhiteMarble.jpg",".","3","36","1","1170"
"9","9","retrieval","new_object","265","Cinnamonroll.jpg",".",".","37","1","1282"
"9","9","retrieval","new_object","266","Mug_Travel.jpg",".",".","37","1","1166"
"9","9","retrieval","old_object","267","Mitt_Blue.jpg",".","3","36","1","996"
"9","9","retrieval","new_object","268","Glass_Beer.jpg",".",".","37","1","1222"
"9","9","retrieval","new_object","269","Wontons.jpg",".",".","37","1","1662"
"9","9","retrieval","new_object","270","FireAlarm.jpg",".",".","37","1","1108"
"9","9","retrieval","new_object","271","Garlic_Whole.jpg",".",".","36","0","865"
"9","9","retrieval","old_object","272","Pretzel_Sticks.jpg",".","3","36","1","1618"
"9","9","retrieval","old_object","273","HairBand.jpg",".","1","37","0","1118"
"9","9","retrieval","new_object","274","Tree_Fir.jpg",".",".","36","0","1570"
"9","9","retrieval","old_object","275","Toy_Bat.jpg",".","3","36","1","883"
"9","9","retrieval","new_object","276","Barometer.jpg",".",".","37","1","943"
"9","9","retrieval","old_object","277","Car_Buggy.jpg",".","3","37","0","948"
"9","9","retrieval","old_object","278","ColoringSet.jpg",".","3","37","0","793"
"9","9","retrieval","old_object","279","Toy_BeadMaze.jpg",".","1","37","0","1685"
"9","9","retrieval","new_object","280","Spatula.jpg",".",".","36","0","1014"
"9","9","retrieval","new_object","281","Bread_Carrot.jpg",".",".","36","0","1052"
"9","9","retrieval","old_object","282","SoapDish.jpg",".","3","36","1","1183"
"9","9","retrieval","old_object","283","FlintIgniter.jpg",".","1","37","0","975"
"9","9","retrieval","old_object","284","Mask_VenetianCat.jpg",".","3","37","0","1431"
"9","9","retrieval","new_object","285","Cup_Bathroom.jpg",".",".","36","0","960"
"9","9","retrieval","old_object","286","Snorkle.jpg",".","3","37","0","820"
"9","9","retrieval","old_object","287","Dog_Bulldog.jpg",".","1","36","1","966"
"9","9","retrieval","old_object","288","WalkieTalkie_Yellow.jpg",".","1","37","0","1280"
"9","9","retrieval","old_object","289","Dropper.jpg",".","3","37","0","959"
"9","9","retrieval","old_object","290","Ruler_Wooden.jpg",".","1","36","1","1195"
"9","9","retrieval","old_object","291","MatchBook.jpg",".","1","36","1","1052"
"9","9","retrieval","old_object","292","LintRemover.jpg",".","3","37","0","1197"
"9","9","retrieval","new_object","293","Arch_Triomphe.jpg",".",".","36","0","1064"
"9","9","retrieval","old_object","294","Tape_Dispenser.jpg",".","1","37","0","1080"
"9","9","retrieval","new_object","295","Lantern_Chinese.jpg",".",".","37","1","1541"
"9","9","retrieval","old_object","296","TowelRack_Brown.jpg",".","1","36","1","1150"
"9","9","retrieval","old_object","297","PaperTowel_Brown.jpg",".","3","36","1","1028"
"9","9","retrieval","new_object","298","Compact_Mirror.jpg",".",".","36","0","1704"
"9","9","retrieval","old_object","299","Scorpion.jpg",".","1","36","1","1301"
"9","9","retrieval","old_object","300","Decoration_ChristmasWhite.jpg",".","1","36","1","1216"
"9","9","retrieval","new_object","301","Canister_Oil.jpg",".",".","36","0","1164"
"9","9","retrieval","new_object","302","Backpack_Suitcase.jpg",".",".","37","1","1416"
"9","9","retrieval","old_object","303","Heater_Outdoor.jpg",".","1","37","0","828"
"9","9","retrieval","old_object","304","Cologne.jpg",".","3","37","0","955"
"9","9","retrieval","old_object","305","Bag_Toiletry.jpg",".","1","36","1","823"
"9","9","retrieval","old_object","306","Match.jpg",".","1","36","1","1064"
"9","9","retrieval","old_object","307","Boat_Colourful.jpg",".","1","36","1","1495"
"9","9","retrieval","old_object","308","Ginger.jpg",".","3","36","1","972"
"9","9","retrieval","new_object","309","Mask_HockeyGoalie.jpg",".",".","37","1","1302"
"9","9","retrieval","new_object","310","Sign_Construction.jpg",".",".","0","0","2000"
"9","9","retrieval","new_object","311","Bread_Roll.jpg",".",".","36","0","975"
"9","9","retrieval","new_object","312","Ladybug.jpg",".",".","36","0","1302"
"9","9","retrieval","new_object","313","SolderingIron.jpg",".",".","37","1","1358"
"9","9","retrieval","new_object","314","Lollipop_Rainbow.jpg",".",".","36","0","1276"
"9","9","retrieval","new_object","315","Bottle_Beer.jpg",".",".","36","0","958"
"9","9","retrieval","new_object","316","Wire_ElectricalSingle.jpg",".",".","36","0","1301"
"9","9","retrieval","old_object","317","Toy_Firetruck.jpg",".","3","36","1","1601"
"9","9","retrieval","new_object","318","Nuts_Pecan.jpg",".",".","36","0","995"
"9","9","retrieval","new_object","319","Toy_Truck.jpg",".",".","37","1","769"
"9","9","retrieval","old_object","320","Notepad.jpg",".","1","36","1","1147"
"9","9","retrieval","old_object","321","Speakers_Theatre.jpg",".","3","36","1","1084"
"9","9","retrieval","old_object","322","EyeChart.jpg",".","3","36","1","1057"
"9","9","retrieval","new_object","323","WateringCan_Antique.jpg",".",".","36","0","1509"
"9","9","retrieval","old_object","324","ComputerKey_Escape.jpg",".","3","36","1","945"
"9","9","retrieval","old_object","325","Sign_SlipperyRoad.jpg",".","","36","1","1029"
"9","9","demographics_block","gender","1",".",".",".","Male","1","70730"
"9","9","demographics_block","age","1",".",".",".","30","1","70730"
"9","9","demographics_block","education","1",".",".",".","15","1","70730"
"9","9","demographics_block","left_right_handed","2",".",".",".","Right","1","18896"
"9","9","demographics_block","raceoption1","2",".",".",".","","1","18896"
"9","9","demographics_block","raceoption2","2",".",".",".","","1","18896"
"9","9","demographics_block","raceoption3","2",".",".",".","","1","18896"
"9","9","demographics_block","raceoption4","2",".",".",".","3","1","18896"
"9","9","demographics_block","raceoption5","2",".",".",".","","1","18896"
"9","9","demographics_block","raceoption6","2",".",".",".","","1","18896"
"9","9","demographics_block","raceoption7","2",".",".",".","","1","18896"
"9","9","demographics_block","raceoption8","2",".",".",".","","1","18896"
"9","9","demographics_block","raceoption9","2",".",".",".","","1","18896"
"9","9","demographics_block","raceother","2",".",".",".","","1","18896"
"9","9","demographics_block","raceother","2",".",".",".","","1","18896"
"9","9","demographics_block","english_language","2",".",".",".","Yes","1","18896"
"9","9","demographics_block","other","2",".",".",".","","1","18896"
"9","9","demographics_block","eyesight","3",".",".",".","No","1","26262"
"9","9","demographics_block","colorblind","3",".",".",".","No","1","26262"
"16","16","encoding","encoding","1","DeepFryer.jpg","3",".","0","0","1000"
"16","16","encoding","encoding","2","VinylRecord.jpg","3",".","36","0","122"
"16","16","encoding","encoding","3","Suitcase.jpg","1",".","36","0","95"
"16","16","encoding","encoding","4","Cologne.jpg","3",".","37","0","62"
"16","16","encoding","encoding","5","DonaldDuck_Toy.jpg","3",".","36","0","57"
"16","16","encoding","encoding","6","Bag_Toiletry.jpg","1",".","36","0","10"
"16","16","encoding","encoding","7","Boat_Colourful.jpg","1",".","36","0","9"
"16","16","encoding","encoding","8","Bucket_WoodenLight.jpg","1",".","36","0","34"
"16","16","encoding","encoding","9","Piano_Upright.jpg","3",".","36","0","83"
"16","16","encoding","encoding","10","Jars_PetFood.jpg","1",".","36","0","101"
"16","16","encoding","encoding","11","RecorderInstrument.jpg","3",".","36","0","8"
"16","16","encoding","encoding","12","MortarPestle_WhiteMarble.jpg","3",".","37","0","79"
"16","16","encoding","encoding","13","Piano_Upright.jpg","3",".","37","0","193"
"16","16","encoding","encoding","14","SaladCaesar.jpg","3",".","37","0","26"
"16","16","encoding","encoding","15","Snowpea.jpg","3",".","36","0","4"
"16","16","encoding","encoding","16","Puffin.jpg","1",".","37","0","81"
"16","16","encoding","encoding","17","IceCubes.jpg","3",".","36","0","941"
"16","16","encoding","encoding","18","Toy_Bat.jpg","3",".","36","0","13"
"16","16","encoding","encoding","19","RecorderInstrument.jpg","3",".","37","0","128"
"16","16","encoding","encoding","20","PersonWooden.jpg","3",".","37","0","17"
"16","16","encoding","encoding","21","Card_TwoSpade.jpg","3",".","36","0","59"
"16","16","encoding","encoding","22","Clamp_Screw.jpg","3",".","36","0","135"
"16","16","encoding","encoding","23","Car_Buggy.jpg","3",".","36","0","145"
"16","16","encoding","encoding","24","Sink_Kitchen.jpg","3",".","36","0","105"
"16","16","encoding","encoding","25","Box_WoodCrate.jpg","1",".","37","0","48"
"16","16","encoding","encoding","26","Ginger.jpg","3",".","36","0","193"
"16","16","encoding","encoding","27","Toy_Dog.jpg","3",".","37","0","103"
"16","16","encoding","encoding","28","NailFiles.jpg","3",".","36","0","24"
"16","16","encoding","encoding","29","Cologne.jpg","3",".","37","0","154"
"16","16","encoding","encoding","30","Tray_Medical.jpg","3",".","37","0","51"
"16","16","encoding","encoding","31","Stick_Stirring.jpg","1",".","36","0","25"
"16","16","encoding","encoding","32","Bicycle_Kids.jpg","3",".","36","0","264"
"16","16","encoding","encoding","33","Lips_Wax.jpg","3",".","36","0","63"
"16","16","encoding","encoding","34","MortarPestle_WhiteMarble.jpg","3",".","36","0","22"
"16","16","encoding","encoding","35","PersonWooden.jpg","3",".","36","0","3"
"16","16","encoding","encoding","36","Shrimp.jpg","3",".","36","0","79"
"16","16","encoding","encoding","37","Toy_Rooster.jpg","3",".","37","0","99"
"16","16","encoding","encoding","38","Box_Cutlery.jpg","3",".","36","0","29"
"16","16","encoding","encoding","39","Suit_Women.jpg","3",".","37","0","175"
"16","16","encoding","encoding","40","Decoration_ChristmasWhite.jpg","1",".","37","0","70"
"16","16","encoding","encoding","41","HairBand.jpg","1",".","37","0","181"
"16","16","encoding","encoding","42","Suit_Women.jpg","3",".","37","0","99"
"16","16","encoding","encoding","43","IroningBoard.jpg","3",".","37","0","347"
"16","16","encoding","encoding","44","Ruler_Wooden.jpg","1",".","37","0","5"
"16","16","encoding","encoding","45","Toy_Taxi.jpg","3",".","37","0","183"
"16","16","encoding","encoding","46","PaperTowel_Brown.jpg","3",".","37","0","102"
"16","16","encoding","encoding","47","Stick_IceHockey.jpg","3",".","36","0","72"
"16","16","encoding","encoding","48","Pouch_Red.jpg","1",".","37","0","71"
"16","16","encoding","encoding","49","Stool_Camping.jpg","3",".","37","0","32"
"16","16","encoding","encoding","50","HairClipper.jpg","3",".","37","0","74"
"16","16","encoding","encoding","51","PaperCutter.jpg","3",".","37","0","131"
"16","16","encoding","encoding","52","Toy_Ladybug.jpg","1",".","36","0","30"
"16","16","encoding","encoding","53","SnowmanDecor.jpg","3",".","36","0","101"
"16","16","encoding","encoding","54","Flashlight.jpg","1",".","36","0","94"
"16","16","encoding","encoding","55","RecorderInstrument.jpg","3",".","36","0","16"
"16","16","encoding","encoding","56","Hat_Feather.jpg","3",".","36","0","168"
"16","16","encoding","encoding","57","Helicopter.jpg","1",".","36","0","69"
"16","16","encoding","encoding","58","Compressor.jpg","1",".","37","0","180"
"16","16","encoding","encoding","59","CarLighter.jpg","3",".","37","0","122"
"16","16","encoding","encoding","60","Mask_VenetianCat.jpg","3",".","37","0","176"
"16","16","encoding","encoding","61","Toy_BeadMaze.jpg","1",".","36","0","61"
"16","16","encoding","encoding","62","TelescopeSpacecraft.jpg","3",".","37","0","9"
"16","16","encoding","encoding","63","Boar.jpg","1",".","37","0","9"
"16","16","encoding","encoding","64","Toy_Bat.jpg","3",".","36","0","120"
"16","16","encoding","encoding","65","Cheeseburger.jpg","1",".","37","0","10"
"16","16","encoding","encoding","67","Card_Deck.jpg","3",".","36","0","809"
"16","16","encoding","encoding","68","CDstack.jpg","3",".","36","0","113"
"16","16","encoding","encoding","69","Speakers_Theatre.jpg","3",".","36","0","17"
"16","16","encoding","encoding","70","Carrot.jpg","1",".","37","0","88"
"16","16","encoding","encoding","71","Sandwich_Ham.jpg","3",".","36","0","145"
"16","16","encoding","encoding","72","Otoscope.jpg","1",".","36","0","44"
"16","16","encoding","encoding","73","TowelRack_Metal.jpg","1",".","36","0","98"
"16","16","encoding","encoding","74","SoapDish.jpg","3",".","36","0","95"
"16","16","encoding","encoding","75","Toy_Firetruck.jpg","3",".","37","0","33"
"16","16","encoding","encoding","76","Ginger.jpg","3",".","36","0","77"
"16","16","encoding","encoding","77","RadioactiveContainer.jpg","1",".","36","0","38"
"16","16","encoding","encoding","78","OperaGlasses.jpg","3",".","36","0","86"
"16","16","encoding","encoding","79","FuzzyDice.jpg","3",".","36","0","44"
"16","16","encoding","encoding","80","PowderProtein.jpg","1",".","36","0","63"
"16","16","encoding","encoding","81","Garlic_Clove.jpg","3",".","36","0","2"
"16","16","encoding","encoding","82","Broccoli.jpg","1",".","36","0","16"
"16","16","encoding","encoding","83","EyeChart.jpg","3",".","37","0","29"
"16","16","encoding","encoding","84","Toy_Firetruck.jpg","3",".","37","0","47"
"16","16","encoding","encoding","85","DonaldDuck_Toy.jpg","3",".","37","0","17"
"16","16","encoding","encoding","86","Dice.jpg","3",".","37","0","28"
"16","16","encoding","encoding","87","MatchBook.jpg","1",".","37","0","0"
"16","16","encoding","encoding","88","Bowl_Chopsticks.jpg","3",".","36","0","197"
"16","16","encoding","encoding","89","Nail.jpg","3",".","36","0","71"
"16","16","encoding","encoding","90","Seeder.jpg","3",".","37","0","8"
"16","16","encoding","encoding","91","Car_Buggy.jpg","3",".","36","0","154"
"16","16","encoding","encoding","92","Shovel_Garden.jpg","1",".","36","0","43"
"16","16","encoding","encoding","93","Backhoe.jpg","1",".","36","0","188"
"16","16","encoding","encoding","94","Speakers_Theatre.jpg","3",".","36","0","110"
"16","16","encoding","encoding","95","SnowmanDecor.jpg","3",".","36","0","53"
"16","16","encoding","encoding","96","Cloud.jpg","3",".","36","0","1"
"16","16","encoding","encoding","97","Sandwich_Ham.jpg","3",".","37","0","176"
"16","16","encoding","encoding","98","Stone_Spa.jpg","1",".","37","0","101"
"16","16","encoding","encoding","99","TelescopeSpacecraft.jpg","3",".","37","0","28"
"16","16","encoding","encoding","100","BrainSagittal.jpg","1",".","37","0","5"
"16","16","encoding","encoding","101","ColoringSet.jpg","3",".","37","0","107"
"16","16","encoding","encoding","102","Toy_Wooden rings.jpg","3",".","36","0","39"
"16","16","encoding","encoding","103","Stool_Camping.jpg","3",".","37","0","4"
"16","16","encoding","encoding","104","Candleholder_LampShaped.jpg","3",".","37","0","102"
"16","16","encoding","encoding","105","FuzzyDice.jpg","3",".","36","0","30"
"16","16","encoding","encoding","106","PumpBreast.jpg","3",".","37","0","171"
"16","16","encoding","encoding","107","Lips_Wax.jpg","3",".","36","0","143"
"16","16","encoding","encoding","108","Canister_Tea.jpg","1",".","36","0","50"
"16","16","encoding","encoding","109","Pyramid.jpg","1",".","36","0","40"
"16","16","encoding","encoding","110","Dropper.jpg","3",".","37","0","30"
"16","16","encoding","encoding","111","Sphinx.jpg","1",".","36","0","199"
"16","16","encoding","encoding","112","Ginger.jpg","3",".","37","0","186"
"16","16","encoding","encoding","113","WalkieTalkie_Yellow.jpg","1",".","37","0","102"
"16","16","encoding","encoding","114","Snowpea.jpg","3",".","36","0","30"
"16","16","encoding","encoding","115","Pretzel_Sticks.jpg","3",".","36","0","5"
"16","16","encoding","encoding","116","Celery.jpg","3",".","36","0","4"
"16","16","encoding","encoding","117","Toy_Dog.jpg","3",".","37","0","28"
"16","16","encoding","encoding","118","NailFiles.jpg","3",".","37","0","47"
"16","16","encoding","encoding","119","Toy_Firetruck.jpg","3",".","36","0","108"
"16","16","encoding","encoding","120","Mitt_Blue.jpg","3",".","36","0","85"
"16","16","encoding","encoding","121","Ostrich.jpg","1",".","36","0","18"
"16","16","encoding","encoding","122","LintRemover.jpg","3",".","36","0","129"
"16","16","encoding","encoding","123","Nail.jpg","3",".","36","0","111"
"16","16","encoding","encoding","124","LeafBlower.jpg","1",".","37","0","51"
"16","16","encoding","encoding","125","Piano_Upright.jpg","3",".","36","0","1"
