"group","subject","blockcode","trialcode","trialnum","stimulus","encoding_condition","old_object_condition","response","correct","latency"
"426890677","4","encoding","encoding","1","A21.jpg","3",".","0","0","1000"
"426890677","4","encoding","encoding","2","B53.jpg","1",".","0","0","1000"
"426890677","4","encoding","encoding","3","A63.jpg","3",".","0","0","1000"
"426890677","4","encoding","encoding","4","A7.jpg","3",".","0","0","1000"
"426890677","4","encoding","encoding","5","A22.jpg","3",".","36","0","392"
"426890677","4","encoding","encoding","6","B61.jpg","1",".","37","0","0"
"426890677","4","encoding","encoding","7","A14.jpg","3",".","0","0","1000"
"426890677","4","encoding","encoding","8","A62.jpg","3",".","37","0","216"
"426890677","4","encoding","encoding","9","B8.jpg","1",".","0","0","1000"
"426890677","4","encoding","encoding","10","A5.jpg","3",".","37","0","120"
"426890677","4","encoding","encoding","11","A9.jpg","3",".","0","0","1000"
"426890677","4","encoding","encoding","12","A33.jpg","3",".","37","0","0"
"426890677","4","encoding","encoding","13","B33.jpg","1",".","37","0","0"
"426890677","4","encoding","encoding","14","A56.jpg","3",".","0","0","1000"
"426890677","4","encoding","encoding","15","A8.jpg","3",".","37","0","391"
"426890677","4","encoding","encoding","16","A48.jpg","3",".","37","0","0"
"426890677","4","encoding","encoding","17","A26.jpg","3",".","37","0","887"
"426890677","4","encoding","encoding","18","A34.jpg","3",".","36","0","505"
"426890677","4","encoding","encoding","19","A2.jpg","3",".","37","0","530"
"426890677","4","encoding","encoding","20","A52.jpg","3",".","37","0","0"
"426890677","4","encoding","encoding","21","A27.jpg","3",".","0","0","1000"
"426890677","4","encoding","encoding","22","A42.jpg","3",".","37","0","960"
"426890677","4","encoding","encoding","23","A9.jpg","3",".","37","0","801"
"426890677","4","encoding","encoding","24","A79.jpg","3",".","0","0","1000"
"426890677","4","encoding","encoding","25","B36.jpg","1",".","37","0","519"
"426890677","4","encoding","encoding","26","A46.jpg","3",".","37","0","0"
"426890677","4","encoding","encoding","27","A39.jpg","3",".","0","0","1000"
"426890677","4","encoding","encoding","28","A71.jpg","3",".","37","0","4294967295"
"426890677","4","encoding","encoding","29","A65.jpg","3",".","0","0","1000"
"426890677","4","encoding","encoding","30","A37.jpg","3",".","37","0","255"
"426890677","4","encoding","encoding","31","B76.jpg","1",".","37","0","584"
"426890677","4","encoding","encoding","32","A65.jpg","3",".","37","0","832"
"426890677","4","encoding","encoding","33","B13.jpg","1",".","0","0","1000"
"426890677","4","encoding","encoding","34","A10.jpg","3",".","0","0","1000"
"426890677","4","encoding","encoding","35","A68.jpg","3",".","37","0","404"
"426890677","4","encoding","encoding","36","A49.jpg","3",".","37","0","0"
"426890677","4","encoding","encoding","37","A36.jpg","3",".","37","0","984"
"426890677","4","encoding","encoding","38","A50.jpg","3",".","37","0","975"
"426890677","4","encoding","encoding","39","B24.jpg","1",".","0","0","1000"
"426890677","4","encoding","encoding","40","B9.jpg","1",".","37","0","0"
"426890677","4","encoding","encoding","41","A50.jpg","3",".","37","0","113"
"426890677","4","encoding","encoding","42","A25.jpg","3",".","37","0","0"
"426890677","4","encoding","encoding","43","A34.jpg","3",".","37","0","4294967295"
"426890677","4","encoding","encoding","44","A64.jpg","3",".","0","0","1000"
"426890677","4","encoding","encoding","45","A74.jpg","3",".","0","0","1000"
"426890677","4","encoding","encoding","46","A21.jpg","3",".","0","0","1000"
"426890677","4","encoding","encoding","47","A15.jpg","3",".","37","0","725"
"426890677","4","encoding","encoding","48","A32.jpg","3",".","37","0","707"
"426890677","4","encoding","encoding","49","B44.jpg","1",".","0","0","1000"
"426890677","4","encoding","encoding","50","A13.jpg","3",".","37","0","868"
"426890677","4","encoding","encoding","51","B70.jpg","1",".","0","0","1000"
"426890677","4","encoding","encoding","52","B39.jpg","1",".","0","0","1000"
"426890677","4","encoding","encoding","53","A43.jpg","3",".","37","0","844"
"426890677","4","encoding","encoding","54","B57.jpg","1",".","0","0","1000"
"426890677","4","encoding","encoding","55","A74.jpg","3",".","37","0","110"
"426890677","4","encoding","encoding","56","B46.jpg","1",".","0","0","1000"
"426890677","4","encoding","encoding","57","A18.jpg","3",".","36","0","79"
"426890677","4","encoding","encoding","58","A62.jpg","3",".","0","0","1000"
"426890677","4","encoding","encoding","59","B50.jpg","1",".","0","0","1000"
"426890677","4","encoding","encoding","60","A20.jpg","3",".","37","0","126"
"426890677","4","encoding","encoding","61","A19.jpg","3",".","36","0","312"
"426890677","4","encoding","encoding","62","A33.jpg","3",".","0","0","1000"
"426890677","4","encoding","encoding","63","A32.jpg","3",".","0","0","1000"
"426890677","4","encoding","encoding","64","A53.jpg","3",".","37","0","0"
"426890677","4","encoding","encoding","65","B34.jpg","1",".","37","0","114"
"426890677","4","encoding","encoding","67","A78.jpg","3",".","0","0","1000"
"426890677","4","encoding","encoding","68","A30.jpg","3",".","0","0","1000"
"426890677","4","encoding","encoding","69","A72.jpg","3",".","0","0","1000"
"426890677","4","encoding","encoding","70","A50.jpg","3",".","37","0","0"
"426890677","4","encoding","encoding","71","B21.jpg","1",".","37","0","4294967295"
"426890677","4","encoding","encoding","72","A67.jpg","3",".","37","0","528"
"426890677","4","encoding","encoding","73","B79.jpg","1",".","37","0","378"
"426890677","4","encoding","encoding","74","A67.jpg","3",".","0","0","1000"
"426890677","4","encoding","encoding","75","A46.jpg","3",".","0","0","1000"
"426890677","4","encoding","encoding","76","B42.jpg","1",".","0","0","1000"
"426890677","4","encoding","encoding","77","A76.jpg","3",".","37","0","496"
"426890677","4","encoding","encoding","78","B64.jpg","1",".","37","0","765"
"426890677","4","encoding","encoding","79","A51.jpg","3",".","0","0","1000"
"426890677","4","encoding","encoding","80","A12.jpg","3",".","0","0","1000"
"426890677","4","encoding","encoding","81","A41.jpg","3",".","37","0","0"
"426890677","4","encoding","encoding","82","A43.jpg","3",".","0","0","1000"
"426890677","4","encoding","encoding","83","A42.jpg","3",".","36","0","212"
"426890677","4","encoding","encoding","84","A38.jpg","3",".","37","0","109"
"426890677","4","encoding","encoding","85","B77.jpg","1",".","37","0","970"
"426890677","4","encoding","encoding","86","A1.jpg","3",".","0","0","1000"
"426890677","4","encoding","encoding","87","B49.jpg","1",".","37","0","108"
"426890677","4","encoding","encoding","88","B25.jpg","1",".","36","0","237"
"426890677","4","encoding","encoding","89","A64.jpg","3",".","0","0","1000"
"426890677","4","encoding","encoding","90","A60.jpg","3",".","0","0","1000"
"426890677","4","encoding","encoding","91","B7.jpg","1",".","37","0","113"
"426890677","4","encoding","encoding","92","A32.jpg","3",".","0","0","1000"
"426890677","4","encoding","encoding","93","A59.jpg","3",".","37","0","673"
"426890677","4","encoding","encoding","94","A70.jpg","3",".","0","0","1000"
"426890677","4","encoding","encoding","95","A69.jpg","3",".","0","0","1000"
"426890677","4","encoding","encoding","96","B78.jpg","1",".","37","0","539"
"426890677","4","encoding","encoding","97","A0.jpg","3",".","0","0","1000"
"426890677","4","encoding","encoding","98","A63.jpg","3",".","37","0","530"
"426890677","4","encoding","encoding","99","A66.jpg","3",".","0","0","1000"
"426890677","4","encoding","encoding","100","A2.jpg","3",".","37","0","792"
"426890677","4","encoding","encoding","101","B67.jpg","1",".","37","0","855"
"426890677","4","encoding","encoding","102","A77.jpg","3",".","0","0","1000"
"426890677","4","encoding","encoding","103","A5.jpg","3",".","0","0","1000"
"426890677","4","encoding","encoding","104","A35.jpg","3",".","0","0","1000"
"426890677","4","encoding","encoding","105","B22.jpg","1",".","36","0","103"
"426890677","4","encoding","encoding","106","A55.jpg","3",".","0","0","1000"
"426890677","4","encoding","encoding","107","B63.jpg","1",".","37","0","818"
"426890677","4","encoding","encoding","108","B17.jpg","1",".","0","0","1000"
"426890677","4","encoding","encoding","109","A72.jpg","3",".","37","0","0"
"426890677","4","encoding","encoding","110","A19.jpg","3",".","0","0","1000"
"426890677","4","encoding","encoding","111","A6.jpg","3",".","0","0","1000"
"426890677","4","encoding","encoding","112","A34.jpg","3",".","37","0","213"
"426890677","4","encoding","encoding","113","B60.jpg","1",".","37","0","0"
"426890677","4","encoding","encoding","114","A44.jpg","3",".","0","0","1000"
"426890677","4","encoding","encoding","115","B20.jpg","1",".","37","0","732"
"426890677","4","encoding","encoding","116","A39.jpg","3",".","0","0","1000"
"426890677","4","encoding","encoding","117","A15.jpg","3",".","0","0","1000"
"426890677","4","encoding","encoding","118","A23.jpg","3",".","0","0","1000"
"426890677","4","encoding","encoding","119","A31.jpg","3",".","0","0","1000"
"426890677","4","encoding","encoding","120","A64.jpg","3",".","37","0","212"
"426890677","4","encoding","encoding","121","A17.jpg","3",".","36","0","754"
"426890677","4","encoding","encoding","122","A36.jpg","3",".","0","0","1000"
"426890677","4","encoding","encoding","123","A10.jpg","3",".","0","0","1000"
"426890677","4","encoding","encoding","124","A40.jpg","3",".","36","0","935"
"426890677","4","encoding","encoding","125","A72.jpg","3",".","0","0","1000"
"426890677","4","encoding","encoding","126","B0.jpg","1",".","0","0","1000"
"426890677","4","encoding","encoding","127","A66.jpg","3",".","37","0","684"
"426890677","4","encoding","encoding","128","A17.jpg","3",".","37","0","0"
"426890677","4","encoding","encoding","129","A21.jpg","3",".","0","0","1000"
"426890677","4","encoding","encoding","130","A57.jpg","3",".","37","0","417"
"426890677","4","encoding","encoding","131","A11.jpg","3",".","0","0","1000"
"426890677","4","encoding","encoding","133","A66.jpg","3",".","0","0","1000"
"426890677","4","encoding","encoding","134","B31.jpg","1",".","37","0","896"
"426890677","4","encoding","encoding","135","A3.jpg","3",".","37","0","900"
"426890677","4","encoding","encoding","136","A17.jpg","3",".","0","0","1000"
"426890677","4","encoding","encoding","137","B35.jpg","1",".","37","0","789"
"426890677","4","encoding","encoding","138","A54.jpg","3",".","0","0","1000"
"426890677","4","encoding","encoding","139","A48.jpg","3",".","37","0","227"
"426890677","4","encoding","encoding","140","B54.jpg","1",".","37","0","599"
"426890677","4","encoding","encoding","141","A12.jpg","3",".","0","0","1000"
"426890677","4","encoding","encoding","142","A73.jpg","3",".","37","0","316"
"426890677","4","encoding","encoding","143","A61.jpg","3",".","37","0","465"
"426890677","4","encoding","encoding","144","A37.jpg","3",".","37","0","989"
"426890677","4","encoding","encoding","145","A0.jpg","3",".","37","0","236"
"426890677","4","encoding","encoding","146","B68.jpg","1",".","0","0","1000"
"426890677","4","encoding","encoding","147","B55.jpg","1",".","37","0","941"
"426890677","4","encoding","encoding","148","A24.jpg","3",".","37","0","795"
"426890677","4","encoding","encoding","149","A14.jpg","3",".","0","0","1000"
"426890677","4","encoding","encoding","150","A4.jpg","3",".","0","0","1000"
"426890677","4","encoding","encoding","151","A39.jpg","3",".","37","0","677"
"426890677","4","encoding","encoding","152","A71.jpg","3",".","0","0","1000"
"426890677","4","encoding","encoding","153","A76.jpg","3",".","37","0","980"
"426890677","4","encoding","encoding","154","A11.jpg","3",".","37","0","0"
"426890677","4","encoding","encoding","155","A7.jpg","3",".","0","0","1000"
"426890677","4","encoding","encoding","156","A12.jpg","3",".","37","0","0"
"426890677","4","encoding","encoding","157","A25.jpg","3",".","36","0","0"
"426890677","4","encoding","encoding","158","A0.jpg","3",".","37","0","512"
"426890677","4","encoding","encoding","159","A22.jpg","3",".","37","0","0"
"426890677","4","encoding","encoding","160","A45.jpg","3",".","0","0","1000"
"426890677","4","encoding","encoding","161","B14.jpg","1",".","0","0","1000"
"426890677","4","encoding","encoding","162","B16.jpg","1",".","37","0","561"
"426890677","4","encoding","encoding","163","B73.jpg","1",".","37","0","0"
"426890677","4","encoding","encoding","164","A63.jpg","3",".","36","0","4294967295"
"426890677","4","encoding","encoding","165","A1.jpg","3",".","0","0","1000"
"426890677","4","encoding","encoding","166","A41.jpg","3",".","37","0","0"
"426890677","4","encoding","encoding","167","B62.jpg","1",".","37","0","798"
"426890677","4","encoding","encoding","168","A71.jpg","3",".","37","0","898"
"426890677","4","encoding","encoding","169","B6.jpg","1",".","0","0","1000"
"426890677","4","encoding","encoding","170","A77.jpg","3",".","37","0","971"
"426890677","4","encoding","encoding","171","A60.jpg","3",".","37","0","590"
"426890677","4","encoding","encoding","172","A76.jpg","3",".","0","0","1000"
"426890677","4","encoding","encoding","173","A58.jpg","3",".","36","0","556"
"426890677","4","encoding","encoding","174","A35.jpg","3",".","0","0","1000"
"426890677","4","encoding","encoding","175","A52.jpg","3",".","0","0","1000"
"426890677","4","encoding","encoding","176","B48.jpg","1",".","0","0","1000"
"426890677","4","encoding","encoding","177","A45.jpg","3",".","0","0","1000"
"426890677","4","encoding","encoding","178","A55.jpg","3",".","37","0","4294967295"
"426890677","4","encoding","encoding","179","A62.jpg","3",".","37","0","0"
"426890677","4","encoding","encoding","180","A20.jpg","3",".","0","0","1000"
"426890677","4","encoding","encoding","181","A1.jpg","3",".","37","0","572"
"426890677","4","encoding","encoding","182","A6.jpg","3",".","0","0","1000"
"426890677","4","encoding","encoding","183","A44.jpg","3",".","0","0","1000"
"426890677","4","encoding","encoding","184","A75.jpg","3",".","36","0","0"
"426890677","4","encoding","encoding","185","A70.jpg","3",".","0","0","1000"
"426890677","4","encoding","encoding","186","A16.jpg","3",".","0","0","1000"
"426890677","4","encoding","encoding","187","A47.jpg","3",".","37","0","332"
"426890677","4","encoding","encoding","188","A78.jpg","3",".","0","0","1000"
"426890677","4","encoding","encoding","189","A31.jpg","3",".","0","0","1000"
"426890677","4","encoding","encoding","190","A15.jpg","3",".","0","0","1000"
"426890677","4","encoding","encoding","191","A24.jpg","3",".","0","0","1000"
"426890677","4","encoding","encoding","192","A49.jpg","3",".","37","0","0"
"426890677","4","encoding","encoding","193","A78.jpg","3",".","37","0","0"
"426890677","4","encoding","encoding","194","B56.jpg","1",".","0","0","1000"
"426890677","4","encoding","encoding","195","A38.jpg","3",".","0","0","1000"
"426890677","4","encoding","encoding","196","A9.jpg","3",".","37","0","355"
"426890677","4","encoding","encoding","197","B11.jpg","1",".","0","0","1000"
"426890677","4","encoding","encoding","199","A40.jpg","3",".","0","0","1000"
"426890677","4","encoding","encoding","200","A35.jpg","3",".","0","0","1000"
"426890677","4","encoding","encoding","201","A22.jpg","3",".","0","0","1000"
"426890677","4","encoding","encoding","202","B45.jpg","1",".","37","0","0"
"426890677","4","encoding","encoding","203","A4.jpg","3",".","0","0","1000"
"426890677","4","encoding","encoding","204","A53.jpg","3",".","37","0","0"
"426890677","4","encoding","encoding","205","A54.jpg","3",".","0","0","1000"
"426890677","4","encoding","encoding","206","A55.jpg","3",".","37","0","0"
"426890677","4","encoding","encoding","207","A13.jpg","3",".","0","0","1000"
"426890677","4","encoding","encoding","208","A27.jpg","3",".","0","0","1000"
"426890677","4","encoding","encoding","209","B29.jpg","1",".","0","0","1000"
"426890677","4","encoding","encoding","210","A61.jpg","3",".","37","0","117"
"426890677","4","encoding","encoding","211","A73.jpg","3",".","37","0","516"
"426890677","4","encoding","encoding","212","A65.jpg","3",".","37","0","607"
"426890677","4","encoding","encoding","213","B65.jpg","1",".","37","0","0"
"426890677","4","encoding","encoding","214","A56.jpg","3",".","37","0","4294967295"
"426890677","4","encoding","encoding","215","A70.jpg","3",".","0","0","1000"
"426890677","4","encoding","encoding","216","A33.jpg","3",".","0","0","1000"
"426890677","4","encoding","encoding","217","B43.jpg","1",".","37","0","506"
"426890677","4","encoding","encoding","218","A29.jpg","3",".","37","0","296"
"426890677","4","encoding","encoding","219","B19.jpg","1",".","37","0","852"
"426890677","4","encoding","encoding","220","A69.jpg","3",".","0","0","1000"
"426890677","4","encoding","encoding","221","B30.jpg","1",".","37","0","0"
"426890677","4","encoding","encoding","222","A16.jpg","3",".","37","0","105"
"426890677","4","encoding","encoding","223","A41.jpg","3",".","37","0","0"
"426890677","4","encoding","encoding","224","A44.jpg","3",".","0","0","1000"
"426890677","4","encoding","encoding","225","A14.jpg","3",".","37","0","116"
"426890677","4","encoding","encoding","226","A30.jpg","3",".","0","0","1000"
"426890677","4","encoding","encoding","227","A59.jpg","3",".","37","0","0"
"426890677","4","encoding","encoding","228","A47.jpg","3",".","0","0","1000"
"426890677","4","encoding","encoding","229","A52.jpg","3",".","0","0","1000"
"426890677","4","encoding","encoding","230","A68.jpg","3",".","0","0","1000"
"426890677","4","encoding","encoding","231","B2.jpg","1",".","37","0","0"
"426890677","4","encoding","encoding","232","B41.jpg","1",".","37","0","109"
"426890677","4","encoding","encoding","233","A48.jpg","3",".","0","0","1000"
"426890677","4","encoding","encoding","234","B23.jpg","1",".","37","0","0"
"426890677","4","encoding","encoding","235","A16.jpg","3",".","0","0","1000"
"426890677","4","encoding","encoding","236","A51.jpg","3",".","37","0","975"
"426890677","4","encoding","encoding","237","A26.jpg","3",".","0","0","1000"
"426890677","4","encoding","encoding","238","B52.jpg","1",".","37","0","562"
"426890677","4","encoding","encoding","239","A2.jpg","3",".","37","0","0"
"426890677","4","encoding","encoding","240","A59.jpg","3",".","0","0","1000"
"426890677","4","encoding","encoding","241","B26.jpg","1",".","37","0","442"
"426890677","4","encoding","encoding","242","A68.jpg","3",".","37","0","0"
"426890677","4","encoding","encoding","243","A6.jpg","3",".","0","0","1000"
"426890677","4","encoding","encoding","244","A43.jpg","3",".","37","0","0"
"426890677","4","encoding","encoding","245","A8.jpg","3",".","37","0","0"
"426890677","4","encoding","encoding","246","B51.jpg","1",".","0","0","1000"
"426890677","4","encoding","encoding","247","B1.jpg","1",".","36","0","845"
"426890677","4","encoding","encoding","248","A20.jpg","3",".","0","0","1000"
"426890677","4","encoding","encoding","249","A18.jpg","3",".","0","0","1000"
"426890677","4","encoding","encoding","250","A3.jpg","3",".","36","0","804"
"426890677","4","encoding","encoding","251","A58.jpg","3",".","37","0","223"
"426890677","4","encoding","encoding","252","A31.jpg","3",".","0","0","1000"
"426890677","4","encoding","encoding","253","A60.jpg","3",".","0","0","1000"
"426890677","4","encoding","encoding","254","A73.jpg","3",".","37","0","226"
"426890677","4","encoding","encoding","255","A74.jpg","3",".","0","0","1000"
"426890677","4","encoding","encoding","256","A4.jpg","3",".","37","0","0"
"426890677","4","encoding","encoding","257","A24.jpg","3",".","37","0","714"
"426890677","4","encoding","encoding","258","A30.jpg","3",".","0","0","1000"
"426890677","4","encoding","encoding","259","A79.jpg","3",".","37","0","335"
"426890677","4","encoding","encoding","260","B10.jpg","1",".","0","0","1000"
"426890677","4","encoding","encoding","261","A46.jpg","3",".","0","0","1000"
"426890677","4","encoding","encoding","262","A18.jpg","3",".","37","0","0"
"426890677","4","encoding","encoding","263","A67.jpg","3",".","36","0","852"
"426890677","4","encoding","encoding","265","A23.jpg","3",".","0","0","1000"
"426890677","4","encoding","encoding","266","B74.jpg","1",".","0","0","1000"
"426890677","4","encoding","encoding","267","B37.jpg","1",".","0","0","1000"
"426890677","4","encoding","encoding","268","B27.jpg","1",".","0","0","1000"
"426890677","4","encoding","encoding","269","A56.jpg","3",".","37","0","342"
"426890677","4","encoding","encoding","270","A45.jpg","3",".","0","0","1000"
"426890677","4","encoding","encoding","271","B47.jpg","1",".","0","0","1000"
"426890677","4","encoding","encoding","272","A77.jpg","3",".","37","0","582"
"426890677","4","encoding","encoding","273","A28.jpg","3",".","37","0","341"
"426890677","4","encoding","encoding","274","A53.jpg","3",".","37","0","0"
"426890677","4","encoding","encoding","275","B58.jpg","1",".","0","0","1000"
"426890677","4","encoding","encoding","276","A75.jpg","3",".","0","0","1000"
"426890677","4","encoding","encoding","277","B66.jpg","1",".","0","0","1000"
"426890677","4","encoding","encoding","278","A79.jpg","3",".","0","0","1000"
"426890677","4","encoding","encoding","279","A75.jpg","3",".","0","0","1000"
"426890677","4","encoding","encoding","280","A42.jpg","3",".","37","0","4294967295"
"426890677","4","encoding","encoding","281","A8.jpg","3",".","37","0","4294967295"
"426890677","4","encoding","encoding","282","A57.jpg","3",".","0","0","1000"
"426890677","4","encoding","encoding","283","A40.jpg","3",".","37","0","805"
"426890677","4","encoding","encoding","284","A57.jpg","3",".","37","0","205"
"426890677","4","encoding","encoding","285","A7.jpg","3",".","37","0","905"
"426890677","4","encoding","encoding","286","B5.jpg","1",".","36","0","0"
"426890677","4","encoding","encoding","287","A27.jpg","3",".","0","0","1000"
"426890677","4","encoding","encoding","288","A51.jpg","3",".","0","0","1000"
"426890677","4","encoding","encoding","289","A61.jpg","3",".","37","0","0"
"426890677","4","encoding","encoding","290","B3.jpg","1",".","37","0","776"
"426890677","4","encoding","encoding","291","A36.jpg","3",".","0","0","1000"
"426890677","4","encoding","encoding","292","A28.jpg","3",".","0","0","1000"
"426890677","4","encoding","encoding","293","A58.jpg","3",".","37","0","701"
"426890677","4","encoding","encoding","294","B72.jpg","1",".","0","0","1000"
"426890677","4","encoding","encoding","295","A69.jpg","3",".","0","0","1000"
"426890677","4","encoding","encoding","296","B38.jpg","1",".","37","0","0"
"426890677","4","encoding","encoding","297","A54.jpg","3",".","0","0","1000"
"426890677","4","encoding","encoding","298","A13.jpg","3",".","37","0","130"
"426890677","4","encoding","encoding","299","A49.jpg","3",".","0","0","1000"
"426890677","4","encoding","encoding","300","A37.jpg","3",".","37","0","838"
"426890677","4","encoding","encoding","301","A28.jpg","3",".","0","0","1000"
"426890677","4","encoding","encoding","302","B18.jpg","1",".","0","0","1000"
"426890677","4","encoding","encoding","303","A29.jpg","3",".","37","0","994"
"426890677","4","encoding","encoding","304","B32.jpg","1",".","0","0","1000"
"426890677","4","encoding","encoding","305","B12.jpg","1",".","0","0","1000"
"426890677","4","encoding","encoding","306","B69.jpg","1",".","0","0","1000"
"426890677","4","encoding","encoding","307","A23.jpg","3",".","37","0","0"
"426890677","4","encoding","encoding","308","B75.jpg","1",".","37","0","630"
"426890677","4","encoding","encoding","309","A26.jpg","3",".","37","0","781"
"426890677","4","encoding","encoding","310","B4.jpg","1",".","0","0","1000"
"426890677","4","encoding","encoding","311","A19.jpg","3",".","0","0","1000"
"426890677","4","encoding","encoding","312","B40.jpg","1",".","36","0","0"
"426890677","4","encoding","encoding","313","A10.jpg","3",".","0","0","1000"
"426890677","4","encoding","encoding","314","B71.jpg","1",".","37","0","0"
"426890677","4","encoding","encoding","315","A38.jpg","3",".","0","0","1000"
"426890677","4","encoding","encoding","316","A11.jpg","3",".","0","0","1000"
"426890677","4","encoding","encoding","317","A29.jpg","3",".","37","0","0"
"426890677","4","encoding","encoding","318","A25.jpg","3",".","0","0","1000"
"426890677","4","encoding","encoding","319","A47.jpg","3",".","37","0","941"
"426890677","4","encoding","encoding","320","A5.jpg","3",".","0","0","1000"
"426890677","4","encoding","encoding","321","B28.jpg","1",".","37","0","230"
"426890677","4","encoding","encoding","322","B59.jpg","1",".","37","0","0"
"426890677","4","encoding","encoding","323","A3.jpg","3",".","0","0","1000"
"426890677","4","encoding","encoding","324","B15.jpg","1",".","0","0","1000"
"426890677","4","encoding","encoding","325","A21.jpg","",".","0","0","1000"
"426890677","4","retrieval","old_object","1","B47.jpg",".","1","0","0","2000"
"426890677","4","retrieval","old_object","2","A40.jpg",".","3","0","0","2000"
"426890677","4","retrieval","old_object","3","B70.jpg",".","1","37","0","4294967295"
"426890677","4","retrieval","new_object","4","D52.jpg",".",".","0","0","2000"
"426890677","4","retrieval","old_object","5","A25.jpg",".","3","0","0","2000"
"426890677","4","retrieval","old_object","6","B44.jpg",".","1","36","1","1170"
"426890677","4","retrieval","new_object","7","C35.jpg",".",".","0","0","2000"
"426890677","4","retrieval","new_object","8","C10.jpg",".",".","37","1","1233"
"426890677","4","retrieval","old_object","9","A20.jpg",".","3","37","0","559"
"426890677","4","retrieval","new_object","10","C78.jpg",".",".","36","0","0"
"426890677","4","retrieval","old_object","11","B22.jpg",".","1","0","0","2000"
"426890677","4","retrieval","new_object","12","C15.jpg",".",".","37","1","1003"
"426890677","4","retrieval","new_object","13","C62.jpg",".",".","37","1","912"
"426890677","4","retrieval","new_object","14","D6.jpg",".",".","37","1","513"
"426890677","4","retrieval","new_object","15","D69.jpg",".",".","0","0","2000"
"426890677","4","retrieval","new_object","16","C61.jpg",".",".","37","1","1395"
"426890677","4","retrieval","new_object","17","D7.jpg",".",".","37","1","470"
"426890677","4","retrieval","old_object","18","B6.jpg",".","1","37","0","0"
"426890677","4","retrieval","old_object","19","B25.jpg",".","1","37","0","1133"
"426890677","4","retrieval","old_object","20","A72.jpg",".","3","37","0","325"
"426890677","4","retrieval","old_object","21","A78.jpg",".","3","37","0","4294967295"
"426890677","4","retrieval","old_object","22","A44.jpg",".","3","0","0","2000"
"426890677","4","retrieval","old_object","23","A57.jpg",".","3","37","0","1426"
"426890677","4","retrieval","new_object","24","D8.jpg",".",".","37","1","1986"
"426890677","4","retrieval","old_object","25","A24.jpg",".","3","36","1","1820"
"426890677","4","retrieval","old_object","26","B16.jpg",".","1","0","0","2000"
"426890677","4","retrieval","old_object","27","B60.jpg",".","1","37","0","0"
"426890677","4","retrieval","new_object","28","C2.jpg",".",".","0","0","2000"
"426890677","4","retrieval","new_object","29","D46.jpg",".",".","37","1","1912"
"426890677","4","retrieval","new_object","30","C33.jpg",".",".","37","1","1197"
"426890677","4","retrieval","old_object","31","B55.jpg",".","1","37","0","1482"
"426890677","4","retrieval","old_object","32","A49.jpg",".","3","37","0","973"
"426890677","4","retrieval","old_object","33","B76.jpg",".","1","36","1","4294967295"
"426890677","4","retrieval","old_object","34","B27.jpg",".","1","36","1","1845"
"426890677","4","retrieval","new_object","35","D63.jpg",".",".","37","1","1636"
"426890677","4","retrieval","old_object","36","B32.jpg",".","1","37","0","1604"
"426890677","4","retrieval","old_object","37","A59.jpg",".","3","37","0","1948"
"426890677","4","retrieval","new_object","38","C67.jpg",".",".","36","0","0"
"426890677","4","retrieval","old_object","39","B1.jpg",".","1","0","0","2000"
"426890677","4","retrieval","new_object","40","C48.jpg",".",".","37","1","1308"
"426890677","4","retrieval","old_object","41","A54.jpg",".","3","0","0","2000"
"426890677","4","retrieval","old_object","42","A79.jpg",".","3","37","0","4294967295"
"426890677","4","retrieval","new_object","43","C31.jpg",".",".","0","0","2000"
"426890677","4","retrieval","new_object","44","D73.jpg",".",".","37","1","1123"
"426890677","4","retrieval","old_object","45","A42.jpg",".","3","37","0","1685"
"426890677","4","retrieval","old_object","46","B23.jpg",".","1","36","1","1554"
"426890677","4","retrieval","old_object","47","B43.jpg",".","1","0","0","2000"
"426890677","4","retrieval","new_object","48","C34.jpg",".",".","36","0","0"
"426890677","4","retrieval","new_object","49","D2.jpg",".",".","37","1","1027"
"426890677","4","retrieval","new_object","50","D70.jpg",".",".","0","0","2000"
"426890677","4","retrieval","old_object","51","A22.jpg",".","3","37","0","341"
"426890677","4","retrieval","old_object","52","A74.jpg",".","3","0","0","2000"
"426890677","4","retrieval","new_object","53","C56.jpg",".",".","36","0","119"
"426890677","4","retrieval","new_object","54","D16.jpg",".",".","37","1","1686"
"426890677","4","retrieval","old_object","55","B0.jpg",".","1","0","0","2000"
"426890677","4","retrieval","new_object","56","D23.jpg",".",".","37","1","1781"
"426890677","4","retrieval","old_object","57","A28.jpg",".","3","0","0","2000"
"426890677","4","retrieval","old_object","58","A65.jpg",".","3","36","1","1469"
"426890677","4","retrieval","new_object","59","D15.jpg",".",".","36","0","1954"
"426890677","4","retrieval","old_object","60","A4.jpg",".","3","0","0","2000"
"426890677","4","retrieval","old_object","61","B3.jpg",".","1","36","1","1597"
"426890677","4","retrieval","new_object","62","C63.jpg",".",".","0","0","2000"
"426890677","4","retrieval","new_object","63","C24.jpg",".",".","0","0","2000"
"426890677","4","retrieval","old_object","64","B67.jpg",".","1","36","1","857"
"426890677","4","retrieval","old_object","65","B45.jpg",".","1","0","0","2000"
"426890677","4","retrieval","old_object","67","A8.jpg",".","3","37","0","1408"
"426890677","4","retrieval","old_object","68","B78.jpg",".","1","36","1","1229"
"426890677","4","retrieval","new_object","69","D19.jpg",".",".","0","0","2000"
"426890677","4","retrieval","new_object","70","D65.jpg",".",".","0","0","2000"
"426890677","4","retrieval","new_object","71","D35.jpg",".",".","37","1","4294967295"
"426890677","4","retrieval","old_object","72","B46.jpg",".","1","37","0","1775"
"426890677","4","retrieval","new_object","73","C9.jpg",".",".","37","1","1456"
"426890677","4","retrieval","new_object","74","C64.jpg",".",".","0","0","2000"
"426890677","4","retrieval","new_object","75","C17.jpg",".",".","0","0","2000"
"426890677","4","retrieval","new_object","76","D13.jpg",".",".","37","1","1976"
"426890677","4","retrieval","old_object","77","B72.jpg",".","1","0","0","2000"
"426890677","4","retrieval","old_object","78","A61.jpg",".","3","37","0","1221"
"426890677","4","retrieval","new_object","79","D33.jpg",".",".","0","0","2000"
"426890677","4","retrieval","old_object","80","A77.jpg",".","3","36","1","1199"
"426890677","4","retrieval","new_object","81","D66.jpg",".",".","0","0","2000"
"426890677","4","retrieval","new_object","82","D34.jpg",".",".","0","0","2000"
"426890677","4","retrieval","new_object","83","D58.jpg",".",".","0","0","2000"
"426890677","4","retrieval","new_object","84","C26.jpg",".",".","37","1","1706"
"426890677","4","retrieval","old_object","85","B64.jpg",".","1","0","0","2000"
"426890677","4","retrieval","old_object","86","B12.jpg",".","1","0","0","2000"
"426890677","4","retrieval","new_object","87","D44.jpg",".",".","37","1","1228"
"426890677","4","retrieval","new_object","88","C72.jpg",".",".","0","0","2000"
"426890677","4","retrieval","old_object","89","B26.jpg",".","1","0","0","2000"
"426890677","4","retrieval","new_object","90","C21.jpg",".",".","0","0","2000"
"426890677","4","retrieval","new_object","91","C36.jpg",".",".","37","1","1196"
"426890677","4","retrieval","new_object","92","C19.jpg",".",".","37","1","554"
"426890677","4","retrieval","new_object","93","C14.jpg",".",".","0","0","2000"
"426890677","4","retrieval","new_object","94","D68.jpg",".",".","37","1","450"
"426890677","4","retrieval","new_object","95","D12.jpg",".",".","37","1","1235"
"426890677","4","retrieval","new_object","96","D77.jpg",".",".","37","1","1524"
"426890677","4","retrieval","old_object","97","B62.jpg",".","1","37","0","1754"
"426890677","4","retrieval","new_object","98","D71.jpg",".",".","37","1","99"
"426890677","4","retrieval","new_object","99","C73.jpg",".",".","37","1","0"
"426890677","4","retrieval","new_object","100","C44.jpg",".",".","37","1","0"
"426890677","4","retrieval","new_object","101","D26.jpg",".",".","37","1","342"
"426890677","4","retrieval","old_object","102","B50.jpg",".","1","0","0","2000"
"426890677","4","retrieval","old_object","103","B7.jpg",".","1","0","0","2000"
"426890677","4","retrieval","old_object","104","B20.jpg",".","1","37","0","427"
"426890677","4","retrieval","old_object","105","A69.jpg",".","3","37","0","1852"
"426890677","4","retrieval","new_object","106","C77.jpg",".",".","36","0","1190"
"426890677","4","retrieval","new_object","107","D48.jpg",".",".","37","1","1804"
"426890677","4","retrieval","old_object","108","A27.jpg",".","3","0","0","2000"
"426890677","4","retrieval","old_object","109","B14.jpg",".","1","37","0","1226"
"426890677","4","retrieval","new_object","110","C68.jpg",".",".","36","0","1984"
"426890677","4","retrieval","old_object","111","B30.jpg",".","1","0","0","2000"
"426890677","4","retrieval","old_object","112","B56.jpg",".","1","0","0","2000"
"426890677","4","retrieval","old_object","113","A19.jpg",".","3","36","1","4294967295"
"426890677","4","retrieval","new_object","114","C18.jpg",".",".","0","0","2000"
"426890677","4","retrieval","old_object","115","A38.jpg",".","3","37","0","1910"
"426890677","4","retrieval","new_object","116","C16.jpg",".",".","37","1","1613"
"426890677","4","retrieval","old_object","117","A45.jpg",".","3","0","0","2000"
"426890677","4","retrieval","new_object","118","C43.jpg",".",".","0","0","2000"
"426890677","4","retrieval","old_object","119","B48.jpg",".","1","37","0","0"
"426890677","4","retrieval","new_object","120","D55.jpg",".",".","0","0","2000"
"426890677","4","retrieval","new_object","121","C39.jpg",".",".","37","1","0"
"426890677","4","retrieval","old_object","122","B29.jpg",".","1","0","0","2000"
"426890677","4","retrieval","new_object","123","D11.jpg",".",".","37","1","545"
"426890677","4","retrieval","new_object","124","C52.jpg",".",".","0","0","2000"
"426890677","4","retrieval","old_object","125","B37.jpg",".","1","0","0","2000"
"426890677","4","retrieval","new_object","126","D79.jpg",".",".","37","1","577"
"426890677","4","retrieval","old_object","127","A14.jpg",".","3","37","0","1634"
"426890677","4","retrieval","old_object","128","A26.jpg",".","3","37","0","770"
"426890677","4","retrieval","new_object","129","D49.jpg",".",".","0","0","2000"
"426890677","4","retrieval","new_object","130","D64.jpg",".",".","0","0","2000"
"426890677","4","retrieval","new_object","131","C54.jpg",".",".","37","1","1982"
"426890677","4","retrieval","new_object","133","D45.jpg",".",".","37","1","1927"
"426890677","4","retrieval","old_object","134","B69.jpg",".","1","0","0","2000"
"426890677","4","retrieval","new_object","135","C74.jpg",".",".","37","1","1621"
"426890677","4","retrieval","old_object","136","A66.jpg",".","3","0","0","2000"
"426890677","4","retrieval","old_object","137","B31.jpg",".","1","0","0","2000"
"426890677","4","retrieval","new_object","138","D0.jpg",".",".","37","1","320"
"426890677","4","retrieval","new_object","139","D28.jpg",".",".","0","0","2000"
"426890677","4","retrieval","new_object","140","D67.jpg",".",".","37","1","1106"
"426890677","4","retrieval","new_object","141","D17.jpg",".",".","37","1","662"
"426890677","4","retrieval","new_object","142","D27.jpg",".",".","0","0","2000"
"426890677","4","retrieval","old_object","143","A67.jpg",".","3","37","0","908"
"426890677","4","retrieval","new_object","144","D24.jpg",".",".","0","0","2000"
"426890677","4","retrieval","old_object","145","B9.jpg",".","1","37","0","208"
"426890677","4","retrieval","old_object","146","B42.jpg",".","1","0","0","2000"
"426890677","4","retrieval","old_object","147","A68.jpg",".","3","37","0","0"
"426890677","4","retrieval","old_object","148","A64.jpg",".","3","0","0","2000"
"426890677","4","retrieval","old_object","149","A30.jpg",".","3","0","0","2000"
"426890677","4","retrieval","old_object","150","B36.jpg",".","1","0","0","2000"
"426890677","4","retrieval","old_object","151","A55.jpg",".","3","0","0","2000"
"426890677","4","retrieval","new_object","152","D78.jpg",".",".","37","1","0"
"426890677","4","retrieval","old_object","153","A36.jpg",".","3","36","1","546"
"426890677","4","retrieval","old_object","154","B59.jpg",".","1","36","1","1197"
"426890677","4","retrieval","old_object","155","A9.jpg",".","3","0","0","2000"
"426890677","4","retrieval","old_object","156","B2.jpg",".","1","36","1","1807"
"426890677","4","retrieval","new_object","157","D18.jpg",".",".","36","0","235"
"426890677","4","retrieval","old_object","158","A60.jpg",".","3","37","0","1640"
"426890677","4","retrieval","new_object","159","C3.jpg",".",".","0","0","2000"
"426890677","4","retrieval","new_object","160","D40.jpg",".",".","37","1","1447"
"426890677","4","retrieval","new_object","161","D54.jpg",".",".","0","0","2000"
"426890677","4","retrieval","new_object","162","D53.jpg",".",".","37","1","1037"
"426890677","4","retrieval","new_object","163","C42.jpg",".",".","37","1","1334"
"426890677","4","retrieval","new_object","164","C45.jpg",".",".","0","0","2000"
"426890677","4","retrieval","new_object","165","D50.jpg",".",".","37","1","669"
"426890677","4","retrieval","old_object","166","B13.jpg",".","1","36","1","1684"
"426890677","4","retrieval","old_object","167","A75.jpg",".","3","0","0","2000"
"426890677","4","retrieval","new_object","168","C32.jpg",".",".","37","1","208"
"426890677","4","retrieval","new_object","169","C22.jpg",".",".","37","1","1442"
"426890677","4","retrieval","new_object","170","C58.jpg",".",".","0","0","2000"
"426890677","4","retrieval","old_object","171","B71.jpg",".","1","0","0","2000"
"426890677","4","retrieval","old_object","172","B21.jpg",".","1","37","0","1492"
"426890677","4","retrieval","old_object","173","A12.jpg",".","3","0","0","2000"
"426890677","4","retrieval","old_object","174","A53.jpg",".","3","37","0","952"
"426890677","4","retrieval","new_object","175","C25.jpg",".",".","36","0","339"
"426890677","4","retrieval","new_object","176","C59.jpg",".",".","36","0","965"
"426890677","4","retrieval","new_object","177","D32.jpg",".",".","36","0","314"
"426890677","4","retrieval","new_object","178","D14.jpg",".",".","0","0","2000"
"426890677","4","retrieval","new_object","179","C60.jpg",".",".","37","1","343"
"426890677","4","retrieval","old_object","180","A23.jpg",".","3","37","0","1328"
"426890677","4","retrieval","new_object","181","C5.jpg",".",".","0","0","2000"
"426890677","4","retrieval","old_object","182","A21.jpg",".","3","37","0","897"
"426890677","4","retrieval","old_object","183","A58.jpg",".","3","36","1","1970"
"426890677","4","retrieval","new_object","184","C1.jpg",".",".","36","0","1820"
"426890677","4","retrieval","old_object","185","B38.jpg",".","1","37","0","1864"
"426890677","4","retrieval","old_object","186","A41.jpg",".","3","36","1","1834"
"426890677","4","retrieval","new_object","187","D3.jpg",".",".","0","0","2000"
"426890677","4","retrieval","new_object","188","D57.jpg",".",".","36","0","1663"
"426890677","4","retrieval","new_object","189","D9.jpg",".",".","0","0","2000"
"426890677","4","retrieval","old_object","190","A17.jpg",".","3","0","0","2000"
"426890677","4","retrieval","new_object","191","D62.jpg",".",".","37","1","522"
"426890677","4","retrieval","old_object","192","B8.jpg",".","1","37","0","1126"
"426890677","4","retrieval","old_object","193","B65.jpg",".","1","0","0","2000"
"426890677","4","retrieval","new_object","194","C41.jpg",".",".","36","0","459"
"426890677","4","retrieval","old_object","195","A3.jpg",".","3","0","0","2000"
"426890677","4","retrieval","new_object","196","D76.jpg",".",".","36","0","347"
"426890677","4","retrieval","old_object","197","B77.jpg",".","1","0","0","2000"
"426890677","4","retrieval","old_object","199","A1.jpg",".","3","0","0","2000"
"426890677","4","retrieval","old_object","200","B19.jpg",".","1","37","0","964"
"426890677","4","retrieval","old_object","201","B54.jpg",".","1","36","1","1766"
"426890677","4","retrieval","new_object","202","D51.jpg",".",".","0","0","2000"
"426890677","4","retrieval","new_object","203","C79.jpg",".",".","0","0","2000"
"426890677","4","retrieval","old_object","204","B49.jpg",".","1","36","1","665"
"426890677","4","retrieval","old_object","205","A31.jpg",".","3","36","1","1107"
"426890677","4","retrieval","old_object","206","B61.jpg",".","1","0","0","2000"
"426890677","4","retrieval","new_object","207","D39.jpg",".",".","36","0","1478"
"426890677","4","retrieval","new_object","208","C50.jpg",".",".","37","1","4294967294"
"426890677","4","retrieval","new_object","209","D47.jpg",".",".","0","0","2000"
"426890677","4","retrieval","new_object","210","C69.jpg",".",".","0","0","2000"
"426890677","4","retrieval","old_object","211","B18.jpg",".","1","0","0","2000"
"426890677","4","retrieval","old_object","212","B4.jpg",".","1","37","0","0"
"426890677","4","retrieval","old_object","213","A50.jpg",".","3","36","1","0"
"426890677","4","retrieval","old_object","214","A71.jpg",".","3","36","1","1973"
"426890677","4","retrieval","old_object","215","B33.jpg",".","1","0","0","2000"
"426890677","4","retrieval","old_object","216","A46.jpg",".","3","0","0","2000"
"426890677","4","retrieval","new_object","217","C6.jpg",".",".","37","1","1482"
"426890677","4","retrieval","old_object","218","A35.jpg",".","3","0","0","2000"
"426890677","4","retrieval","old_object","219","B11.jpg",".","1","0","0","2000"
"426890677","4","retrieval","old_object","220","B41.jpg",".","1","0","0","2000"
"426890677","4","retrieval","old_object","221","A70.jpg",".","3","36","1","1398"
"426890677","4","retrieval","new_object","222","D72.jpg",".",".","0","0","2000"
"426890677","4","retrieval","new_object","223","D60.jpg",".",".","37","1","1451"
"426890677","4","retrieval","new_object","224","D36.jpg",".",".","0","0","2000"
"426890677","4","retrieval","old_object","225","A0.jpg",".","3","37","0","1302"
"426890677","4","retrieval","new_object","226","D31.jpg",".",".","37","1","1920"
"426890677","4","retrieval","new_object","227","C57.jpg",".",".","37","1","1465"
"426890677","4","retrieval","new_object","228","D10.jpg",".",".","0","0","2000"
"426890677","4","retrieval","old_object","229","A73.jpg",".","3","0","0","2000"
"426890677","4","retrieval","new_object","230","D41.jpg",".",".","37","1","1982"
"426890677","4","retrieval","old_object","231","B74.jpg",".","1","0","0","2000"
"426890677","4","retrieval","new_object","232","C47.jpg",".",".","0","0","2000"
"426890677","4","retrieval","old_object","233","B35.jpg",".","1","37","0","1799"
"426890677","4","retrieval","new_object","234","C23.jpg",".",".","0","0","2000"
"426890677","4","retrieval","old_object","235","B24.jpg",".","1","36","1","206"
"426890677","4","retrieval","new_object","236","D29.jpg",".",".","37","1","0"
"426890677","4","retrieval","old_object","237","A16.jpg",".","3","0","0","2000"
"426890677","4","retrieval","new_object","238","D59.jpg",".",".","0","0","2000"
"426890677","4","retrieval","new_object","239","C71.jpg",".",".","37","1","0"
"426890677","4","retrieval","new_object","240","C53.jpg",".",".","37","1","563"
"426890677","4","retrieval","old_object","241","A33.jpg",".","3","37","0","1620"
"426890677","4","retrieval","new_object","242","C40.jpg",".",".","0","0","2000"
"426890677","4","retrieval","old_object","243","B66.jpg",".","1","37","0","107"
"426890677","4","retrieval","new_object","244","D5.jpg",".",".","0","0","2000"
"426890677","4","retrieval","old_object","245","A2.jpg",".","3","37","0","622"
"426890677","4","retrieval","new_object","246","D25.jpg",".",".","0","0","2000"
"426890677","4","retrieval","new_object","247","D37.jpg",".",".","36","0","0"
"426890677","4","retrieval","old_object","248","B28.jpg",".","1","37","0","1680"
"426890677","4","retrieval","new_object","249","C46.jpg",".",".","0","0","2000"
"426890677","4","retrieval","old_object","250","A51.jpg",".","3","37","0","0"
"426890677","4","retrieval","new_object","251","C38.jpg",".",".","37","1","0"
"426890677","4","retrieval","old_object","252","A62.jpg",".","3","37","0","1731"
"426890677","4","retrieval","old_object","253","A32.jpg",".","3","0","0","2000"
"426890677","4","retrieval","old_object","254","B53.jpg",".","1","37","0","829"
"426890677","4","retrieval","new_object","255","C70.jpg",".",".","37","1","212"
"426890677","4","retrieval","new_object","256","C37.jpg",".",".","0","0","2000"
"426890677","4","retrieval","old_object","257","A76.jpg",".","3","36","1","230"
"426890677","4","retrieval","new_object","258","D61.jpg",".",".","0","0","2000"
"426890677","4","retrieval","new_object","259","C12.jpg",".",".","36","0","1386"
"426890677","4","retrieval","new_object","260","C65.jpg",".",".","37","1","0"
"426890677","4","retrieval","new_object","261","C11.jpg",".",".","37","1","1613"
"426890677","4","retrieval","new_object","262","C55.jpg",".",".","37","1","1650"
"426890677","4","retrieval","old_object","263","A6.jpg",".","3","0","0","2000"
"426890677","4","retrieval","old_object","265","A48.jpg",".","3","0","0","2000"
"426890677","4","retrieval","old_object","266","B68.jpg",".","1","0","0","2000"
"426890677","4","retrieval","old_object","267","A10.jpg",".","3","37","0","557"
"426890677","4","retrieval","new_object","268","C29.jpg",".",".","0","0","2000"
"426890677","4","retrieval","old_object","269","A18.jpg",".","3","37","0","1239"
"426890677","4","retrieval","new_object","270","D30.jpg",".",".","36","0","507"
"426890677","4","retrieval","new_object","271","C7.jpg",".",".","36","0","1771"
"426890677","4","retrieval","new_object","272","C75.jpg",".",".","36","0","546"
"426890677","4","retrieval","new_object","273","D20.jpg",".",".","36","0","223"
"426890677","4","retrieval","old_object","274","B51.jpg",".","1","37","0","630"
"426890677","4","retrieval","new_object","275","C27.jpg",".",".","37","1","1169"
"426890677","4","retrieval","old_object","276","A15.jpg",".","3","0","0","2000"
"426890677","4","retrieval","old_object","277","A29.jpg",".","3","37","0","1113"
"426890677","4","retrieval","new_object","278","C49.jpg",".",".","37","1","1973"
"426890677","4","retrieval","new_object","279","C0.jpg",".",".","0","0","2000"
"426890677","4","retrieval","old_object","280","B5.jpg",".","1","37","0","1848"
"426890677","4","retrieval","old_object","281","A47.jpg",".","3","37","0","1428"
"426890677","4","retrieval","new_object","282","D43.jpg",".",".","0","0","2000"
"426890677","4","retrieval","new_object","283","D38.jpg",".",".","37","1","0"
"426890677","4","retrieval","old_object","284","B79.jpg",".","1","0","0","2000"
"426890677","4","retrieval","old_object","285","B17.jpg",".","1","37","0","1802"
"426890677","4","retrieval","old_object","286","B15.jpg",".","1","0","0","2000"
"426890677","4","retrieval","old_object","287","B34.jpg",".","1","37","0","943"
"426890677","4","retrieval","old_object","288","A5.jpg",".","3","37","0","4294967295"
"426890677","4","retrieval","old_object","289","A56.jpg",".","3","0","0","2000"
"426890677","4","retrieval","new_object","290","C4.jpg",".",".","37","1","1256"
"426890677","4","retrieval","new_object","291","C20.jpg",".",".","0","0","2000"
"426890677","4","retrieval","old_object","292","B75.jpg",".","1","0","0","2000"
"426890677","4","retrieval","old_object","293","A63.jpg",".","3","37","0","0"
"426890677","4","retrieval","old_object","294","A39.jpg",".","3","0","0","2000"
"426890677","4","retrieval","old_object","295","B58.jpg",".","1","37","0","232"
"426890677","4","retrieval","new_object","296","C8.jpg",".",".","0","0","2000"
"426890677","4","retrieval","old_object","297","A7.jpg",".","3","37","0","450"
"426890677","4","retrieval","old_object","298","A13.jpg",".","3","0","0","2000"
"426890677","4","retrieval","new_object","299","D4.jpg",".",".","37","1","236"
"426890677","4","retrieval","old_object","300","B73.jpg",".","1","0","0","2000"
"426890677","4","retrieval","old_object","301","B10.jpg",".","1","37","0","1140"
"426890677","4","retrieval","old_object","302","A37.jpg",".","3","37","0","0"
"426890677","4","retrieval","new_object","303","C51.jpg",".",".","0","0","2000"
"426890677","4","retrieval","old_object","304","B57.jpg",".","1","37","0","511"
"426890677","4","retrieval","new_object","305","C28.jpg",".",".","37","1","795"
"426890677","4","retrieval","old_object","306","B40.jpg",".","1","37","0","1146"
"426890677","4","retrieval","new_object","307","C66.jpg",".",".","37","1","955"
"426890677","4","retrieval","old_object","308","B63.jpg",".","1","37","0","1614"
"426890677","4","retrieval","old_object","309","A43.jpg",".","3","37","0","1856"
"426890677","4","retrieval","old_object","310","A34.jpg",".","3","36","1","223"
"426890677","4","retrieval","new_object","311","D42.jpg",".",".","36","0","1444"
"426890677","4","retrieval","old_object","312","B39.jpg",".","1","0","0","2000"
"426890677","4","retrieval","new_object","313","D1.jpg",".",".","0","0","2000"
"426890677","4","retrieval","new_object","314","D56.jpg",".",".","37","1","202"
"426890677","4","retrieval","old_object","315","A52.jpg",".","3","37","0","1202"
"426890677","4","retrieval","new_object","316","D75.jpg",".",".","37","1","459"
"426890677","4","retrieval","new_object","317","D74.jpg",".",".","37","1","0"
"426890677","4","retrieval","new_object","318","C76.jpg",".",".","0","0","2000"
"426890677","4","retrieval","old_object","319","B52.jpg",".","1","37","0","543"
"426890677","4","retrieval","new_object","320","D21.jpg",".",".","37","1","1841"
"426890677","4","retrieval","new_object","321","D22.jpg",".",".","37","1","1385"
"426890677","4","retrieval","new_object","322","C13.jpg",".",".","0","0","2000"
"426890677","4","retrieval","new_object","323","C30.jpg",".",".","37","1","979"
"426890677","4","retrieval","old_object","324","A11.jpg",".","3","37","0","461"
"426890677","4","retrieval","new_object","325","D17.jpg",".",".","37","1","0"
"426890677","4","demographics_block","gender","1",".",".",".","male","1","35191"
"426890677","4","demographics_block","age","1",".",".",".","29","1","35191"
"426890677","4","demographics_block","education","1",".",".",".","bachelors degree","1","35191"
"426890677","4","demographics_block","left_right_handed","2",".",".",".","Left","1","12944"
"426890677","4","demographics_block","raceoption1","2",".",".",".","0","1","12944"
"426890677","4","demographics_block","raceoption2","2",".",".",".","","1","12944"
"426890677","4","demographics_block","raceoption3","2",".",".",".","","1","12944"
"426890677","4","demographics_block","raceoption4","2",".",".",".","","1","12944"
"426890677","4","demographics_block","raceoption5","2",".",".",".","","1","12944"
"426890677","4","demographics_block","raceoption6","2",".",".",".","","1","12944"
"426890677","4","demographics_block","raceoption7","2",".",".",".","","1","12944"
"426890677","4","demographics_block","raceoption8","2",".",".",".","","1","12944"
"426890677","4","demographics_block","raceoption9","2",".",".",".","","1","12944"
"426890677","4","demographics_block","raceother","2",".",".",".","","1","12944"
"426890677","4","demographics_block","raceother","2",".",".",".","","1","12944"
"426890677","4","demographics_block","english_language","2",".",".",".","Yes","1","12944"
"426890677","4","demographics_block","other","2",".",".",".","","1","12944"
"426890677","4","demographics_block","eyesight","3",".",".",".","Yes","1","11788"
"426890677","4","demographics_block","colorblind","3",".",".",".","No","1","11788"
"90968976","6","encoding","encoding","1","A21.jpg","3",".","37","0","812"
"90968976","6","encoding","encoding","2","B53.jpg","1",".","0","0","1000"
"90968976","6","encoding","encoding","3","A63.jpg","3",".","37","0","811"
"90968976","6","encoding","encoding","4","A7.jpg","3",".","36","0","963"
"90968976","6","encoding","encoding","5","A22.jpg","3",".","37","0","625"
"90968976","6","encoding","encoding","6","B61.jpg","1",".","37","0","804"
"90968976","6","encoding","encoding","7","A14.jpg","3",".","37","0","717"
"90968976","6","encoding","encoding","8","A62.jpg","3",".","37","0","837"
"90968976","6","encoding","encoding","9","B8.jpg","1",".","37","0","691"
"90968976","6","encoding","encoding","10","A5.jpg","3",".","0","0","1000"
"90968976","6","encoding","encoding","11","A9.jpg","3",".","37","0","662"
"90968976","6","encoding","encoding","12","A33.jpg","3",".","37","0","629"
"90968976","6","encoding","encoding","13","B33.jpg","1",".","37","0","532"
"90968976","6","encoding","encoding","14","A56.jpg","3",".","37","0","561"
"90968976","6","encoding","encoding","15","A8.jpg","3",".","37","0","594"
"90968976","6","encoding","encoding","16","A48.jpg","3",".","37","0","614"
"90968976","6","encoding","encoding","17","A26.jpg","3",".","0","0","1000"
"90968976","6","encoding","encoding","18","A34.jpg","3",".","0","0","1000"
"90968976","6","encoding","encoding","19","A2.jpg","3",".","0","0","1000"
"90968976","6","encoding","encoding","20","A52.jpg","3",".","37","0","657"
"90968976","6","encoding","encoding","21","A27.jpg","3",".","37","0","612"
"90968976","6","encoding","encoding","22","A42.jpg","3",".","0","0","1000"
"90968976","6","encoding","encoding","23","A9.jpg","3",".","37","0","819"
"90968976","6","encoding","encoding","24","A79.jpg","3",".","37","0","800"
"90968976","6","encoding","encoding","25","B36.jpg","1",".","37","0","803"
"90968976","6","encoding","encoding","26","A46.jpg","3",".","37","0","462"
"90968976","6","encoding","encoding","27","A39.jpg","3",".","0","0","1000"
"90968976","6","encoding","encoding","28","A71.jpg","3",".","0","0","1000"
"90968976","6","encoding","encoding","29","A65.jpg","3",".","37","0","659"
"90968976","6","encoding","encoding","30","A37.jpg","3",".","37","0","496"
"90968976","6","encoding","encoding","31","B76.jpg","1",".","37","0","405"
"90968976","6","encoding","encoding","32","A65.jpg","3",".","37","0","124"
"90968976","6","encoding","encoding","33","B13.jpg","1",".","36","0","184"
"90968976","6","encoding","encoding","34","A10.jpg","3",".","0","0","1000"
"90968976","6","encoding","encoding","35","A68.jpg","3",".","37","0","703"
"90968976","6","encoding","encoding","36","A49.jpg","3",".","36","0","64"
"90968976","6","encoding","encoding","37","A36.jpg","3",".","37","0","84"
"90968976","6","encoding","encoding","38","A50.jpg","3",".","37","0","315"
"90968976","6","encoding","encoding","39","B24.jpg","1",".","37","0","64"
"90968976","6","encoding","encoding","40","B9.jpg","1",".","37","0","3"
"90968976","6","encoding","encoding","41","A50.jpg","3",".","37","0","187"
"90968976","6","encoding","encoding","42","A25.jpg","3",".","37","0","6"
"90968976","6","encoding","encoding","43","A34.jpg","3",".","37","0","20"
"90968976","6","encoding","encoding","44","A64.jpg","3",".","37","0","106"
"90968976","6","encoding","encoding","45","A74.jpg","3",".","36","0","202"
"90968976","6","encoding","encoding","46","A21.jpg","3",".","37","0","231"
"90968976","6","encoding","encoding","47","A15.jpg","3",".","37","0","109"
"90968976","6","encoding","encoding","48","A32.jpg","3",".","37","0","298"
"90968976","6","encoding","encoding","49","B44.jpg","1",".","37","0","259"
"90968976","6","encoding","encoding","50","A13.jpg","3",".","37","0","31"
"90968976","6","encoding","encoding","51","B70.jpg","1",".","37","0","65"
"90968976","6","encoding","encoding","52","B39.jpg","1",".","37","0","0"
"90968976","6","encoding","encoding","53","A43.jpg","3",".","37","0","125"
"90968976","6","encoding","encoding","54","B57.jpg","1",".","37","0","492"
"90968976","6","encoding","encoding","55","A74.jpg","3",".","37","0","563"
"90968976","6","encoding","encoding","56","B46.jpg","1",".","37","0","835"
"90968976","6","encoding","encoding","57","A18.jpg","3",".","36","0","687"
"90968976","6","encoding","encoding","58","A62.jpg","3",".","37","0","606"
"90968976","6","encoding","encoding","59","B50.jpg","1",".","36","0","575"
"90968976","6","encoding","encoding","60","A20.jpg","3",".","37","0","513"
"90968976","6","encoding","encoding","61","A19.jpg","3",".","37","0","800"
"90968976","6","encoding","encoding","62","A33.jpg","3",".","37","0","799"
"90968976","6","encoding","encoding","63","A32.jpg","3",".","37","0","553"
"90968976","6","encoding","encoding","64","A53.jpg","3",".","37","0","418"
"90968976","6","encoding","encoding","65","B34.jpg","1",".","37","0","614"
"90968976","6","encoding","encoding","67","A78.jpg","3",".","37","0","900"
"90968976","6","encoding","encoding","68","A30.jpg","3",".","37","0","965"
"90968976","6","encoding","encoding","69","A72.jpg","3",".","37","0","765"
"90968976","6","encoding","encoding","70","A50.jpg","3",".","37","0","580"
"90968976","6","encoding","encoding","71","B21.jpg","1",".","37","0","643"
"90968976","6","encoding","encoding","72","A67.jpg","3",".","37","0","733"
"90968976","6","encoding","encoding","73","B79.jpg","1",".","37","0","678"
"90968976","6","encoding","encoding","74","A67.jpg","3",".","36","0","675"
"90968976","6","encoding","encoding","75","A46.jpg","3",".","37","0","928"
"90968976","6","encoding","encoding","76","B42.jpg","1",".","37","0","509"
"90968976","6","encoding","encoding","77","A76.jpg","3",".","37","0","797"
"90968976","6","encoding","encoding","78","B64.jpg","1",".","37","0","656"
"90968976","6","encoding","encoding","79","A51.jpg","3",".","37","0","723"
"90968976","6","encoding","encoding","80","A12.jpg","3",".","37","0","931"
"90968976","6","encoding","encoding","81","A41.jpg","3",".","36","0","981"
"90968976","6","encoding","encoding","82","A43.jpg","3",".","37","0","400"
"90968976","6","encoding","encoding","83","A42.jpg","3",".","37","0","874"
"90968976","6","encoding","encoding","84","A38.jpg","3",".","37","0","800"
"90968976","6","encoding","encoding","85","B77.jpg","1",".","37","0","562"
"90968976","6","encoding","encoding","86","A1.jpg","3",".","36","0","699"
"90968976","6","encoding","encoding","87","B49.jpg","1",".","36","0","557"
"90968976","6","encoding","encoding","88","B25.jpg","1",".","37","0","626"
"90968976","6","encoding","encoding","89","A64.jpg","3",".","37","0","742"
"90968976","6","encoding","encoding","90","A60.jpg","3",".","37","0","715"
"90968976","6","encoding","encoding","91","B7.jpg","1",".","36","0","684"
"90968976","6","encoding","encoding","92","A32.jpg","3",".","37","0","614"
"90968976","6","encoding","encoding","93","A59.jpg","3",".","37","0","878"
"90968976","6","encoding","encoding","94","A70.jpg","3",".","37","0","628"
"90968976","6","encoding","encoding","95","A69.jpg","3",".","37","0","926"
"90968976","6","encoding","encoding","96","B78.jpg","1",".","37","0","657"
"90968976","6","encoding","encoding","97","A0.jpg","3",".","37","0","707"
"90968976","6","encoding","encoding","98","A63.jpg","3",".","37","0","561"
"90968976","6","encoding","encoding","99","A66.jpg","3",".","36","0","663"
"90968976","6","encoding","encoding","100","A2.jpg","3",".","37","0","495"
"90968976","6","encoding","encoding","101","B67.jpg","1",".","37","0","598"
"90968976","6","encoding","encoding","102","A77.jpg","3",".","37","0","869"
"90968976","6","encoding","encoding","103","A5.jpg","3",".","37","0","714"
"90968976","6","encoding","encoding","104","A35.jpg","3",".","37","0","680"
"90968976","6","encoding","encoding","105","B22.jpg","1",".","37","0","944"
"90968976","6","encoding","encoding","106","A55.jpg","3",".","37","0","792"
"90968976","6","encoding","encoding","107","B63.jpg","1",".","37","0","546"
"90968976","6","encoding","encoding","108","B17.jpg","1",".","37","0","334"
"90968976","6","encoding","encoding","109","A72.jpg","3",".","37","0","622"
"90968976","6","encoding","encoding","110","A19.jpg","3",".","37","0","501"
"90968976","6","encoding","encoding","111","A6.jpg","3",".","37","0","502"
"90968976","6","encoding","encoding","112","A34.jpg","3",".","37","0","835"
"90968976","6","encoding","encoding","113","B60.jpg","1",".","0","0","1000"
"90968976","6","encoding","encoding","114","A44.jpg","3",".","37","0","628"
"90968976","6","encoding","encoding","115","B20.jpg","1",".","36","0","620"
"90968976","6","encoding","encoding","116","A39.jpg","3",".","36","0","670"
"90968976","6","encoding","encoding","117","A15.jpg","3",".","37","0","599"
"90968976","6","encoding","encoding","118","A23.jpg","3",".","37","0","570"
"90968976","6","encoding","encoding","119","A31.jpg","3",".","36","0","921"
"90968976","6","encoding","encoding","120","A64.jpg","3",".","37","0","591"
"90968976","6","encoding","encoding","121","A17.jpg","3",".","37","0","399"
"90968976","6","encoding","encoding","122","A36.jpg","3",".","37","0","489"
"90968976","6","encoding","encoding","123","A10.jpg","3",".","37","0","478"
"90968976","6","encoding","encoding","124","A40.jpg","3",".","37","0","431"
"90968976","6","encoding","encoding","125","A72.jpg","3",".","37","0","503"
"90968976","6","encoding","encoding","126","B0.jpg","1",".","37","0","581"
"90968976","6","encoding","encoding","127","A66.jpg","3",".","36","0","664"
"90968976","6","encoding","encoding","128","A17.jpg","3",".","37","0","950"
"90968976","6","encoding","encoding","129","A21.jpg","3",".","37","0","781"
"90968976","6","encoding","encoding","130","A57.jpg","3",".","37","0","420"
"90968976","6","encoding","encoding","131","A11.jpg","3",".","0","0","1000"
"90968976","6","encoding","encoding","133","A66.jpg","3",".","36","0","636"
"90968976","6","encoding","encoding","134","B31.jpg","1",".","37","0","765"
"90968976","6","encoding","encoding","135","A3.jpg","3",".","0","0","1000"
"90968976","6","encoding","encoding","136","A17.jpg","3",".","37","0","789"
"90968976","6","encoding","encoding","137","B35.jpg","1",".","37","0","871"
"90968976","6","encoding","encoding","138","A54.jpg","3",".","37","0","754"
"90968976","6","encoding","encoding","139","A48.jpg","3",".","37","0","914"
"90968976","6","encoding","encoding","140","B54.jpg","1",".","37","0","606"
"90968976","6","encoding","encoding","141","A12.jpg","3",".","0","0","1000"
"90968976","6","encoding","encoding","142","A73.jpg","3",".","37","0","643"
"90968976","6","encoding","encoding","143","A61.jpg","3",".","37","0","595"
"90968976","6","encoding","encoding","144","A37.jpg","3",".","37","0","771"
"90968976","6","encoding","encoding","145","A0.jpg","3",".","37","0","647"
"90968976","6","encoding","encoding","146","B68.jpg","1",".","37","0","699"
"90968976","6","encoding","encoding","147","B55.jpg","1",".","37","0","973"
"90968976","6","encoding","encoding","148","A24.jpg","3",".","37","0","612"
"90968976","6","encoding","encoding","149","A14.jpg","3",".","37","0","851"
"90968976","6","encoding","encoding","150","A4.jpg","3",".","37","0","443"
"90968976","6","encoding","encoding","151","A39.jpg","3",".","37","0","627"
"90968976","6","encoding","encoding","152","A71.jpg","3",".","37","0","709"
"90968976","6","encoding","encoding","153","A76.jpg","3",".","37","0","846"
"90968976","6","encoding","encoding","154","A11.jpg","3",".","37","0","620"
"90968976","6","encoding","encoding","155","A7.jpg","3",".","37","0","500"
"90968976","6","encoding","encoding","156","A12.jpg","3",".","37","0","626"
"90968976","6","encoding","encoding","157","A25.jpg","3",".","37","0","826"
"90968976","6","encoding","encoding","158","A0.jpg","3",".","37","0","661"
"90968976","6","encoding","encoding","159","A22.jpg","3",".","37","0","580"
"90968976","6","encoding","encoding","160","A45.jpg","3",".","37","0","456"
"90968976","6","encoding","encoding","161","B14.jpg","1",".","37","0","771"
"90968976","6","encoding","encoding","162","B16.jpg","1",".","36","0","897"
"90968976","6","encoding","encoding","163","B73.jpg","1",".","37","0","798"
"90968976","6","encoding","encoding","164","A63.jpg","3",".","37","0","558"
"90968976","6","encoding","encoding","165","A1.jpg","3",".","36","0","598"
"90968976","6","encoding","encoding","166","A41.jpg","3",".","37","0","955"
"90968976","6","encoding","encoding","167","B62.jpg","1",".","37","0","716"
"90968976","6","encoding","encoding","168","A71.jpg","3",".","37","0","566"
"90968976","6","encoding","encoding","169","B6.jpg","1",".","37","0","675"
"90968976","6","encoding","encoding","170","A77.jpg","3",".","37","0","636"
"90968976","6","encoding","encoding","171","A60.jpg","3",".","37","0","636"
"90968976","6","encoding","encoding","172","A76.jpg","3",".","37","0","679"
"90968976","6","encoding","encoding","173","A58.jpg","3",".","37","0","690"
"90968976","6","encoding","encoding","174","A35.jpg","3",".","0","0","1000"
"90968976","6","encoding","encoding","175","A52.jpg","3",".","37","0","815"
"90968976","6","encoding","encoding","176","B48.jpg","1",".","37","0","524"
"90968976","6","encoding","encoding","177","A45.jpg","3",".","37","0","820"
"90968976","6","encoding","encoding","178","A55.jpg","3",".","0","0","1000"
"90968976","6","encoding","encoding","179","A62.jpg","3",".","37","0","207"
"90968976","6","encoding","encoding","180","A20.jpg","3",".","37","0","123"
"90968976","6","encoding","encoding","181","A1.jpg","3",".","36","0","667"
"90968976","6","encoding","encoding","182","A6.jpg","3",".","36","0","784"
"90968976","6","encoding","encoding","183","A44.jpg","3",".","37","0","672"
"90968976","6","encoding","encoding","184","A75.jpg","3",".","37","0","670"
"90968976","6","encoding","encoding","185","A70.jpg","3",".","37","0","573"
"90968976","6","encoding","encoding","186","A16.jpg","3",".","37","0","665"
"90968976","6","encoding","encoding","187","A47.jpg","3",".","37","0","546"
"90968976","6","encoding","encoding","188","A78.jpg","3",".","37","0","648"
"90968976","6","encoding","encoding","189","A31.jpg","3",".","37","0","837"
"90968976","6","encoding","encoding","190","A15.jpg","3",".","0","0","1000"
"90968976","6","encoding","encoding","191","A24.jpg","3",".","37","0","9"
"90968976","6","encoding","encoding","192","A49.jpg","3",".","37","0","752"
"90968976","6","encoding","encoding","193","A78.jpg","3",".","37","0","488"
"90968976","6","encoding","encoding","194","B56.jpg","1",".","0","0","1000"
"90968976","6","encoding","encoding","195","A38.jpg","3",".","37","0","579"
"90968976","6","encoding","encoding","196","A9.jpg","3",".","37","0","712"
"90968976","6","encoding","encoding","197","B11.jpg","1",".","37","0","936"
"90968976","6","encoding","encoding","199","A40.jpg","3",".","37","0","569"
"90968976","6","encoding","encoding","200","A35.jpg","3",".","37","0","476"
"90968976","6","encoding","encoding","201","A22.jpg","3",".","37","0","431"
"90968976","6","encoding","encoding","202","B45.jpg","1",".","37","0","540"
"90968976","6","encoding","encoding","203","A4.jpg","3",".","37","0","502"
"90968976","6","encoding","encoding","204","A53.jpg","3",".","37","0","801"
"90968976","6","encoding","encoding","205","A54.jpg","3",".","37","0","445"
"90968976","6","encoding","encoding","206","A55.jpg","3",".","37","0","389"
"90968976","6","encoding","encoding","207","A13.jpg","3",".","37","0","556"
"90968976","6","encoding","encoding","208","A27.jpg","3",".","37","0","541"
"90968976","6","encoding","encoding","209","B29.jpg","1",".","37","0","542"
"90968976","6","encoding","encoding","210","A61.jpg","3",".","37","0","497"
"90968976","6","encoding","encoding","211","A73.jpg","3",".","37","0","568"
"90968976","6","encoding","encoding","212","A65.jpg","3",".","37","0","204"
"90968976","6","encoding","encoding","213","B65.jpg","1",".","37","0","652"
"90968976","6","encoding","encoding","214","A56.jpg","3",".","37","0","643"
"90968976","6","encoding","encoding","215","A70.jpg","3",".","37","0","604"
"90968976","6","encoding","encoding","216","A33.jpg","3",".","37","0","648"
"90968976","6","encoding","encoding","217","B43.jpg","1",".","37","0","240"
"90968976","6","encoding","encoding","218","A29.jpg","3",".","37","0","979"
"90968976","6","encoding","encoding","219","B19.jpg","1",".","37","0","593"
"90968976","6","encoding","encoding","220","A69.jpg","3",".","37","0","856"
"90968976","6","encoding","encoding","221","B30.jpg","1",".","37","0","758"
"90968976","6","encoding","encoding","222","A16.jpg","3",".","37","0","473"
"90968976","6","encoding","encoding","223","A41.jpg","3",".","37","0","533"
"90968976","6","encoding","encoding","224","A44.jpg","3",".","37","0","603"
"90968976","6","encoding","encoding","225","A14.jpg","3",".","37","0","611"
"90968976","6","encoding","encoding","226","A30.jpg","3",".","37","0","475"
"90968976","6","encoding","encoding","227","A59.jpg","3",".","37","0","489"
"90968976","6","encoding","encoding","228","A47.jpg","3",".","36","0","876"
"90968976","6","encoding","encoding","229","A52.jpg","3",".","37","0","415"
"90968976","6","encoding","encoding","230","A68.jpg","3",".","37","0","446"
"90968976","6","encoding","encoding","231","B2.jpg","1",".","37","0","628"
"90968976","6","encoding","encoding","232","B41.jpg","1",".","37","0","476"
"90968976","6","encoding","encoding","233","A48.jpg","3",".","37","0","547"
"90968976","6","encoding","encoding","234","B23.jpg","1",".","37","0","382"
"90968976","6","encoding","encoding","235","A16.jpg","3",".","37","0","365"
"90968976","6","encoding","encoding","236","A51.jpg","3",".","37","0","704"
"90968976","6","encoding","encoding","237","A26.jpg","3",".","0","0","1000"
"90968976","6","encoding","encoding","238","B52.jpg","1",".","37","0","643"
"90968976","6","encoding","encoding","239","A2.jpg","3",".","37","0","452"
"90968976","6","encoding","encoding","240","A59.jpg","3",".","37","0","372"
"90968976","6","encoding","encoding","241","B26.jpg","1",".","37","0","570"
"90968976","6","encoding","encoding","242","A68.jpg","3",".","37","0","537"
"90968976","6","encoding","encoding","243","A6.jpg","3",".","36","0","572"
"90968976","6","encoding","encoding","244","A43.jpg","3",".","36","0","575"
"90968976","6","encoding","encoding","245","A8.jpg","3",".","37","0","773"
"90968976","6","encoding","encoding","246","B51.jpg","1",".","37","0","493"
"90968976","6","encoding","encoding","247","B1.jpg","1",".","37","0","953"
"90968976","6","encoding","encoding","248","A20.jpg","3",".","0","0","1000"
"90968976","6","encoding","encoding","249","A18.jpg","3",".","37","0","537"
"90968976","6","encoding","encoding","250","A3.jpg","3",".","37","0","680"
"90968976","6","encoding","encoding","251","A58.jpg","3",".","37","0","533"
"90968976","6","encoding","encoding","252","A31.jpg","3",".","37","0","403"
"90968976","6","encoding","encoding","253","A60.jpg","3",".","37","0","604"
"90968976","6","encoding","encoding","254","A73.jpg","3",".","0","0","1000"
"90968976","6","encoding","encoding","255","A74.jpg","3",".","37","0","348"
"90968976","6","encoding","encoding","256","A4.jpg","3",".","0","0","1000"
"90968976","6","encoding","encoding","257","A24.jpg","3",".","37","0","596"
"90968976","6","encoding","encoding","258","A30.jpg","3",".","37","0","564"
"90968976","6","encoding","encoding","259","A79.jpg","3",".","37","0","451"
"90968976","6","encoding","encoding","260","B10.jpg","1",".","37","0","405"
"90968976","6","encoding","encoding","261","A46.jpg","3",".","37","0","351"
"90968976","6","encoding","encoding","262","A18.jpg","3",".","37","0","445"
"90968976","6","encoding","encoding","263","A67.jpg","3",".","36","0","597"
"90968976","6","encoding","encoding","265","A23.jpg","3",".","37","0","905"
"90968976","6","encoding","encoding","266","B74.jpg","1",".","37","0","539"
"90968976","6","encoding","encoding","267","B37.jpg","1",".","37","0","492"
"90968976","6","encoding","encoding","268","B27.jpg","1",".","37","0","527"
"90968976","6","encoding","encoding","269","A56.jpg","3",".","37","0","348"
"90968976","6","encoding","encoding","270","A45.jpg","3",".","37","0","276"
"90968976","6","encoding","encoding","271","B47.jpg","1",".","0","0","1000"
"90968976","6","encoding","encoding","272","A77.jpg","3",".","37","0","584"
"90968976","6","encoding","encoding","273","A28.jpg","3",".","37","0","370"
"90968976","6","encoding","encoding","274","A53.jpg","3",".","37","0","320"
"90968976","6","encoding","encoding","275","B58.jpg","1",".","37","0","570"
"90968976","6","encoding","encoding","276","A75.jpg","3",".","37","0","511"
"90968976","6","encoding","encoding","277","B66.jpg","1",".","37","0","605"
"90968976","6","encoding","encoding","278","A79.jpg","3",".","37","0","543"
"90968976","6","encoding","encoding","279","A75.jpg","3",".","37","0","453"
"90968976","6","encoding","encoding","280","A42.jpg","3",".","37","0","427"
"90968976","6","encoding","encoding","281","A8.jpg","3",".","37","0","594"
"90968976","6","encoding","encoding","282","A57.jpg","3",".","37","0","907"
"90968976","6","encoding","encoding","283","A40.jpg","3",".","37","0","566"
"90968976","6","encoding","encoding","284","A57.jpg","3",".","37","0","548"
"90968976","6","encoding","encoding","285","A7.jpg","3",".","36","0","713"
"90968976","6","encoding","encoding","286","B5.jpg","1",".","37","0","730"
"90968976","6","encoding","encoding","287","A27.jpg","3",".","37","0","655"
"90968976","6","encoding","encoding","288","A51.jpg","3",".","36","0","758"
"90968976","6","encoding","encoding","289","A61.jpg","3",".","37","0","389"
"90968976","6","encoding","encoding","290","B3.jpg","1",".","37","0","866"
"90968976","6","encoding","encoding","291","A36.jpg","3",".","37","0","707"
"90968976","6","encoding","encoding","292","A28.jpg","3",".","37","0","571"
"90968976","6","encoding","encoding","293","A58.jpg","3",".","37","0","555"
"90968976","6","encoding","encoding","294","B72.jpg","1",".","37","0","819"
"90968976","6","encoding","encoding","295","A69.jpg","3",".","37","0","703"
"90968976","6","encoding","encoding","296","B38.jpg","1",".","37","0","466"
"90968976","6","encoding","encoding","297","A54.jpg","3",".","37","0","553"
"90968976","6","encoding","encoding","298","A13.jpg","3",".","37","0","639"
"90968976","6","encoding","encoding","299","A49.jpg","3",".","0","0","1000"
"90968976","6","encoding","encoding","300","A37.jpg","3",".","37","0","610"
"90968976","6","encoding","encoding","301","A28.jpg","3",".","37","0","820"
"90968976","6","encoding","encoding","302","B18.jpg","1",".","37","0","580"
"90968976","6","encoding","encoding","303","A29.jpg","3",".","37","0","783"
"90968976","6","encoding","encoding","304","B32.jpg","1",".","37","0","697"
"90968976","6","encoding","encoding","305","B12.jpg","1",".","37","0","672"
"90968976","6","encoding","encoding","306","B69.jpg","1",".","37","0","833"
"90968976","6","encoding","encoding","307","A23.jpg","3",".","37","0","672"
"90968976","6","encoding","encoding","308","B75.jpg","1",".","37","0","525"
"90968976","6","encoding","encoding","309","A26.jpg","3",".","36","0","679"
"90968976","6","encoding","encoding","310","B4.jpg","1",".","36","0","608"
"90968976","6","encoding","encoding","311","A19.jpg","3",".","36","0","831"
"90968976","6","encoding","encoding","312","B40.jpg","1",".","0","0","1000"
"90968976","6","encoding","encoding","313","A10.jpg","3",".","37","0","610"
"90968976","6","encoding","encoding","314","B71.jpg","1",".","37","0","568"
"90968976","6","encoding","encoding","315","A38.jpg","3",".","37","0","658"
"90968976","6","encoding","encoding","316","A11.jpg","3",".","37","0","388"
"90968976","6","encoding","encoding","317","A29.jpg","3",".","37","0","569"
"90968976","6","encoding","encoding","318","A25.jpg","3",".","37","0","662"
"90968976","6","encoding","encoding","319","A47.jpg","3",".","37","0","426"
"90968976","6","encoding","encoding","320","A5.jpg","3",".","37","0","523"
"90968976","6","encoding","encoding","321","B28.jpg","1",".","37","0","529"
"90968976","6","encoding","encoding","322","B59.jpg","1",".","37","0","82"
"90968976","6","encoding","encoding","323","A3.jpg","3",".","37","0","891"
"90968976","6","encoding","encoding","324","B15.jpg","1",".","37","0","815"
"90968976","6","encoding","encoding","325","A21.jpg","",".","37","0","622"
"90968976","6","retrieval","new_object","1","D25.jpg",".",".","37","1","853"
"90968976","6","retrieval","new_object","2","D53.jpg",".",".","37","1","940"
"90968976","6","retrieval","old_object","3","B47.jpg",".","1","37","0","770"
"90968976","6","retrieval","new_object","4","C61.jpg",".",".","37","1","1019"
"90968976","6","retrieval","new_object","5","C68.jpg",".",".","37","1","919"
"90968976","6","retrieval","old_object","6","A40.jpg",".","3","37","0","802"
"90968976","6","retrieval","new_object","7","D29.jpg",".",".","37","1","896"
"90968976","6","retrieval","old_object","8","B70.jpg",".","1","37","0","743"
"90968976","6","retrieval","old_object","9","A25.jpg",".","3","37","0","539"
"90968976","6","retrieval","old_object","10","B44.jpg",".","1","37","0","790"
"90968976","6","retrieval","new_object","11","D27.jpg",".",".","37","1","578"
"90968976","6","retrieval","old_object","12","A20.jpg",".","3","36","1","833"
"90968976","6","retrieval","old_object","13","B22.jpg",".","1","37","0","521"
"90968976","6","retrieval","new_object","14","D8.jpg",".",".","37","1","259"
"90968976","6","retrieval","old_object","15","B6.jpg",".","1","37","0","629"
"90968976","6","retrieval","old_object","16","B25.jpg",".","1","37","0","505"
"90968976","6","retrieval","old_object","17","A72.jpg",".","3","36","1","158"
"90968976","6","retrieval","old_object","18","A78.jpg",".","3","37","0","5"
"90968976","6","retrieval","new_object","19","D5.jpg",".",".","37","1","264"
"90968976","6","retrieval","new_object","20","C6.jpg",".",".","36","0","608"
"90968976","6","retrieval","new_object","21","D44.jpg",".",".","37","1","32"
"90968976","6","retrieval","new_object","22","D65.jpg",".",".","37","1","134"
"90968976","6","retrieval","old_object","23","A44.jpg",".","3","36","1","143"
"90968976","6","retrieval","old_object","24","A57.jpg",".","3","36","1","332"
"90968976","6","retrieval","new_object","25","D32.jpg",".",".","37","1","785"
"90968976","6","retrieval","old_object","26","A24.jpg",".","3","36","1","405"
"90968976","6","retrieval","old_object","27","B16.jpg",".","1","36","1","1075"
"90968976","6","retrieval","old_object","28","B60.jpg",".","1","36","1","1119"
"90968976","6","retrieval","new_object","29","C40.jpg",".",".","36","0","190"
"90968976","6","retrieval","old_object","30","B55.jpg",".","1","36","1","513"
"90968976","6","retrieval","old_object","31","A49.jpg",".","3","36","1","538"
"90968976","6","retrieval","old_object","32","B76.jpg",".","1","36","1","964"
"90968976","6","retrieval","new_object","33","D30.jpg",".",".","36","0","848"
"90968976","6","retrieval","new_object","34","D3.jpg",".",".","36","0","847"
"90968976","6","retrieval","new_object","35","C70.jpg",".",".","36","0","772"
"90968976","6","retrieval","new_object","36","D56.jpg",".",".","36","0","973"
"90968976","6","retrieval","new_object","37","D10.jpg",".",".","36","0","618"
"90968976","6","retrieval","new_object","38","D76.jpg",".",".","36","0","1371"
"90968976","6","retrieval","old_object","39","B27.jpg",".","1","36","1","1552"
"90968976","6","retrieval","old_object","40","B32.jpg",".","1","36","1","1264"
"90968976","6","retrieval","old_object","41","A59.jpg",".","3","36","1","1755"
"90968976","6","retrieval","new_object","42","C49.jpg",".",".","37","1","806"
"90968976","6","retrieval","new_object","43","D18.jpg",".",".","36","0","136"
"90968976","6","retrieval","new_object","44","D75.jpg",".",".","36","0","165"
"90968976","6","retrieval","old_object","45","B1.jpg",".","1","36","1","766"
"90968976","6","retrieval","old_object","46","A54.jpg",".","3","36","1","472"
"90968976","6","retrieval","old_object","47","A79.jpg",".","3","37","0","996"
"90968976","6","retrieval","new_object","48","C41.jpg",".",".","36","0","439"
"90968976","6","retrieval","old_object","49","A42.jpg",".","3","36","1","581"
"90968976","6","retrieval","new_object","50","D52.jpg",".",".","37","1","930"
"90968976","6","retrieval","new_object","51","C11.jpg",".",".","36","0","1192"
"90968976","6","retrieval","old_object","52","B23.jpg",".","1","36","1","951"
"90968976","6","retrieval","new_object","53","C34.jpg",".",".","36","0","1200"
"90968976","6","retrieval","old_object","54","B43.jpg",".","1","36","1","837"
"90968976","6","retrieval","old_object","55","A22.jpg",".","3","36","1","662"
"90968976","6","retrieval","new_object","56","C78.jpg",".",".","37","1","976"
"90968976","6","retrieval","new_object","57","C9.jpg",".",".","36","0","721"
"90968976","6","retrieval","old_object","58","A74.jpg",".","3","36","1","837"
"90968976","6","retrieval","new_object","59","D59.jpg",".",".","36","0","857"
"90968976","6","retrieval","old_object","60","B0.jpg",".","1","36","1","810"
"90968976","6","retrieval","old_object","61","A28.jpg",".","3","36","1","419"
"90968976","6","retrieval","old_object","62","A65.jpg",".","3","36","1","167"
"90968976","6","retrieval","new_object","63","D61.jpg",".",".","36","0","1292"
"90968976","6","retrieval","old_object","64","A4.jpg",".","3","36","1","836"
"90968976","6","retrieval","new_object","65","D69.jpg",".",".","37","1","970"
"90968976","6","retrieval","old_object","67","B3.jpg",".","1","36","1","1110"
"90968976","6","retrieval","old_object","68","B67.jpg",".","1","36","1","1128"
"90968976","6","retrieval","old_object","69","B45.jpg",".","1","37","0","1055"
"90968976","6","retrieval","new_object","70","C76.jpg",".",".","36","0","646"
"90968976","6","retrieval","new_object","71","D63.jpg",".",".","36","0","741"
"90968976","6","retrieval","old_object","72","A8.jpg",".","3","36","1","1587"
"90968976","6","retrieval","old_object","73","B78.jpg",".","1","0","0","2000"
"90968976","6","retrieval","old_object","74","B46.jpg",".","1","36","1","517"
"90968976","6","retrieval","old_object","75","B72.jpg",".","1","36","1","1808"
"90968976","6","retrieval","old_object","76","A61.jpg",".","3","36","1","1151"
"90968976","6","retrieval","new_object","77","C36.jpg",".",".","37","1","836"
"90968976","6","retrieval","old_object","78","A77.jpg",".","3","36","1","783"
"90968976","6","retrieval","old_object","79","B64.jpg",".","1","36","1","695"
"90968976","6","retrieval","old_object","80","B12.jpg",".","1","36","1","1333"
"90968976","6","retrieval","new_object","81","D41.jpg",".",".","36","0","1116"
"90968976","6","retrieval","old_object","82","B26.jpg",".","1","36","1","554"
"90968976","6","retrieval","new_object","83","C26.jpg",".",".","36","0","611"
"90968976","6","retrieval","new_object","84","C28.jpg",".",".","36","0","930"
"90968976","6","retrieval","new_object","85","D48.jpg",".",".","36","0","1350"
"90968976","6","retrieval","new_object","86","D62.jpg",".",".","36","0","991"
"90968976","6","retrieval","old_object","87","B62.jpg",".","1","36","1","851"
"90968976","6","retrieval","old_object","88","B50.jpg",".","1","36","1","682"
"90968976","6","retrieval","new_object","89","C54.jpg",".",".","37","1","863"
"90968976","6","retrieval","old_object","90","B7.jpg",".","1","36","1","408"
"90968976","6","retrieval","new_object","91","D1.jpg",".",".","36","0","310"
"90968976","6","retrieval","new_object","92","C37.jpg",".",".","36","0","110"
"90968976","6","retrieval","old_object","93","B20.jpg",".","1","37","0","860"
"90968976","6","retrieval","new_object","94","C8.jpg",".",".","37","1","962"
"90968976","6","retrieval","new_object","95","D35.jpg",".",".","37","1","1358"
"90968976","6","retrieval","new_object","96","D17.jpg",".",".","37","1","1582"
"90968976","6","retrieval","new_object","97","D78.jpg",".",".","0","0","2000"
"90968976","6","retrieval","new_object","98","D60.jpg",".",".","37","1","1310"
"90968976","6","retrieval","new_object","99","C22.jpg",".",".","36","0","1295"
"90968976","6","retrieval","old_object","100","A69.jpg",".","3","37","0","703"
"90968976","6","retrieval","new_object","101","C77.jpg",".",".","36","0","703"
"90968976","6","retrieval","old_object","102","A27.jpg",".","3","37","0","559"
"90968976","6","retrieval","new_object","103","D51.jpg",".",".","36","0","555"
"90968976","6","retrieval","old_object","104","B14.jpg",".","1","37","0","634"
"90968976","6","retrieval","new_object","105","D38.jpg",".",".","36","0","828"
"90968976","6","retrieval","new_object","106","C58.jpg",".",".","36","0","577"
"90968976","6","retrieval","old_object","107","B30.jpg",".","1","36","1","1183"
"90968976","6","retrieval","new_object","108","D0.jpg",".",".","36","0","912"
"90968976","6","retrieval","new_object","109","C53.jpg",".",".","36","0","508"
"90968976","6","retrieval","old_object","110","B56.jpg",".","1","36","1","802"
"90968976","6","retrieval","new_object","111","D20.jpg",".",".","36","0","1373"
"90968976","6","retrieval","old_object","112","A19.jpg",".","3","36","1","855"
"90968976","6","retrieval","new_object","113","D68.jpg",".",".","36","0","838"
"90968976","6","retrieval","new_object","114","D14.jpg",".",".","37","1","575"
"90968976","6","retrieval","old_object","115","A38.jpg",".","3","36","1","382"
"90968976","6","retrieval","old_object","116","A45.jpg",".","3","36","1","662"
"90968976","6","retrieval","old_object","117","B48.jpg",".","1","36","1","1047"
"90968976","6","retrieval","new_object","118","D9.jpg",".",".","36","0","357"
"90968976","6","retrieval","old_object","119","B29.jpg",".","1","36","1","584"
"90968976","6","retrieval","old_object","120","B37.jpg",".","1","36","1","403"
"90968976","6","retrieval","old_object","121","A14.jpg",".","3","36","1","556"
"90968976","6","retrieval","old_object","122","A26.jpg",".","3","36","1","4"
"90968976","6","retrieval","old_object","123","B69.jpg",".","1","36","1","1140"
"90968976","6","retrieval","new_object","124","C23.jpg",".",".","36","0","533"
"90968976","6","retrieval","new_object","125","C33.jpg",".",".","36","0","434"
"90968976","6","retrieval","old_object","126","A66.jpg",".","3","36","1","873"
"90968976","6","retrieval","new_object","127","D42.jpg",".",".","36","0","741"
"90968976","6","retrieval","old_object","128","B31.jpg",".","1","36","1","471"
"90968976","6","retrieval","old_object","129","A67.jpg",".","3","36","1","791"
"90968976","6","retrieval","new_object","130","D7.jpg",".",".","37","1","658"
"90968976","6","retrieval","old_object","131","B9.jpg",".","1","36","1","1266"
"90968976","6","retrieval","old_object","133","B42.jpg",".","1","36","1","874"
"90968976","6","retrieval","new_object","134","D19.jpg",".",".","36","0","624"
"90968976","6","retrieval","new_object","135","D13.jpg",".",".","36","0","348"
"90968976","6","retrieval","new_object","136","C71.jpg",".",".","36","0","609"
"90968976","6","retrieval","new_object","137","D37.jpg",".",".","36","0","693"
"90968976","6","retrieval","old_object","138","A68.jpg",".","3","36","1","484"
"90968976","6","retrieval","old_object","139","A64.jpg",".","3","36","1","418"
"90968976","6","retrieval","new_object","140","C39.jpg",".",".","36","0","250"
"90968976","6","retrieval","new_object","141","C29.jpg",".",".","36","0","1069"
"90968976","6","retrieval","old_object","142","A30.jpg",".","3","36","1","1897"
"90968976","6","retrieval","old_object","143","B36.jpg",".","1","36","1","983"
"90968976","6","retrieval","new_object","144","C4.jpg",".",".","36","0","374"
"90968976","6","retrieval","old_object","145","A55.jpg",".","3","36","1","599"
"90968976","6","retrieval","old_object","146","A36.jpg",".","3","36","1","522"
"90968976","6","retrieval","new_object","147","C74.jpg",".",".","37","1","798"
"90968976","6","retrieval","old_object","148","B59.jpg",".","1","36","1","502"
"90968976","6","retrieval","new_object","149","C59.jpg",".",".","36","0","720"
"90968976","6","retrieval","new_object","150","D12.jpg",".",".","37","1","701"
"90968976","6","retrieval","old_object","151","A9.jpg",".","3","36","1","660"
"90968976","6","retrieval","old_object","152","B2.jpg",".","1","36","1","930"
"90968976","6","retrieval","new_object","153","C51.jpg",".",".","37","1","831"
"90968976","6","retrieval","new_object","154","C66.jpg",".",".","36","0","964"
"90968976","6","retrieval","new_object","155","D15.jpg",".",".","36","0","642"
"90968976","6","retrieval","new_object","156","C15.jpg",".",".","36","0","675"
"90968976","6","retrieval","new_object","157","C7.jpg",".",".","36","0","633"
"90968976","6","retrieval","new_object","158","D16.jpg",".",".","37","1","702"
"90968976","6","retrieval","new_object","159","D33.jpg",".",".","36","0","526"
"90968976","6","retrieval","new_object","160","C35.jpg",".",".","36","0","822"
"90968976","6","retrieval","old_object","161","A60.jpg",".","3","37","0","1052"
"90968976","6","retrieval","old_object","162","B13.jpg",".","1","36","1","1019"
"90968976","6","retrieval","new_object","163","C25.jpg",".",".","36","0","923"
"90968976","6","retrieval","new_object","164","C10.jpg",".",".","36","0","624"
"90968976","6","retrieval","old_object","165","A75.jpg",".","3","37","0","644"
"90968976","6","retrieval","new_object","166","D47.jpg",".",".","36","0","442"
"90968976","6","retrieval","new_object","167","C24.jpg",".",".","36","0","691"
"90968976","6","retrieval","old_object","168","B71.jpg",".","1","36","1","602"
"90968976","6","retrieval","old_object","169","B21.jpg",".","1","36","1","447"
"90968976","6","retrieval","old_object","170","A12.jpg",".","3","37","0","54"
"90968976","6","retrieval","new_object","171","D28.jpg",".",".","36","0","784"
"90968976","6","retrieval","new_object","172","C65.jpg",".",".","36","0","1334"
"90968976","6","retrieval","new_object","173","D50.jpg",".",".","36","0","1318"
"90968976","6","retrieval","old_object","174","A53.jpg",".","3","36","1","1194"
"90968976","6","retrieval","old_object","175","A23.jpg",".","3","36","1","1349"
"90968976","6","retrieval","old_object","176","A21.jpg",".","3","37","0","1095"
"90968976","6","retrieval","old_object","177","A58.jpg",".","3","36","1","331"
"90968976","6","retrieval","new_object","178","C79.jpg",".",".","36","0","692"
"90968976","6","retrieval","new_object","179","C14.jpg",".",".","37","1","994"
"90968976","6","retrieval","old_object","180","B38.jpg",".","1","37","0","1176"
"90968976","6","retrieval","new_object","181","C1.jpg",".",".","36","0","513"
"90968976","6","retrieval","new_object","182","C60.jpg",".",".","36","0","708"
"90968976","6","retrieval","new_object","183","D40.jpg",".",".","36","0","942"
"90968976","6","retrieval","old_object","184","A41.jpg",".","3","36","1","972"
"90968976","6","retrieval","new_object","185","D6.jpg",".",".","36","0","39"
"90968976","6","retrieval","old_object","186","A17.jpg",".","3","36","1","1124"
"90968976","6","retrieval","new_object","187","C44.jpg",".",".","36","0","333"
"90968976","6","retrieval","old_object","188","B8.jpg",".","1","36","1","126"
"90968976","6","retrieval","new_object","189","C13.jpg",".",".","36","0","729"
"90968976","6","retrieval","new_object","190","C72.jpg",".",".","36","0","1049"
"90968976","6","retrieval","new_object","191","C63.jpg",".",".","37","1","1028"
"90968976","6","retrieval","new_object","192","C64.jpg",".",".","37","1","894"
"90968976","6","retrieval","new_object","193","C67.jpg",".",".","36","0","1122"
"90968976","6","retrieval","new_object","194","D55.jpg",".",".","37","1","1144"
"90968976","6","retrieval","old_object","195","B65.jpg",".","1","37","0","1616"
"90968976","6","retrieval","old_object","196","A3.jpg",".","3","36","1","1025"
"90968976","6","retrieval","new_object","197","C32.jpg",".",".","37","1","1185"
"90968976","6","retrieval","new_object","199","C43.jpg",".",".","36","0","613"
"90968976","6","retrieval","old_object","200","B77.jpg",".","1","36","1","1631"
"90968976","6","retrieval","old_object","201","A1.jpg",".","3","36","1","1468"
"90968976","6","retrieval","old_object","202","B19.jpg",".","1","36","1","1466"
"90968976","6","retrieval","old_object","203","B54.jpg",".","1","36","1","1090"
"90968976","6","retrieval","new_object","204","D66.jpg",".",".","36","0","203"
"90968976","6","retrieval","old_object","205","B49.jpg",".","1","36","1","1394"
"90968976","6","retrieval","old_object","206","A31.jpg",".","3","36","1","1073"
"90968976","6","retrieval","new_object","207","C19.jpg",".",".","36","0","1119"
"90968976","6","retrieval","old_object","208","B61.jpg",".","1","37","0","1016"
"90968976","6","retrieval","old_object","209","B18.jpg",".","1","36","1","878"
"90968976","6","retrieval","new_object","210","C47.jpg",".",".","36","0","1036"
"90968976","6","retrieval","new_object","211","C45.jpg",".",".","37","1","823"
"90968976","6","retrieval","new_object","212","C48.jpg",".",".","36","0","1100"
"90968976","6","retrieval","old_object","213","B4.jpg",".","1","37","0","1028"
"90968976","6","retrieval","old_object","214","A50.jpg",".","3","37","0","669"
"90968976","6","retrieval","new_object","215","C46.jpg",".",".","36","0","345"
"90968976","6","retrieval","old_object","216","A71.jpg",".","3","36","1","986"
"90968976","6","retrieval","new_object","217","D23.jpg",".",".","36","0","1382"
"90968976","6","retrieval","old_object","218","B33.jpg",".","1","37","0","924"
"90968976","6","retrieval","new_object","219","D2.jpg",".",".","36","0","862"
"90968976","6","retrieval","old_object","220","A46.jpg",".","3","36","1","1268"
"90968976","6","retrieval","new_object","221","C57.jpg",".",".","37","1","1192"
"90968976","6","retrieval","new_object","222","D73.jpg",".",".","37","1","1015"
"90968976","6","retrieval","new_object","223","D54.jpg",".",".","36","0","774"
"90968976","6","retrieval","old_object","224","A35.jpg",".","3","37","0","733"
"90968976","6","retrieval","new_object","225","D45.jpg",".",".","37","1","1329"
"90968976","6","retrieval","old_object","226","B11.jpg",".","1","37","0","1147"
"90968976","6","retrieval","old_object","227","B41.jpg",".","1","37","0","832"
"90968976","6","retrieval","old_object","228","A70.jpg",".","3","37","0","841"
"90968976","6","retrieval","new_object","229","D39.jpg",".",".","37","1","721"
"90968976","6","retrieval","old_object","230","A0.jpg",".","3","37","0","995"
"90968976","6","retrieval","new_object","231","D21.jpg",".",".","36","0","1040"
"90968976","6","retrieval","new_object","232","C16.jpg",".",".","37","1","943"
"90968976","6","retrieval","old_object","233","A73.jpg",".","3","37","0","1612"
"90968976","6","retrieval","new_object","234","C2.jpg",".",".","37","1","994"
"90968976","6","retrieval","old_object","235","B74.jpg",".","1","36","1","1034"
"90968976","6","retrieval","new_object","236","C0.jpg",".",".","36","0","878"
"90968976","6","retrieval","new_object","237","D72.jpg",".",".","37","1","856"
"90968976","6","retrieval","new_object","238","D64.jpg",".",".","37","1","941"
"90968976","6","retrieval","old_object","239","B35.jpg",".","1","36","1","621"
"90968976","6","retrieval","new_object","240","C73.jpg",".",".","36","0","831"
"90968976","6","retrieval","new_object","241","C31.jpg",".",".","37","1","779"
"90968976","6","retrieval","old_object","242","B24.jpg",".","1","36","1","1208"
"90968976","6","retrieval","old_object","243","A16.jpg",".","3","37","0","952"
"90968976","6","retrieval","new_object","244","D49.jpg",".",".","37","1","1284"
"90968976","6","retrieval","new_object","245","C62.jpg",".",".","36","0","948"
"90968976","6","retrieval","new_object","246","D36.jpg",".",".","36","0","1110"
"90968976","6","retrieval","new_object","247","C5.jpg",".",".","36","0","1605"
"90968976","6","retrieval","old_object","248","A33.jpg",".","3","37","0","996"
"90968976","6","retrieval","new_object","249","D26.jpg",".",".","36","0","891"
"90968976","6","retrieval","new_object","250","C75.jpg",".",".","36","0","743"
"90968976","6","retrieval","old_object","251","B66.jpg",".","1","36","1","1166"
"90968976","6","retrieval","old_object","252","A2.jpg",".","3","36","1","774"
"90968976","6","retrieval","old_object","253","B28.jpg",".","1","37","0","1000"
"90968976","6","retrieval","old_object","254","A51.jpg",".","3","36","1","825"
"90968976","6","retrieval","new_object","255","D57.jpg",".",".","36","0","817"
"90968976","6","retrieval","old_object","256","A62.jpg",".","3","37","0","720"
"90968976","6","retrieval","old_object","257","A32.jpg",".","3","36","1","618"
"90968976","6","retrieval","old_object","258","B53.jpg",".","1","36","1","560"
"90968976","6","retrieval","new_object","259","C69.jpg",".",".","36","0","1105"
"90968976","6","retrieval","new_object","260","C50.jpg",".",".","37","1","774"
"90968976","6","retrieval","old_object","261","A76.jpg",".","3","36","1","740"
"90968976","6","retrieval","new_object","262","D58.jpg",".",".","37","1","953"
"90968976","6","retrieval","old_object","263","A6.jpg",".","3","36","1","635"
"90968976","6","retrieval","old_object","265","A48.jpg",".","3","36","1","659"
"90968976","6","retrieval","old_object","266","B68.jpg",".","1","36","1","485"
"90968976","6","retrieval","old_object","267","A10.jpg",".","3","37","0","558"
"90968976","6","retrieval","new_object","268","C27.jpg",".",".","36","0","245"
"90968976","6","retrieval","old_object","269","A18.jpg",".","3","36","1","290"
"90968976","6","retrieval","old_object","270","B51.jpg",".","1","37","0","114"
"90968976","6","retrieval","new_object","271","C30.jpg",".",".","36","0","837"
"90968976","6","retrieval","old_object","272","A15.jpg",".","3","36","1","1834"
"90968976","6","retrieval","old_object","273","A29.jpg",".","3","36","1","931"
"90968976","6","retrieval","old_object","274","B5.jpg",".","1","36","1","950"
"90968976","6","retrieval","new_object","275","C3.jpg",".",".","36","0","1421"
"90968976","6","retrieval","new_object","276","D67.jpg",".",".","36","0","766"
"90968976","6","retrieval","old_object","277","A47.jpg",".","3","36","1","809"
"90968976","6","retrieval","new_object","278","D79.jpg",".",".","37","1","1001"
"90968976","6","retrieval","old_object","279","B79.jpg",".","1","36","1","851"
"90968976","6","retrieval","old_object","280","B17.jpg",".","1","36","1","613"
"90968976","6","retrieval","old_object","281","B15.jpg",".","1","36","1","919"
"90968976","6","retrieval","old_object","282","B34.jpg",".","1","0","0","2000"
"90968976","6","retrieval","new_object","283","D74.jpg",".",".","36","0","923"
"90968976","6","retrieval","new_object","284","D4.jpg",".",".","36","0","819"
"90968976","6","retrieval","old_object","285","A5.jpg",".","3","36","1","1017"
"90968976","6","retrieval","new_object","286","C38.jpg",".",".","36","0","724"
"90968976","6","retrieval","old_object","287","A56.jpg",".","3","36","1","951"
"90968976","6","retrieval","old_object","288","B75.jpg",".","1","37","0","1544"
"90968976","6","retrieval","old_object","289","A63.jpg",".","3","36","1","1081"
"90968976","6","retrieval","old_object","290","A39.jpg",".","3","36","1","864"
"90968976","6","retrieval","new_object","291","D70.jpg",".",".","36","0","1060"
