"group","subject","blockcode","trialcode","trialnum","stimulus","encoding_condition","old_object_condition","response","correct","latency"
"3","3","encoding","encoding","1","G53.jpg","1",".","37","0","747"
"3","3","encoding","encoding","2","H10.jpg","3",".","37","0","794"
"3","3","encoding","encoding","3","H22.jpg","3",".","37","0","746"
"3","3","encoding","encoding","4","G70.jpg","1",".","37","0","586"
"3","3","encoding","encoding","5","H23.jpg","3",".","37","0","570"
"3","3","encoding","encoding","6","G57.jpg","1",".","37","0","633"
"3","3","encoding","encoding","7","H67.jpg","3",".","37","0","793"
"3","3","encoding","encoding","8","H6.jpg","3",".","37","0","665"
"3","3","encoding","encoding","9","H51.jpg","3",".","37","0","490"
"3","3","encoding","encoding","10","H27.jpg","3",".","37","0","472"
"3","3","encoding","encoding","11","H29.jpg","3",".","37","0","472"
"3","3","encoding","encoding","12","H17.jpg","3",".","37","0","776"
"3","3","encoding","encoding","13","G41.jpg","1",".","37","0","568"
"3","3","encoding","encoding","14","H53.jpg","3",".","37","0","648"
"3","3","encoding","encoding","15","H69.jpg","3",".","37","0","503"
"3","3","encoding","encoding","16","H31.jpg","3",".","37","0","648"
"3","3","encoding","encoding","17","H12.jpg","3",".","36","0","552"
"3","3","encoding","encoding","18","G55.jpg","1",".","37","0","839"
"3","3","encoding","encoding","19","G6.jpg","1",".","37","0","598"
"3","3","encoding","encoding","20","H17.jpg","3",".","37","0","454"
"3","3","encoding","encoding","21","H0.jpg","3",".","37","0","758"
"3","3","encoding","encoding","22","H54.jpg","3",".","36","0","598"
"3","3","encoding","encoding","23","H24.jpg","3",".","37","0","695"
"3","3","encoding","encoding","24","H11.jpg","3",".","37","0","533"
"3","3","encoding","encoding","25","H41.jpg","3",".","37","0","805"
"3","3","encoding","encoding","26","H62.jpg","3",".","37","0","597"
"3","3","encoding","encoding","27","G47.jpg","1",".","37","0","486"
"3","3","encoding","encoding","28","H22.jpg","3",".","37","0","421"
"3","3","encoding","encoding","29","H11.jpg","3",".","37","0","708"
"3","3","encoding","encoding","30","H5.jpg","3",".","37","0","565"
"3","3","encoding","encoding","31","H1.jpg","3",".","37","0","452"
"3","3","encoding","encoding","32","H50.jpg","3",".","37","0","420"
"3","3","encoding","encoding","33","H45.jpg","3",".","36","0","771"
"3","3","encoding","encoding","34","H38.jpg","3",".","37","0","675"
"3","3","encoding","encoding","35","H24.jpg","3",".","37","0","723"
"3","3","encoding","encoding","36","H16.jpg","3",".","37","0","867"
"3","3","encoding","encoding","37","H44.jpg","3",".","37","0","628"
"3","3","encoding","encoding","38","H63.jpg","3",".","37","0","530"
"3","3","encoding","encoding","39","H8.jpg","3",".","37","0","962"
"3","3","encoding","encoding","40","G30.jpg","1",".","37","0","706"
"3","3","encoding","encoding","41","G39.jpg","1",".","37","0","898"
"3","3","encoding","encoding","42","G34.jpg","1",".","37","0","706"
"3","3","encoding","encoding","43","G4.jpg","1",".","37","0","609"
"3","3","encoding","encoding","44","H72.jpg","3",".","37","0","673"
"3","3","encoding","encoding","45","G43.jpg","1",".","37","0","482"
"3","3","encoding","encoding","46","G36.jpg","1",".","37","0","609"
"3","3","encoding","encoding","47","H19.jpg","3",".","37","0","545"
"3","3","encoding","encoding","48","H57.jpg","3",".","37","0","448"
"3","3","encoding","encoding","49","G15.jpg","1",".","36","0","737"
"3","3","encoding","encoding","50","H66.jpg","3",".","37","0","608"
"3","3","encoding","encoding","51","H7.jpg","3",".","36","0","576"
"3","3","encoding","encoding","52","G44.jpg","1",".","37","0","559"
"3","3","encoding","encoding","53","H48.jpg","3",".","37","0","591"
"3","3","encoding","encoding","54","G49.jpg","1",".","0","0","1009"
"3","3","encoding","encoding","55","H43.jpg","3",".","37","0","607"
"3","3","encoding","encoding","56","H21.jpg","3",".","37","0","670"
"3","3","encoding","encoding","57","H47.jpg","3",".","37","0","558"
"3","3","encoding","encoding","58","H54.jpg","3",".","36","0","574"
"3","3","encoding","encoding","59","H13.jpg","3",".","37","0","463"
"3","3","encoding","encoding","60","H75.jpg","3",".","37","0","623"
"3","3","encoding","encoding","61","H79.jpg","3",".","37","0","445"
"3","3","encoding","encoding","62","H39.jpg","3",".","37","0","444"
"3","3","encoding","encoding","63","G11.jpg","1",".","37","0","411"
"3","3","encoding","encoding","64","H51.jpg","3",".","37","0","588"
"3","3","encoding","encoding","65","H66.jpg","3",".","37","0","491"
"3","3","encoding","encoding","67","H48.jpg","3",".","37","0","646"
"3","3","encoding","encoding","68","H59.jpg","3",".","37","0","662"
"3","3","encoding","encoding","69","H13.jpg","3",".","37","0","597"
"3","3","encoding","encoding","70","H37.jpg","3",".","37","0","469"
"3","3","encoding","encoding","71","H13.jpg","3",".","37","0","357"
"3","3","encoding","encoding","72","H71.jpg","3",".","37","0","485"
"3","3","encoding","encoding","73","H55.jpg","3",".","37","0","420"
"3","3","encoding","encoding","74","G42.jpg","1",".","0","0","1009"
"3","3","encoding","encoding","75","H62.jpg","3",".","0","0","1009"
"3","3","encoding","encoding","76","H70.jpg","3",".","37","0","755"
"3","3","encoding","encoding","77","G72.jpg","1",".","37","0","500"
"3","3","encoding","encoding","78","H68.jpg","3",".","37","0","499"
"3","3","encoding","encoding","79","G60.jpg","1",".","37","0","499"
"3","3","encoding","encoding","80","G48.jpg","1",".","37","0","466"
"3","3","encoding","encoding","81","H30.jpg","3",".","37","0","610"
"3","3","encoding","encoding","82","H9.jpg","3",".","37","0","546"
"3","3","encoding","encoding","83","H40.jpg","3",".","37","0","483"
"3","3","encoding","encoding","84","H15.jpg","3",".","37","0","529"
"3","3","encoding","encoding","85","H49.jpg","3",".","36","0","577"
"3","3","encoding","encoding","86","H43.jpg","3",".","37","0","689"
"3","3","encoding","encoding","87","H71.jpg","3",".","37","0","497"
"3","3","encoding","encoding","88","H28.jpg","3",".","36","0","608"
"3","3","encoding","encoding","89","H41.jpg","3",".","37","0","416"
"3","3","encoding","encoding","90","H65.jpg","3",".","37","0","480"
"3","3","encoding","encoding","91","H3.jpg","3",".","37","0","480"
"3","3","encoding","encoding","92","H32.jpg","3",".","37","0","608"
"3","3","encoding","encoding","93","H60.jpg","3",".","37","0","639"
"3","3","encoding","encoding","94","H30.jpg","3",".","37","0","543"
"3","3","encoding","encoding","95","G1.jpg","1",".","37","0","463"
"3","3","encoding","encoding","96","H4.jpg","3",".","37","0","511"
"3","3","encoding","encoding","97","G35.jpg","1",".","37","0","718"
"3","3","encoding","encoding","98","H16.jpg","3",".","37","0","542"
"3","3","encoding","encoding","99","G17.jpg","1",".","37","0","526"
"3","3","encoding","encoding","100","H44.jpg","3",".","37","0","462"
"3","3","encoding","encoding","101","H25.jpg","3",".","37","0","462"
"3","3","encoding","encoding","102","H79.jpg","3",".","37","0","461"
"3","3","encoding","encoding","103","G38.jpg","1",".","36","0","605"
"3","3","encoding","encoding","104","H39.jpg","3",".","37","0","558"
"3","3","encoding","encoding","105","H31.jpg","3",".","37","0","637"
"3","3","encoding","encoding","106","G75.jpg","1",".","36","0","605"
"3","3","encoding","encoding","107","H55.jpg","3",".","37","0","492"
"3","3","encoding","encoding","108","H26.jpg","3",".","37","0","924"
"3","3","encoding","encoding","109","H61.jpg","3",".","37","0","717"
"3","3","encoding","encoding","110","H72.jpg","3",".","37","0","556"
"3","3","encoding","encoding","111","G77.jpg","1",".","37","0","475"
"3","3","encoding","encoding","112","H54.jpg","3",".","36","0","524"
"3","3","encoding","encoding","113","H14.jpg","3",".","37","0","411"
"3","3","encoding","encoding","114","H78.jpg","3",".","37","0","539"
"3","3","encoding","encoding","115","H28.jpg","3",".","36","0","572"
"3","3","encoding","encoding","116","G21.jpg","1",".","37","0","474"
"3","3","encoding","encoding","117","H20.jpg","3",".","37","0","603"
"3","3","encoding","encoding","118","H30.jpg","3",".","37","0","458"
"3","3","encoding","encoding","119","G51.jpg","1",".","37","0","426"
"3","3","encoding","encoding","120","H64.jpg","3",".","37","0","505"
"3","3","encoding","encoding","121","H15.jpg","3",".","37","0","585"
"3","3","encoding","encoding","122","H1.jpg","3",".","37","0","713"
"3","3","encoding","encoding","123","H19.jpg","3",".","0","0","1009"
"3","3","encoding","encoding","124","H12.jpg","3",".","37","0","505"
"3","3","encoding","encoding","125","G45.jpg","1",".","37","0","536"
"3","3","encoding","encoding","126","H45.jpg","3",".","37","0","713"
"3","3","encoding","encoding","127","H68.jpg","3",".","37","0","520"
"3","3","encoding","encoding","128","H78.jpg","3",".","37","0","472"
"3","3","encoding","encoding","129","H29.jpg","3",".","37","0","488"
"3","3","encoding","encoding","130","H26.jpg","3",".","37","0","439"
"3","3","encoding","encoding","131","H9.jpg","3",".","37","0","375"
"3","3","encoding","encoding","133","H15.jpg","3",".","37","0","527"
"3","3","encoding","encoding","134","H25.jpg","3",".","37","0","543"
"3","3","encoding","encoding","135","H4.jpg","3",".","37","0","480"
"3","3","encoding","encoding","136","H6.jpg","3",".","37","0","446"
"3","3","encoding","encoding","137","H33.jpg","3",".","37","0","414"
"3","3","encoding","encoding","138","H37.jpg","3",".","37","0","414"
"3","3","encoding","encoding","139","H53.jpg","3",".","37","0","782"
"3","3","encoding","encoding","140","G16.jpg","1",".","37","0","510"
"3","3","encoding","encoding","141","H56.jpg","3",".","37","0","445"
"3","3","encoding","encoding","142","G13.jpg","1",".","37","0","381"
"3","3","encoding","encoding","143","G62.jpg","1",".","37","0","445"
"3","3","encoding","encoding","144","H19.jpg","3",".","37","0","733"
"3","3","encoding","encoding","145","G0.jpg","1",".","37","0","524"
"3","3","encoding","encoding","146","H74.jpg","3",".","37","0","397"
"3","3","encoding","encoding","147","H40.jpg","3",".","37","0","460"
"3","3","encoding","encoding","148","H64.jpg","3",".","37","0","524"
"3","3","encoding","encoding","149","H62.jpg","3",".","37","0","573"
"3","3","encoding","encoding","150","G52.jpg","1",".","37","0","491"
"3","3","encoding","encoding","151","G24.jpg","1",".","37","0","635"
"3","3","encoding","encoding","152","G56.jpg","1",".","37","0","475"
"3","3","encoding","encoding","153","G40.jpg","1",".","37","0","443"
"3","3","encoding","encoding","154","G28.jpg","1",".","37","0","523"
"3","3","encoding","encoding","155","G64.jpg","1",".","37","0","442"
"3","3","encoding","encoding","156","H31.jpg","3",".","37","0","458"
"3","3","encoding","encoding","157","H18.jpg","3",".","37","0","474"
"3","3","encoding","encoding","158","H52.jpg","3",".","37","0","426"
"3","3","encoding","encoding","159","H47.jpg","3",".","37","0","377"
"3","3","encoding","encoding","160","H2.jpg","3",".","37","0","409"
"3","3","encoding","encoding","161","G46.jpg","1",".","37","0","377"
"3","3","encoding","encoding","162","H50.jpg","3",".","37","0","393"
"3","3","encoding","encoding","163","H68.jpg","3",".","37","0","427"
"3","3","encoding","encoding","164","G61.jpg","1",".","37","0","473"
"3","3","encoding","encoding","165","H33.jpg","3",".","37","0","440"
"3","3","encoding","encoding","166","H4.jpg","3",".","37","0","471"
"3","3","encoding","encoding","167","H34.jpg","3",".","37","0","568"
"3","3","encoding","encoding","168","H42.jpg","3",".","37","0","534"
"3","3","encoding","encoding","169","H65.jpg","3",".","37","0","439"
"3","3","encoding","encoding","170","H73.jpg","3",".","37","0","408"
"3","3","encoding","encoding","171","H2.jpg","3",".","37","0","423"
"3","3","encoding","encoding","172","G68.jpg","1",".","37","0","455"
"3","3","encoding","encoding","173","H36.jpg","3",".","37","0","470"
"3","3","encoding","encoding","174","H60.jpg","3",".","37","0","438"
"3","3","encoding","encoding","175","H66.jpg","3",".","37","0","406"
"3","3","encoding","encoding","176","H70.jpg","3",".","37","0","486"
"3","3","encoding","encoding","177","H0.jpg","3",".","37","0","454"
"3","3","encoding","encoding","178","H38.jpg","3",".","37","0","437"
"3","3","encoding","encoding","179","H17.jpg","3",".","37","0","469"
"3","3","encoding","encoding","180","H34.jpg","3",".","37","0","501"
"3","3","encoding","encoding","181","G66.jpg","1",".","37","0","501"
"3","3","encoding","encoding","182","G8.jpg","1",".","37","0","452"
"3","3","encoding","encoding","183","H8.jpg","3",".","37","0","468"
"3","3","encoding","encoding","184","G33.jpg","1",".","37","0","501"
"3","3","encoding","encoding","185","G78.jpg","1",".","37","0","580"
"3","3","encoding","encoding","186","H42.jpg","3",".","37","0","596"
"3","3","encoding","encoding","187","G23.jpg","1",".","37","0","531"
"3","3","encoding","encoding","188","H46.jpg","3",".","37","0","434"
"3","3","encoding","encoding","189","H5.jpg","3",".","37","0","435"
"3","3","encoding","encoding","190","G73.jpg","1",".","37","0","451"
"3","3","encoding","encoding","191","H73.jpg","3",".","37","0","546"
"3","3","encoding","encoding","192","H14.jpg","3",".","37","0","514"
"3","3","encoding","encoding","193","H53.jpg","3",".","37","0","465"
"3","3","encoding","encoding","194","H56.jpg","3",".","37","0","401"
"3","3","encoding","encoding","195","H1.jpg","3",".","37","0","401"
"3","3","encoding","encoding","196","G63.jpg","1",".","36","0","866"
"3","3","encoding","encoding","197","H2.jpg","3",".","37","0","496"
"3","3","encoding","encoding","199","H9.jpg","3",".","37","0","889"
"3","3","encoding","encoding","200","H63.jpg","3",".","36","0","667"
"3","3","encoding","encoding","201","H3.jpg","3",".","37","0","633"
"3","3","encoding","encoding","202","G37.jpg","1",".","37","0","697"
"3","3","encoding","encoding","203","H34.jpg","3",".","37","0","585"
"3","3","encoding","encoding","204","H39.jpg","3",".","37","0","520"
"3","3","encoding","encoding","205","H69.jpg","3",".","37","0","569"
"3","3","encoding","encoding","206","H77.jpg","3",".","37","0","488"
"3","3","encoding","encoding","207","G27.jpg","1",".","37","0","487"
"3","3","encoding","encoding","208","H79.jpg","3",".","37","0","792"
"3","3","encoding","encoding","209","G3.jpg","1",".","37","0","519"
"3","3","encoding","encoding","210","G5.jpg","1",".","37","0","1000"
"3","3","encoding","encoding","211","H22.jpg","3",".","37","0","630"
"3","3","encoding","encoding","212","H43.jpg","3",".","37","0","550"
"3","3","encoding","encoding","213","H47.jpg","3",".","37","0","469"
"3","3","encoding","encoding","214","G26.jpg","1",".","37","0","486"
"3","3","encoding","encoding","215","H46.jpg","3",".","37","0","405"
"3","3","encoding","encoding","216","H61.jpg","3",".","37","0","454"
"3","3","encoding","encoding","217","H20.jpg","3",".","37","0","436"
"3","3","encoding","encoding","218","H10.jpg","3",".","37","0","453"
"3","3","encoding","encoding","219","H7.jpg","3",".","36","0","581"
"3","3","encoding","encoding","220","G50.jpg","1",".","37","0","484"
"3","3","encoding","encoding","221","H25.jpg","3",".","37","0","501"
"3","3","encoding","encoding","222","H72.jpg","3",".","37","0","436"
"3","3","encoding","encoding","223","H56.jpg","3",".","37","0","451"
"3","3","encoding","encoding","224","H20.jpg","3",".","37","0","452"
"3","3","encoding","encoding","225","G58.jpg","1",".","37","0","451"
"3","3","encoding","encoding","226","G2.jpg","1",".","37","0","499"
"3","3","encoding","encoding","227","G74.jpg","1",".","37","0","483"
"3","3","encoding","encoding","228","H16.jpg","3",".","37","0","451"
"3","3","encoding","encoding","229","H18.jpg","3",".","37","0","451"
"3","3","encoding","encoding","230","H8.jpg","3",".","37","0","531"
"3","3","encoding","encoding","231","H40.jpg","3",".","37","0","433"
"3","3","encoding","encoding","232","H26.jpg","3",".","37","0","738"
"3","3","encoding","encoding","233","H77.jpg","3",".","37","0","530"
"3","3","encoding","encoding","234","H35.jpg","3",".","37","0","434"
"3","3","encoding","encoding","235","G29.jpg","1",".","37","0","512"
"3","3","encoding","encoding","236","H5.jpg","3",".","37","0","415"
"3","3","encoding","encoding","237","H36.jpg","3",".","37","0","463"
"3","3","encoding","encoding","238","H74.jpg","3",".","37","0","478"
"3","3","encoding","encoding","239","H50.jpg","3",".","37","0","462"
"3","3","encoding","encoding","240","H33.jpg","3",".","37","0","463"
"3","3","encoding","encoding","241","H71.jpg","3",".","37","0","478"
"3","3","encoding","encoding","242","H27.jpg","3",".","37","0","479"
"3","3","encoding","encoding","243","H67.jpg","3",".","37","0","478"
"3","3","encoding","encoding","244","H27.jpg","3",".","37","0","478"
"3","3","encoding","encoding","245","H48.jpg","3",".","37","0","509"
"3","3","encoding","encoding","246","H61.jpg","3",".","37","0","412"
"3","3","encoding","encoding","247","G18.jpg","1",".","37","0","412"
"3","3","encoding","encoding","248","G54.jpg","1",".","37","0","493"
"3","3","encoding","encoding","249","H63.jpg","3",".","37","0","811"
"3","3","encoding","encoding","250","G67.jpg","1",".","37","0","940"
"3","3","encoding","encoding","251","G22.jpg","1",".","37","0","939"
"3","3","encoding","encoding","252","G79.jpg","1",".","37","0","572"
"3","3","encoding","encoding","253","G69.jpg","1",".","37","0","586"
"3","3","encoding","encoding","254","G20.jpg","1",".","37","0","458"
"3","3","encoding","encoding","255","H12.jpg","3",".","37","0","490"
"3","3","encoding","encoding","256","H78.jpg","3",".","37","0","522"
"3","3","encoding","encoding","257","H23.jpg","3",".","37","0","539"
"3","3","encoding","encoding","258","H58.jpg","3",".","37","0","601"
"3","3","encoding","encoding","259","H76.jpg","3",".","37","0","553"
"3","3","encoding","encoding","260","H52.jpg","3",".","37","0","617"
"3","3","encoding","encoding","261","G76.jpg","1",".","37","0","840"
"3","3","encoding","encoding","262","H29.jpg","3",".","37","0","488"
"3","3","encoding","encoding","263","H24.jpg","3",".","37","0","489"
"3","3","encoding","encoding","265","H64.jpg","3",".","0","0","1009"
"3","3","encoding","encoding","266","H32.jpg","3",".","37","0","499"
"3","3","encoding","encoding","267","H42.jpg","3",".","37","0","499"
"3","3","encoding","encoding","268","G7.jpg","1",".","37","0","740"
"3","3","encoding","encoding","269","G9.jpg","1",".","37","0","819"
"3","3","encoding","encoding","270","H59.jpg","3",".","37","0","596"
"3","3","encoding","encoding","271","H76.jpg","3",".","37","0","482"
"3","3","encoding","encoding","272","H32.jpg","3",".","37","0","482"
"3","3","encoding","encoding","273","H57.jpg","3",".","37","0","642"
"3","3","encoding","encoding","274","H44.jpg","3",".","37","0","497"
"3","3","encoding","encoding","275","H10.jpg","3",".","37","0","578"
"3","3","encoding","encoding","276","H21.jpg","3",".","37","0","529"
"3","3","encoding","encoding","277","H58.jpg","3",".","37","0","608"
"3","3","encoding","encoding","278","H37.jpg","3",".","37","0","608"
"3","3","encoding","encoding","279","H18.jpg","3",".","37","0","544"
"3","3","encoding","encoding","280","H41.jpg","3",".","37","0","560"
"3","3","encoding","encoding","281","G10.jpg","1",".","37","0","576"
"3","3","encoding","encoding","282","H74.jpg","3",".","37","0","591"
"3","3","encoding","encoding","283","G65.jpg","1",".","37","0","672"
"3","3","encoding","encoding","284","H65.jpg","3",".","37","0","720"
"3","3","encoding","encoding","285","H35.jpg","3",".","37","0","783"
"3","3","encoding","encoding","286","H55.jpg","3",".","36","0","926"
"3","3","encoding","encoding","287","H57.jpg","3",".","37","0","590"
"3","3","encoding","encoding","288","H3.jpg","3",".","37","0","622"
"3","3","encoding","encoding","289","H49.jpg","3",".","36","0","622"
"3","3","encoding","encoding","290","H21.jpg","3",".","37","0","543"
"3","3","encoding","encoding","291","H59.jpg","3",".","37","0","573"
"3","3","encoding","encoding","292","H36.jpg","3",".","37","0","525"
"3","3","encoding","encoding","293","H77.jpg","3",".","37","0","719"
"3","3","encoding","encoding","294","G14.jpg","1",".","37","0","926"
"3","3","encoding","encoding","295","H23.jpg","3",".","37","0","508"
"3","3","encoding","encoding","296","G25.jpg","1",".","37","0","668"
"3","3","encoding","encoding","297","H67.jpg","3",".","37","0","476"
"3","3","encoding","encoding","298","H58.jpg","3",".","37","0","476"
"3","3","encoding","encoding","299","G12.jpg","1",".","37","0","509"
"3","3","encoding","encoding","300","G71.jpg","1",".","37","0","571"
"3","3","encoding","encoding","301","H46.jpg","3",".","37","0","812"
"3","3","encoding","encoding","302","H49.jpg","3",".","36","0","588"
"3","3","encoding","encoding","303","H73.jpg","3",".","37","0","523"
"3","3","encoding","encoding","304","H69.jpg","3",".","37","0","571"
"3","3","encoding","encoding","305","H75.jpg","3",".","37","0","874"
"3","3","encoding","encoding","306","H11.jpg","3",".","37","0","650"
"3","3","encoding","encoding","307","H52.jpg","3",".","37","0","538"
"3","3","encoding","encoding","308","G31.jpg","1",".","37","0","571"
"3","3","encoding","encoding","309","H7.jpg","3",".","36","0","554"
"3","3","encoding","encoding","310","H76.jpg","3",".","37","0","522"
"3","3","encoding","encoding","311","G19.jpg","1",".","37","0","538"
"3","3","encoding","encoding","312","G32.jpg","1",".","37","0","490"
"3","3","encoding","encoding","313","H60.jpg","3",".","37","0","474"
"3","3","encoding","encoding","314","H45.jpg","3",".","37","0","824"
"3","3","encoding","encoding","315","H75.jpg","3",".","37","0","744"
"3","3","encoding","encoding","316","H6.jpg","3",".","37","0","616"
"3","3","encoding","encoding","317","H28.jpg","3",".","36","0","569"
"3","3","encoding","encoding","318","H51.jpg","3",".","37","0","519"
"3","3","encoding","encoding","319","H70.jpg","3",".","37","0","759"
"3","3","encoding","encoding","320","G59.jpg","1",".","37","0","616"
"3","3","encoding","encoding","321","H0.jpg","3",".","37","0","615"
"3","3","encoding","encoding","322","H35.jpg","3",".","36","0","839"
"3","3","encoding","encoding","323","H38.jpg","3",".","37","0","503"
"3","3","encoding","encoding","324","H14.jpg","3",".","37","0","711"
"3","3","encoding","encoding","325","G53.jpg","",".","37","0","678"
"3","3","retrieval","old_object","1","G44.jpg",".","1","37","0","1140"
"3","3","retrieval","new_object","2","F32.jpg",".",".","37","1","1259"
"3","3","retrieval","old_object","3","H55.jpg",".","3","36","1","639"
"3","3","retrieval","old_object","4","G26.jpg",".","1","37","0","1189"
"3","3","retrieval","old_object","5","H16.jpg",".","3","36","1","891"
"3","3","retrieval","old_object","6","H31.jpg",".","3","36","1","655"
"3","3","retrieval","old_object","7","G37.jpg",".","1","37","0","1014"
"3","3","retrieval","new_object","8","E17.jpg",".",".","37","1","1034"
"3","3","retrieval","old_object","9","G22.jpg",".","1","36","1","929"
"3","3","retrieval","new_object","10","E15.jpg",".",".","37","1","1270"
"3","3","retrieval","old_object","11","G36.jpg",".","1","37","0","1419"
"3","3","retrieval","new_object","12","F31.jpg",".",".","37","1","1137"
"3","3","retrieval","new_object","13","F35.jpg",".",".","37","1","949"
"3","3","retrieval","new_object","14","F49.jpg",".",".","37","1","1004"
"3","3","retrieval","old_object","15","G3.jpg",".","1","36","1","1088"
"3","3","retrieval","old_object","16","G23.jpg",".","1","37","0","1270"
"3","3","retrieval","new_object","17","F62.jpg",".",".","37","1","892"
"3","3","retrieval","new_object","18","F69.jpg",".",".","37","1","753"
"3","3","retrieval","new_object","19","E31.jpg",".",".","37","1","902"
"3","3","retrieval","new_object","20","F45.jpg",".",".","37","1","924"
"3","3","retrieval","new_object","21","F75.jpg",".",".","37","1","1281"
"3","3","retrieval","old_object","22","G30.jpg",".","1","36","1","1078"
"3","3","retrieval","old_object","23","H74.jpg",".","3","36","1","909"
"3","3","retrieval","old_object","24","G56.jpg",".","1","37","0","1460"
"3","3","retrieval","new_object","25","E9.jpg",".",".","37","1","1066"
"3","3","retrieval","new_object","26","F17.jpg",".",".","37","1","1020"
"3","3","retrieval","old_object","27","G68.jpg",".","1","36","1","1124"
"3","3","retrieval","old_object","28","H22.jpg",".","3","36","1","904"
"3","3","retrieval","old_object","29","H20.jpg",".","3","36","1","716"
"3","3","retrieval","new_object","30","E5.jpg",".",".","37","1","883"
"3","3","retrieval","old_object","31","H34.jpg",".","3","36","1","760"
"3","3","retrieval","old_object","32","G21.jpg",".","1","37","0","1022"
"3","3","retrieval","new_object","33","F10.jpg",".",".","37","1","946"
"3","3","retrieval","old_object","34","H67.jpg",".","3","36","1","760"
"3","3","retrieval","old_object","35","G17.jpg",".","1","37","0","1022"
"3","3","retrieval","new_object","36","E62.jpg",".",".","37","1","867"
"3","3","retrieval","new_object","37","E0.jpg",".",".","37","1","904"
"3","3","retrieval","new_object","38","E12.jpg",".",".","37","1","925"
"3","3","retrieval","old_object","39","G60.jpg",".","1","36","1","1092"
"3","3","retrieval","new_object","40","F76.jpg",".",".","37","1","761"
"3","3","retrieval","old_object","41","H52.jpg",".","3","36","1","1006"
"3","3","retrieval","old_object","42","H60.jpg",".","3","36","1","868"
"3","3","retrieval","old_object","43","G51.jpg",".","1","37","0","1401"
"3","3","retrieval","old_object","44","H33.jpg",".","3","36","1","974"
"3","3","retrieval","new_object","45","F3.jpg",".",".","37","1","1076"
"3","3","retrieval","old_object","46","G74.jpg",".","1","36","1","1161"
"3","3","retrieval","new_object","47","E2.jpg",".",".","37","1","1326"
"3","3","retrieval","new_object","48","E18.jpg",".",".","37","1","964"
"3","3","retrieval","new_object","49","F59.jpg",".",".","36","0","1193"
"3","3","retrieval","new_object","50","E73.jpg",".",".","37","1","1519"
"3","3","retrieval","old_object","51","H14.jpg",".","3","36","1","1108"
"3","3","retrieval","new_object","52","E27.jpg",".",".","36","0","1370"
"3","3","retrieval","old_object","53","G35.jpg",".","1","37","0","1359"
"3","3","retrieval","new_object","54","E4.jpg",".",".","37","1","1108"
"3","3","retrieval","new_object","55","E67.jpg",".",".","37","1","699"
"3","3","retrieval","new_object","56","F27.jpg",".",".","37","1","912"
"3","3","retrieval","new_object","57","F54.jpg",".",".","37","1","982"
"3","3","retrieval","old_object","58","H37.jpg",".","3","36","1","810"
"3","3","retrieval","new_object","59","F65.jpg",".",".","37","1","784"
"3","3","retrieval","old_object","60","G54.jpg",".","1","36","1","837"
"3","3","retrieval","new_object","61","E77.jpg",".",".","37","1","971"
"3","3","retrieval","new_object","62","F64.jpg",".",".","37","1","993"
"3","3","retrieval","old_object","63","G41.jpg",".","1","36","1","822"
"3","3","retrieval","old_object","64","G11.jpg",".","1","36","1","1259"
"3","3","retrieval","new_object","65","E56.jpg",".",".","37","1","801"
"3","3","retrieval","old_object","67","G5.jpg",".","1","37","0","1033"
"3","3","retrieval","new_object","68","F48.jpg",".",".","37","1","734"
"3","3","retrieval","new_object","69","F67.jpg",".",".","37","1","996"
"3","3","retrieval","old_object","70","G46.jpg",".","1","37","0","1287"
"3","3","retrieval","old_object","71","H6.jpg",".","3","36","1","829"
"3","3","retrieval","new_object","72","F25.jpg",".",".","37","1","914"
"3","3","retrieval","new_object","73","E3.jpg",".",".","37","1","872"
"3","3","retrieval","old_object","74","G6.jpg",".","1","37","0","892"
"3","3","retrieval","old_object","75","H17.jpg",".","3","36","1","819"
"3","3","retrieval","old_object","76","G42.jpg",".","1","37","0","1207"
"3","3","retrieval","new_object","77","F39.jpg",".",".","37","1","1038"
"3","3","retrieval","new_object","78","E33.jpg",".",".","37","1","1201"
"3","3","retrieval","old_object","79","H56.jpg",".","3","36","1","744"
"3","3","retrieval","new_object","80","F14.jpg",".",".","37","1","861"
"3","3","retrieval","old_object","81","G49.jpg",".","1","36","1","1202"
"3","3","retrieval","old_object","82","H51.jpg",".","3","36","1","1208"
"3","3","retrieval","new_object","83","E16.jpg",".",".","37","1","797"
"3","3","retrieval","old_object","84","H78.jpg",".","3","37","0","1170"
"3","3","retrieval","old_object","85","G50.jpg",".","1","37","0","921"
"3","3","retrieval","new_object","86","F30.jpg",".",".","37","1","1006"
"3","3","retrieval","old_object","87","G65.jpg",".","1","36","1","834"
"3","3","retrieval","new_object","88","F57.jpg",".",".","37","1","1033"
"3","3","retrieval","new_object","89","F51.jpg",".",".","37","1","813"
"3","3","retrieval","new_object","90","F63.jpg",".",".","37","1","931"
"3","3","retrieval","old_object","91","H64.jpg",".","3","36","1","1064"
"3","3","retrieval","new_object","92","F60.jpg",".",".","37","1","1470"
"3","3","retrieval","old_object","93","G0.jpg",".","1","37","0","1203"
"3","3","retrieval","new_object","94","E32.jpg",".",".","36","0","969"
"3","3","retrieval","new_object","95","F70.jpg",".",".","37","1","928"
"3","3","retrieval","new_object","96","E38.jpg",".",".","37","1","1028"
"3","3","retrieval","old_object","97","H4.jpg",".","3","36","1","1162"
"3","3","retrieval","old_object","98","G63.jpg",".","1","37","0","1246"
"3","3","retrieval","old_object","99","G69.jpg",".","1","36","1","965"
"3","3","retrieval","old_object","100","G19.jpg",".","1","37","0","1066"
"3","3","retrieval","new_object","101","F53.jpg",".",".","37","1","1359"
"3","3","retrieval","new_object","102","E19.jpg",".",".","37","1","1028"
"3","3","retrieval","old_object","103","H70.jpg",".","3","36","1","857"
"3","3","retrieval","new_object","104","E66.jpg",".",".","37","1","879"
"3","3","retrieval","new_object","105","E78.jpg",".",".","37","1","1045"
"3","3","retrieval","old_object","106","H43.jpg",".","3","36","1","858"
"3","3","retrieval","old_object","107","G28.jpg",".","1","36","1","832"
"3","3","retrieval","old_object","108","H71.jpg",".","3","36","1","693"
"3","3","retrieval","new_object","109","F11.jpg",".",".","37","1","683"
"3","3","retrieval","new_object","110","F43.jpg",".",".","37","1","849"
"3","3","retrieval","old_object","111","H58.jpg",".","3","36","1","965"
"3","3","retrieval","old_object","112","H5.jpg",".","3","37","0","1035"
"3","3","retrieval","old_object","113","H13.jpg",".","3","37","0","1039"
"3","3","retrieval","new_object","114","F13.jpg",".",".","37","1","1206"
"3","3","retrieval","old_object","115","G61.jpg",".","1","37","0","892"
"3","3","retrieval","new_object","116","E28.jpg",".",".","37","1","1040"
"3","3","retrieval","new_object","117","E44.jpg",".",".","37","1","887"
"3","3","retrieval","old_object","118","H32.jpg",".","3","36","1","939"
"3","3","retrieval","new_object","119","E30.jpg",".",".","37","1","961"
"3","3","retrieval","new_object","120","F73.jpg",".",".","37","1","887"
"3","3","retrieval","new_object","121","E70.jpg",".",".","37","1","956"
"3","3","retrieval","old_object","122","G15.jpg",".","1","36","1","1106"
"3","3","retrieval","old_object","123","H21.jpg",".","3","36","1","1287"
"3","3","retrieval","old_object","124","H42.jpg",".","3","36","1","1068"
"3","3","retrieval","new_object","125","E55.jpg",".",".","37","1","850"
"3","3","retrieval","new_object","126","F26.jpg",".",".","37","1","1063"
"3","3","retrieval","new_object","127","E10.jpg",".",".","37","1","829"
"3","3","retrieval","old_object","128","G52.jpg",".","1","37","0","946"
"3","3","retrieval","new_object","129","F20.jpg",".",".","36","0","1224"
"3","3","retrieval","old_object","130","H57.jpg",".","3","36","1","861"
"3","3","retrieval","new_object","131","E8.jpg",".",".","37","1","867"
"3","3","retrieval","new_object","133","E6.jpg",".",".","37","1","1219"
"3","3","retrieval","old_object","134","H29.jpg",".","3","36","1","776"
"3","3","retrieval","old_object","135","H35.jpg",".","3","36","1","669"
"3","3","retrieval","old_object","136","H75.jpg",".","3","36","1","867"
"3","3","retrieval","new_object","137","E57.jpg",".",".","37","1","664"
"3","3","retrieval","old_object","138","H23.jpg",".","3","36","1","878"
"3","3","retrieval","new_object","139","E25.jpg",".",".","37","1","1027"
"3","3","retrieval","new_object","140","E22.jpg",".",".","37","1","921"
"3","3","retrieval","new_object","141","E45.jpg",".",".","36","0","1214"
"3","3","retrieval","old_object","142","H18.jpg",".","3","37","0","1428"
"3","3","retrieval","old_object","143","G14.jpg",".","1","36","1","937"
"3","3","retrieval","old_object","144","H77.jpg",".","3","36","1","942"
"3","3","retrieval","new_object","145","E75.jpg",".",".","37","1","772"
"3","3","retrieval","new_object","146","E46.jpg",".",".","37","1","998"
"3","3","retrieval","old_object","147","H27.jpg",".","3","36","1","911"
"3","3","retrieval","old_object","148","G72.jpg",".","1","37","0","932"
"3","3","retrieval","old_object","149","G77.jpg",".","1","37","0","1018"
"3","3","retrieval","old_object","150","G18.jpg",".","1","37","0","1550"
"3","3","retrieval","new_object","151","E23.jpg",".",".","37","1","1316"
"3","3","retrieval","new_object","152","E40.jpg",".",".","37","1","1098"
"3","3","retrieval","new_object","153","F5.jpg",".",".","37","1","847"
"3","3","retrieval","new_object","154","F15.jpg",".",".","37","1","773"
"3","3","retrieval","old_object","155","H53.jpg",".","3","36","1","634"
"3","3","retrieval","new_object","156","E43.jpg",".",".","37","1","752"
"3","3","retrieval","old_object","157","G7.jpg",".","1","36","1","1269"
"3","3","retrieval","new_object","158","E59.jpg",".",".","37","1","859"
"3","3","retrieval","old_object","159","G66.jpg",".","1","36","1","1024"
"3","3","retrieval","new_object","160","F28.jpg",".",".","36","0","1349"
"3","3","retrieval","new_object","161","E21.jpg",".",".","37","1","1499"
"3","3","retrieval","old_object","162","H47.jpg",".","3","36","1","897"
"3","3","retrieval","new_object","163","E71.jpg",".",".","37","1","1078"
"3","3","retrieval","new_object","164","E11.jpg",".",".","37","1","1019"
"3","3","retrieval","old_object","165","H11.jpg",".","3","36","1","849"
"3","3","retrieval","new_object","166","E63.jpg",".",".","37","1","998"
"3","3","retrieval","new_object","167","F50.jpg",".",".","37","1","876"
"3","3","retrieval","new_object","168","F52.jpg",".",".","37","1","705"
"3","3","retrieval","new_object","169","E52.jpg",".",".","37","1","726"
"3","3","retrieval","new_object","170","E47.jpg",".",".","37","1","732"
"3","3","retrieval","old_object","171","G24.jpg",".","1","36","1","1201"
"3","3","retrieval","old_object","172","G39.jpg",".","1","36","1","1143"
"3","3","retrieval","new_object","173","E68.jpg",".",".","37","1","844"
"3","3","retrieval","old_object","174","H40.jpg",".","3","36","1","898"
"3","3","retrieval","old_object","175","H30.jpg",".","3","36","1","775"
"3","3","retrieval","new_object","176","F68.jpg",".",".","37","1","908"
"3","3","retrieval","old_object","177","G27.jpg",".","1","37","0","770"
"3","3","retrieval","old_object","178","H0.jpg",".","3","36","1","727"
"3","3","retrieval","new_object","179","F0.jpg",".",".","37","1","989"
"3","3","retrieval","old_object","180","G20.jpg",".","1","37","0","994"
"3","3","retrieval","new_object","181","E72.jpg",".",".","37","1","855"
"3","3","retrieval","new_object","182","E58.jpg",".",".","37","1","652"
"3","3","retrieval","new_object","183","E76.jpg",".",".","37","1","962"
"3","3","retrieval","new_object","184","E42.jpg",".",".","37","1","679"
"3","3","retrieval","new_object","185","F34.jpg",".",".","37","1","845"
"3","3","retrieval","old_object","186","G33.jpg",".","1","36","1","1106"
"3","3","retrieval","new_object","187","F40.jpg",".",".","37","1","1048"
"3","3","retrieval","old_object","188","H25.jpg",".","3","36","1","765"
"3","3","retrieval","old_object","189","H19.jpg",".","3","36","1","803"
"3","3","retrieval","old_object","190","G38.jpg",".","1","36","1","1112"
"3","3","retrieval","old_object","191","G32.jpg",".","1","37","0","1293"
"3","3","retrieval","new_object","192","E35.jpg",".",".","37","1","851"
"3","3","retrieval","old_object","193","H61.jpg",".","3","36","1","1112"
"3","3","retrieval","new_object","194","E20.jpg",".",".","37","1","942"
"3","3","retrieval","old_object","195","G4.jpg",".","1","36","1","1331"
"3","3","retrieval","old_object","196","H63.jpg",".","3","36","1","825"
"3","3","retrieval","new_object","197","F18.jpg",".",".","37","1","1022"
"3","3","retrieval","new_object","199","E69.jpg",".",".","37","1","921"
"3","3","retrieval","old_object","200","H76.jpg",".","3","36","1","767"
"3","3","retrieval","old_object","201","H69.jpg",".","3","37","0","1316"
"3","3","retrieval","new_object","202","F21.jpg",".",".","37","1","809"
"3","3","retrieval","old_object","203","G16.jpg",".","1","37","0","1087"
"3","3","retrieval","old_object","204","H8.jpg",".","3","36","1","996"
"3","3","retrieval","old_object","205","H49.jpg",".","3","36","1","1018"
"3","3","retrieval","old_object","206","H24.jpg",".","3","36","1","927"
"3","3","retrieval","old_object","207","G2.jpg",".","1","37","0","1509"
"3","3","retrieval","old_object","208","H46.jpg",".","3","36","1","826"
"3","3","retrieval","old_object","209","H73.jpg",".","3","37","0","1023"
"3","3","retrieval","new_object","210","F6.jpg",".",".","37","1","757"
"3","3","retrieval","old_object","211","G31.jpg",".","1","36","1","1162"
"3","3","retrieval","new_object","212","F38.jpg",".",".","37","1","976"
"3","3","retrieval","new_object","213","F41.jpg",".",".","37","1","1141"
"3","3","retrieval","old_object","214","H28.jpg",".","3","36","1","795"
"3","3","retrieval","old_object","215","H68.jpg",".","3","37","0","1296"
"3","3","retrieval","new_object","216","E60.jpg",".",".","37","1","1014"
"3","3","retrieval","old_object","217","H1.jpg",".","3","36","1","924"
"3","3","retrieval","old_object","218","G53.jpg",".","1","37","0","1345"
"3","3","retrieval","new_object","219","F78.jpg",".",".","37","1","1157"
"3","3","retrieval","new_object","220","F72.jpg",".",".","37","1","1899"
"3","3","retrieval","new_object","221","F55.jpg",".",".","37","1","1425"
"3","3","retrieval","old_object","222","G79.jpg",".","1","36","1","1382"
"3","3","retrieval","old_object","223","H41.jpg",".","3","36","1","844"
"3","3","retrieval","new_object","224","F2.jpg",".",".","37","1","1057"
"3","3","retrieval","new_object","225","F12.jpg",".",".","37","1","1143"
"3","3","retrieval","old_object","226","G58.jpg",".","1","37","0","1004"
"3","3","retrieval","old_object","227","H12.jpg",".","3","36","1","705"
"3","3","retrieval","new_object","228","E48.jpg",".",".","37","1","759"
"3","3","retrieval","new_object","229","E74.jpg",".",".","37","1","989"
"3","3","retrieval","new_object","230","E65.jpg",".",".","37","1","802"
"3","3","retrieval","new_object","231","E36.jpg",".",".","37","1","791"
"3","3","retrieval","new_object","232","E41.jpg",".",".","37","1","926"
"3","3","retrieval","old_object","233","H79.jpg",".","3","37","0","882"
"3","3","retrieval","old_object","234","H44.jpg",".","3","36","1","1336"
"3","3","retrieval","old_object","235","G12.jpg",".","1","37","0","797"
"3","3","retrieval","new_object","236","F46.jpg",".",".","37","1","802"
"3","3","retrieval","old_object","237","H3.jpg",".","3","36","1","886"
"3","3","retrieval","old_object","238","H36.jpg",".","3","36","1","732"
"3","3","retrieval","old_object","239","H66.jpg",".","3","37","0","785"
"3","3","retrieval","old_object","240","G13.jpg",".","1","37","0","1127"
"3","3","retrieval","new_object","241","F19.jpg",".",".","37","1","796"
"3","3","retrieval","new_object","242","E53.jpg",".",".","37","1","866"
"3","3","retrieval","new_object","243","F23.jpg",".",".","37","1","1527"
"3","3","retrieval","new_object","244","E79.jpg",".",".","37","1","893"
"3","3","retrieval","new_object","245","F9.jpg",".",".","37","1","754"
"3","3","retrieval","new_object","246","F47.jpg",".",".","37","1","743"
"3","3","retrieval","old_object","247","H59.jpg",".","3","36","1","762"
"3","3","retrieval","new_object","248","E54.jpg",".",".","37","1","786"
"3","3","retrieval","old_object","249","H38.jpg",".","3","36","1","824"
"3","3","retrieval","old_object","250","G48.jpg",".","1","37","0","701"
"3","3","retrieval","old_object","251","G10.jpg",".","1","36","1","899"
"3","3","retrieval","old_object","252","H65.jpg",".","3","36","1","696"
"3","3","retrieval","old_object","253","G62.jpg",".","1","37","0","717"
"3","3","retrieval","old_object","254","G55.jpg",".","1","36","1","1235"
"3","3","retrieval","old_object","255","G43.jpg",".","1","36","1","936"
"3","3","retrieval","new_object","256","E34.jpg",".",".","37","1","958"
"3","3","retrieval","new_object","257","F8.jpg",".",".","37","1","755"
"3","3","retrieval","new_object","258","F24.jpg",".",".","37","1","1065"
"3","3","retrieval","old_object","259","G57.jpg",".","1","36","1","958"
"3","3","retrieval","new_object","260","F66.jpg",".",".","37","1","900"
"3","3","retrieval","new_object","261","F71.jpg",".",".","37","1","777"
"3","3","retrieval","old_object","262","H62.jpg",".","3","37","0","974"
"3","3","retrieval","old_object","263","G78.jpg",".","1","37","0","820"
"3","3","retrieval","old_object","265","H54.jpg",".","3","36","1","1012"
"3","3","retrieval","new_object","266","E50.jpg",".",".","37","1","793"
"3","3","retrieval","old_object","267","H50.jpg",".","3","36","1","815"
"3","3","retrieval","old_object","268","G45.jpg",".","1","37","0","1300"
"3","3","retrieval","old_object","269","G47.jpg",".","1","37","0","1114"
"3","3","retrieval","new_object","270","F61.jpg",".",".","37","1","1039"
"3","3","retrieval","new_object","271","F37.jpg",".",".","37","1","853"
"3","3","retrieval","new_object","272","E61.jpg",".",".","37","1","762"
"3","3","retrieval","new_object","273","F22.jpg",".",".","37","1","815"
"3","3","retrieval","old_object","274","H15.jpg",".","3","36","1","1013"
"3","3","retrieval","new_object","275","E39.jpg",".",".","37","1","826"
"3","3","retrieval","old_object","276","G76.jpg",".","1","37","0","1040"
"3","3","retrieval","new_object","277","E37.jpg",".",".","37","1","1141"
"3","3","retrieval","new_object","278","F36.jpg",".",".","37","1","1050"
"3","3","retrieval","new_object","279","E49.jpg",".",".","37","1","848"
"3","3","retrieval","old_object","280","H2.jpg",".","3","36","1","758"
"3","3","retrieval","new_object","281","E51.jpg",".",".","37","1","779"
"3","3","retrieval","new_object","282","F4.jpg",".",".","37","1","1088"
"3","3","retrieval","new_object","283","E64.jpg",".",".","37","1","822"
"3","3","retrieval","old_object","284","H9.jpg",".","3","36","1","763"
"3","3","retrieval","old_object","285","G25.jpg",".","1","36","1","1009"
"3","3","retrieval","old_object","286","G67.jpg",".","1","37","0","1238"
"3","3","retrieval","new_object","287","E26.jpg",".",".","37","1","860"
"3","3","retrieval","new_object","288","E1.jpg",".",".","37","1","801"
"3","3","retrieval","old_object","289","H39.jpg",".","3","36","1","855"
"3","3","retrieval","new_object","290","F56.jpg",".",".","37","1","748"
"3","3","retrieval","old_object","291","H7.jpg",".","3","36","1","673"
"3","3","retrieval","new_object","292","E24.jpg",".",".","37","1","1095"
"3","3","retrieval","old_object","293","G9.jpg",".","1","37","0","972"
"3","3","retrieval","old_object","294","G29.jpg",".","1","37","0","1570"
"3","3","retrieval","old_object","295","H72.jpg",".","3","36","1","807"
"3","3","retrieval","old_object","296","H48.jpg",".","3","36","1","909"
"3","3","retrieval","new_object","297","F58.jpg",".",".","37","1","834"
"3","3","retrieval","old_object","298","G1.jpg",".","1","36","1","1031"
"3","3","retrieval","new_object","299","F74.jpg",".",".","37","1","797"
"3","3","retrieval","old_object","300","G8.jpg",".","1","37","0","770"
"3","3","retrieval","old_object","301","H10.jpg",".","3","36","1","840"
"3","3","retrieval","old_object","302","G73.jpg",".","1","37","0","1197"
"3","3","retrieval","new_object","303","E13.jpg",".",".","37","1","1379"
"3","3","retrieval","new_object","304","F44.jpg",".",".","37","1","984"
"3","3","retrieval","new_object","305","F77.jpg",".",".","37","1","734"
"3","3","retrieval","old_object","306","G59.jpg",".","1","37","0","1139"
"3","3","retrieval","new_object","307","F29.jpg",".",".","37","1","952"
"3","3","retrieval","new_object","308","F79.jpg",".",".","37","1","750"
"3","3","retrieval","new_object","309","F1.jpg",".",".","37","1","756"
"3","3","retrieval","old_object","310","G64.jpg",".","1","36","1","1193"
"3","3","retrieval","new_object","311","F33.jpg",".",".","37","1","814"
"3","3","retrieval","new_object","312","E7.jpg",".",".","37","1","1188"
"3","3","retrieval","new_object","313","F16.jpg",".",".","37","1","1017"
"3","3","retrieval","old_object","314","G34.jpg",".","1","37","0","862"
"3","3","retrieval","new_object","315","F7.jpg",".",".","37","1","980"
"3","3","retrieval","old_object","316","G40.jpg",".","1","36","1","1161"
"3","3","retrieval","old_object","317","H26.jpg",".","3","36","1","783"
"3","3","retrieval","old_object","318","G70.jpg",".","1","36","1","1540"
"3","3","retrieval","new_object","319","E14.jpg",".",".","37","1","986"
"3","3","retrieval","old_object","320","G71.jpg",".","1","37","0","671"
"3","3","retrieval","new_object","321","E29.jpg",".",".","37","1","725"
"3","3","retrieval","new_object","322","F42.jpg",".",".","37","1","1130"
"3","3","retrieval","old_object","323","H45.jpg",".","3","36","1","799"
"3","3","retrieval","old_object","324","G75.jpg",".","1","37","0","837"
"3","3","retrieval","new_object","325","F9.jpg",".",".","37","1","1882"
"3","3","demographics_block","gender","1",".",".",".","Male","1","20311"
"3","3","demographics_block","age","1",".",".",".","53","1","20311"
"3","3","demographics_block","education","1",".",".",".","18","1","20311"
"3","3","demographics_block","left_right_handed","2",".",".",".","Right","1","12477"
"3","3","demographics_block","raceoption1","2",".",".",".","0","1","12477"
"3","3","demographics_block","raceoption2","2",".",".",".","","1","12477"
"3","3","demographics_block","raceoption3","2",".",".",".","","1","12477"
"3","3","demographics_block","raceoption4","2",".",".",".","","1","12477"
"3","3","demographics_block","raceoption5","2",".",".",".","","1","12477"
"3","3","demographics_block","raceoption6","2",".",".",".","","1","12477"
"3","3","demographics_block","raceoption7","2",".",".",".","","1","12477"
"3","3","demographics_block","raceoption8","2",".",".",".","","1","12477"
"3","3","demographics_block","raceoption9","2",".",".",".","","1","12477"
"3","3","demographics_block","raceother","2",".",".",".","","1","12477"
"3","3","demographics_block","raceother","2",".",".",".","","1","12477"
"3","3","demographics_block","english_language","2",".",".",".","Yes","1","12477"
"3","3","demographics_block","other","2",".",".",".","","1","12477"
"3","3","demographics_block","eyesight","3",".",".",".","Yes","1","6105"
"3","3","demographics_block","colorblind","3",".",".",".","No","1","6105"
"6","6","encoding","encoding","1","G53.jpg","1",".","0","0","1000"
"6","6","encoding","encoding","2","H10.jpg","3",".","37","0","868"
"6","6","encoding","encoding","3","H22.jpg","3",".","37","0","745"
"6","6","encoding","encoding","4","G70.jpg","1",".","37","0","648"
"6","6","encoding","encoding","5","H23.jpg","3",".","0","0","1000"
"6","6","encoding","encoding","6","G57.jpg","1",".","37","0","378"
"6","6","encoding","encoding","7","H67.jpg","3",".","0","0","1000"
"6","6","encoding","encoding","8","H6.jpg","3",".","0","0","1000"
"6","6","encoding","encoding","9","H51.jpg","3",".","37","0","35"
"6","6","encoding","encoding","10","H27.jpg","3",".","37","0","857"
"6","6","encoding","encoding","11","H29.jpg","3",".","0","0","1000"
"6","6","encoding","encoding","12","H17.jpg","3",".","0","0","1000"
"6","6","encoding","encoding","13","G41.jpg","1",".","37","0","108"
"6","6","encoding","encoding","14","H53.jpg","3",".","37","0","7"
"6","6","encoding","encoding","15","H69.jpg","3",".","0","0","1000"
"6","6","encoding","encoding","16","H31.jpg","3",".","0","0","1000"
"6","6","encoding","encoding","17","H12.jpg","3",".","0","0","1000"
"6","6","encoding","encoding","18","G55.jpg","1",".","0","0","1000"
"6","6","encoding","encoding","19","G6.jpg","1",".","36","0","348"
"6","6","encoding","encoding","20","H17.jpg","3",".","37","0","515"
"6","6","encoding","encoding","21","H0.jpg","3",".","0","0","1000"
"6","6","encoding","encoding","22","H54.jpg","3",".","37","0","580"
"6","6","encoding","encoding","23","H24.jpg","3",".","36","0","365"
"6","6","encoding","encoding","24","H11.jpg","3",".","37","0","307"
"6","6","encoding","encoding","25","H41.jpg","3",".","0","0","1000"
"6","6","encoding","encoding","26","H62.jpg","3",".","0","0","1000"
"6","6","encoding","encoding","27","G47.jpg","1",".","37","0","296"
"6","6","encoding","encoding","28","H22.jpg","3",".","0","0","1000"
"6","6","encoding","encoding","29","H11.jpg","3",".","0","0","1000"
"6","6","encoding","encoding","30","H5.jpg","3",".","0","0","1000"
"6","6","encoding","encoding","31","H1.jpg","3",".","37","0","200"
"6","6","encoding","encoding","32","H50.jpg","3",".","0","0","1000"
"6","6","encoding","encoding","33","H45.jpg","3",".","0","0","1000"
"6","6","encoding","encoding","34","H38.jpg","3",".","0","0","1000"
"6","6","encoding","encoding","35","H24.jpg","3",".","0","0","1000"
"6","6","encoding","encoding","36","H16.jpg","3",".","37","0","773"
"6","6","encoding","encoding","37","H44.jpg","3",".","37","0","180"
"6","6","encoding","encoding","38","H63.jpg","3",".","37","0","101"
"6","6","encoding","encoding","39","H8.jpg","3",".","36","0","665"
"6","6","encoding","encoding","40","G30.jpg","1",".","37","0","649"
"6","6","encoding","encoding","41","G39.jpg","1",".","0","0","1000"
"6","6","encoding","encoding","42","G34.jpg","1",".","0","0","1000"
"6","6","encoding","encoding","43","G4.jpg","1",".","0","0","1000"
"6","6","encoding","encoding","44","H72.jpg","3",".","37","0","684"
"6","6","encoding","encoding","45","G43.jpg","1",".","0","0","1000"
"6","6","encoding","encoding","46","G36.jpg","1",".","0","0","1000"
"6","6","encoding","encoding","47","H19.jpg","3",".","37","0","687"
"6","6","encoding","encoding","48","H57.jpg","3",".","0","0","1000"
"6","6","encoding","encoding","49","G15.jpg","1",".","37","0","942"
"6","6","encoding","encoding","50","H66.jpg","3",".","36","0","786"
"6","6","encoding","encoding","51","H7.jpg","3",".","37","0","814"
"6","6","encoding","encoding","52","G44.jpg","1",".","36","0","610"
"6","6","encoding","encoding","53","H48.jpg","3",".","0","0","1000"
"6","6","encoding","encoding","54","G49.jpg","1",".","37","0","122"
"6","6","encoding","encoding","55","H43.jpg","3",".","0","0","1000"
"6","6","encoding","encoding","56","H21.jpg","3",".","37","0","507"
"6","6","encoding","encoding","57","H47.jpg","3",".","37","0","383"
"6","6","encoding","encoding","58","H54.jpg","3",".","37","0","198"
"6","6","encoding","encoding","59","H13.jpg","3",".","36","0","260"
"6","6","encoding","encoding","60","H75.jpg","3",".","37","0","839"
"6","6","encoding","encoding","61","H79.jpg","3",".","37","0","639"
"6","6","encoding","encoding","62","H39.jpg","3",".","37","0","349"
"6","6","encoding","encoding","63","G11.jpg","1",".","37","0","268"
"6","6","encoding","encoding","64","H51.jpg","3",".","37","0","559"
"6","6","encoding","encoding","65","H66.jpg","3",".","37","0","869"
"6","6","encoding","encoding","67","H48.jpg","3",".","0","0","1000"
"6","6","encoding","encoding","68","H59.jpg","3",".","37","0","107"
"6","6","encoding","encoding","69","H13.jpg","3",".","37","0","418"
"6","6","encoding","encoding","70","H37.jpg","3",".","0","0","1000"
"6","6","encoding","encoding","71","H13.jpg","3",".","37","0","345"
"6","6","encoding","encoding","72","H71.jpg","3",".","0","0","1000"
"6","6","encoding","encoding","73","H55.jpg","3",".","37","0","475"
"6","6","encoding","encoding","74","G42.jpg","1",".","0","0","1000"
"6","6","encoding","encoding","75","H62.jpg","3",".","36","0","728"
"6","6","encoding","encoding","76","H70.jpg","3",".","37","0","119"
"6","6","encoding","encoding","77","G72.jpg","1",".","0","0","1000"
"6","6","encoding","encoding","78","H68.jpg","3",".","37","0","418"
"6","6","encoding","encoding","79","G60.jpg","1",".","37","0","153"
"6","6","encoding","encoding","80","G48.jpg","1",".","36","0","640"
"6","6","encoding","encoding","81","H30.jpg","3",".","0","0","1000"
"6","6","encoding","encoding","82","H9.jpg","3",".","37","0","713"
"6","6","encoding","encoding","83","H40.jpg","3",".","37","0","37"
"6","6","encoding","encoding","84","H15.jpg","3",".","37","0","275"
"6","6","encoding","encoding","85","H49.jpg","3",".","0","0","1000"
"6","6","encoding","encoding","86","H43.jpg","3",".","0","0","1000"
"6","6","encoding","encoding","87","H71.jpg","3",".","0","0","1000"
"6","6","encoding","encoding","88","H28.jpg","3",".","37","0","852"
"6","6","encoding","encoding","89","H41.jpg","3",".","0","0","1000"
"6","6","encoding","encoding","90","H65.jpg","3",".","0","0","1000"
"6","6","encoding","encoding","91","H3.jpg","3",".","0","0","1000"
"6","6","encoding","encoding","92","H32.jpg","3",".","37","0","439"
"6","6","encoding","encoding","93","H60.jpg","3",".","37","0","747"
"6","6","encoding","encoding","94","H30.jpg","3",".","37","0","221"
"6","6","encoding","encoding","95","G1.jpg","1",".","37","0","347"
"6","6","encoding","encoding","96","H4.jpg","3",".","37","0","444"
"6","6","encoding","encoding","97","G35.jpg","1",".","37","0","602"
"6","6","encoding","encoding","98","H16.jpg","3",".","37","0","612"
"6","6","encoding","encoding","99","G17.jpg","1",".","0","0","1000"
"6","6","encoding","encoding","100","H44.jpg","3",".","37","0","39"
"6","6","encoding","encoding","101","H25.jpg","3",".","37","0","193"
"6","6","encoding","encoding","102","H79.jpg","3",".","0","0","1000"
"6","6","encoding","encoding","103","G38.jpg","1",".","0","0","1000"
"6","6","encoding","encoding","104","H39.jpg","3",".","36","0","270"
"6","6","encoding","encoding","105","H31.jpg","3",".","0","0","1000"
"6","6","encoding","encoding","106","G75.jpg","1",".","37","0","415"
"6","6","encoding","encoding","107","H55.jpg","3",".","36","0","404"
"6","6","encoding","encoding","108","H26.jpg","3",".","0","0","1000"
"6","6","encoding","encoding","109","H61.jpg","3",".","37","0","616"
"6","6","encoding","encoding","110","H72.jpg","3",".","37","0","549"
"6","6","encoding","encoding","111","G77.jpg","1",".","37","0","94"
"6","6","encoding","encoding","112","H54.jpg","3",".","0","0","1000"
"6","6","encoding","encoding","113","H14.jpg","3",".","0","0","1000"
"6","6","encoding","encoding","114","H78.jpg","3",".","37","0","113"
"6","6","encoding","encoding","115","H28.jpg","3",".","37","0","273"
"6","6","encoding","encoding","116","G21.jpg","1",".","36","0","254"
"6","6","encoding","encoding","117","H20.jpg","3",".","37","0","222"
"6","6","encoding","encoding","118","H30.jpg","3",".","37","0","385"
"6","6","encoding","encoding","119","G51.jpg","1",".","0","0","1000"
"6","6","encoding","encoding","120","H64.jpg","3",".","37","0","357"
"6","6","encoding","encoding","121","H15.jpg","3",".","36","0","517"
"6","6","encoding","encoding","122","H1.jpg","3",".","0","0","1000"
"6","6","encoding","encoding","123","H19.jpg","3",".","0","0","1000"
"6","6","encoding","encoding","124","H12.jpg","3",".","37","0","514"
"6","6","encoding","encoding","125","G45.jpg","1",".","36","0","385"
"6","6","encoding","encoding","126","H45.jpg","3",".","37","0","286"
"6","6","encoding","encoding","127","H68.jpg","3",".","37","0","797"
"6","6","encoding","encoding","128","H78.jpg","3",".","37","0","3"
"6","6","encoding","encoding","129","H29.jpg","3",".","37","0","463"
"6","6","encoding","encoding","130","H26.jpg","3",".","37","0","450"
"6","6","encoding","encoding","131","H9.jpg","3",".","37","0","281"
"6","6","encoding","encoding","133","H15.jpg","3",".","0","0","1000"
"6","6","encoding","encoding","134","H25.jpg","3",".","0","0","1000"
"6","6","encoding","encoding","135","H4.jpg","3",".","0","0","1000"
"6","6","encoding","encoding","136","H6.jpg","3",".","37","0","256"
"6","6","encoding","encoding","137","H33.jpg","3",".","0","0","1000"
"6","6","encoding","encoding","138","H37.jpg","3",".","37","0","431"
"6","6","encoding","encoding","139","H53.jpg","3",".","37","0","475"
"6","6","encoding","encoding","140","G16.jpg","1",".","37","0","284"
"6","6","encoding","encoding","141","H56.jpg","3",".","0","0","1000"
"6","6","encoding","encoding","142","G13.jpg","1",".","37","0","255"
"6","6","encoding","encoding","143","G62.jpg","1",".","37","0","236"
"6","6","encoding","encoding","144","H19.jpg","3",".","0","0","1000"
"6","6","encoding","encoding","145","G0.jpg","1",".","36","0","17"
"6","6","encoding","encoding","146","H74.jpg","3",".","37","0","767"
"6","6","encoding","encoding","147","H40.jpg","3",".","37","0","783"
"6","6","encoding","encoding","148","H64.jpg","3",".","37","0","293"
"6","6","encoding","encoding","149","H62.jpg","3",".","36","0","184"
"6","6","encoding","encoding","150","G52.jpg","1",".","0","0","1000"
"6","6","encoding","encoding","151","G24.jpg","1",".","0","0","1000"
"6","6","encoding","encoding","152","G56.jpg","1",".","37","0","259"
"6","6","encoding","encoding","153","G40.jpg","1",".","37","0","366"
"6","6","encoding","encoding","154","G28.jpg","1",".","37","0","541"
"6","6","encoding","encoding","155","G64.jpg","1",".","0","0","1000"
"6","6","encoding","encoding","156","H31.jpg","3",".","0","0","1000"
"6","6","encoding","encoding","157","H18.jpg","3",".","0","0","1000"
"6","6","encoding","encoding","158","H52.jpg","3",".","0","0","1000"
"6","6","encoding","encoding","159","H47.jpg","3",".","0","0","1000"
"6","6","encoding","encoding","160","H2.jpg","3",".","37","0","755"
"6","6","encoding","encoding","161","G46.jpg","1",".","37","0","476"
"6","6","encoding","encoding","162","H50.jpg","3",".","37","0","601"
"6","6","encoding","encoding","163","H68.jpg","3",".","0","0","1000"
"6","6","encoding","encoding","164","G61.jpg","1",".","0","0","1000"
"6","6","encoding","encoding","165","H33.jpg","3",".","37","0","5"
"6","6","encoding","encoding","166","H4.jpg","3",".","37","0","283"
"6","6","encoding","encoding","167","H34.jpg","3",".","0","0","1000"
"6","6","encoding","encoding","168","H42.jpg","3",".","37","0","739"
"6","6","encoding","encoding","169","H65.jpg","3",".","37","0","880"
"6","6","encoding","encoding","170","H73.jpg","3",".","37","0","232"
"6","6","encoding","encoding","171","H2.jpg","3",".","0","0","1000"
"6","6","encoding","encoding","172","G68.jpg","1",".","0","0","1000"
"6","6","encoding","encoding","173","H36.jpg","3",".","37","0","518"
"6","6","encoding","encoding","174","H60.jpg","3",".","37","0","926"
"6","6","encoding","encoding","175","H66.jpg","3",".","37","0","534"
"6","6","encoding","encoding","176","H70.jpg","3",".","0","0","1000"
"6","6","encoding","encoding","177","H0.jpg","3",".","0","0","1000"
"6","6","encoding","encoding","178","H38.jpg","3",".","37","0","703"
"6","6","encoding","encoding","179","H17.jpg","3",".","37","0","343"
"6","6","encoding","encoding","180","H34.jpg","3",".","0","0","1000"
"6","6","encoding","encoding","181","G66.jpg","1",".","0","0","1000"
"6","6","encoding","encoding","182","G8.jpg","1",".","37","0","506"
"6","6","encoding","encoding","183","H8.jpg","3",".","37","0","934"
"6","6","encoding","encoding","184","G33.jpg","1",".","0","0","1000"
"6","6","encoding","encoding","185","G78.jpg","1",".","0","0","1000"
"6","6","encoding","encoding","186","H42.jpg","3",".","0","0","1000"
"6","6","encoding","encoding","187","G23.jpg","1",".","37","0","0"
"6","6","encoding","encoding","188","H46.jpg","3",".","0","0","1000"
"6","6","encoding","encoding","189","H5.jpg","3",".","37","0","792"
"6","6","encoding","encoding","190","G73.jpg","1",".","37","0","315"
"6","6","encoding","encoding","191","H73.jpg","3",".","36","0","370"
"6","6","encoding","encoding","192","H14.jpg","3",".","37","0","87"
"6","6","encoding","encoding","193","H53.jpg","3",".","0","0","1000"
"6","6","encoding","encoding","194","H56.jpg","3",".","37","0","195"
"6","6","encoding","encoding","195","H1.jpg","3",".","37","0","18"
"6","6","encoding","encoding","196","G63.jpg","1",".","37","0","666"
"6","6","encoding","encoding","197","H2.jpg","3",".","36","0","128"
"6","6","encoding","encoding","199","H9.jpg","3",".","0","0","1000"
"6","6","encoding","encoding","200","H63.jpg","3",".","37","0","100"
"6","6","encoding","encoding","201","H3.jpg","3",".","0","0","1000"
"6","6","encoding","encoding","202","G37.jpg","1",".","37","0","725"
"6","6","encoding","encoding","203","H34.jpg","3",".","37","0","470"
"6","6","encoding","encoding","204","H39.jpg","3",".","37","0","942"
"6","6","encoding","encoding","205","H69.jpg","3",".","0","0","1000"
"6","6","encoding","encoding","206","H77.jpg","3",".","37","0","0"
"6","6","encoding","encoding","207","G27.jpg","1",".","37","0","677"
"6","6","encoding","encoding","208","H79.jpg","3",".","37","0","325"
"6","6","encoding","encoding","209","G3.jpg","1",".","37","0","596"
"6","6","encoding","encoding","210","G5.jpg","1",".","37","0","495"
"6","6","encoding","encoding","211","H22.jpg","3",".","37","0","427"
"6","6","encoding","encoding","212","H43.jpg","3",".","37","0","231"
"6","6","encoding","encoding","213","H47.jpg","3",".","0","0","1000"
"6","6","encoding","encoding","214","G26.jpg","1",".","0","0","1000"
"6","6","encoding","encoding","215","H46.jpg","3",".","37","0","65"
"6","6","encoding","encoding","216","H61.jpg","3",".","0","0","1000"
"6","6","encoding","encoding","217","H20.jpg","3",".","37","0","145"
"6","6","encoding","encoding","218","H10.jpg","3",".","37","0","312"
"6","6","encoding","encoding","219","H7.jpg","3",".","37","0","564"
"6","6","encoding","encoding","220","G50.jpg","1",".","36","0","667"
"6","6","encoding","encoding","221","H25.jpg","3",".","37","0","629"
"6","6","encoding","encoding","222","H72.jpg","3",".","0","0","1000"
"6","6","encoding","encoding","223","H56.jpg","3",".","37","0","970"
"6","6","encoding","encoding","224","H20.jpg","3",".","37","0","878"
"6","6","encoding","encoding","225","G58.jpg","1",".","0","0","1000"
"6","6","encoding","encoding","226","G2.jpg","1",".","0","0","1000"
"6","6","encoding","encoding","227","G74.jpg","1",".","37","0","401"
"6","6","encoding","encoding","228","H16.jpg","3",".","37","0","699"
"6","6","encoding","encoding","229","H18.jpg","3",".","37","0","315"
"6","6","encoding","encoding","230","H8.jpg","3",".","0","0","1000"
"6","6","encoding","encoding","231","H40.jpg","3",".","37","0","368"
"6","6","encoding","encoding","232","H26.jpg","3",".","0","0","1000"
"6","6","encoding","encoding","233","H77.jpg","3",".","0","0","1000"
"6","6","encoding","encoding","234","H35.jpg","3",".","0","0","1000"
"6","6","encoding","encoding","235","G29.jpg","1",".","37","0","596"
"6","6","encoding","encoding","236","H5.jpg","3",".","0","0","1000"
"6","6","encoding","encoding","237","H36.jpg","3",".","37","0","384"
"6","6","encoding","encoding","238","H74.jpg","3",".","0","0","1000"
"6","6","encoding","encoding","239","H50.jpg","3",".","37","0","382"
"6","6","encoding","encoding","240","H33.jpg","3",".","0","0","1000"
"6","6","encoding","encoding","241","H71.jpg","3",".","0","0","1000"
"6","6","encoding","encoding","242","H27.jpg","3",".","0","0","1000"
"6","6","encoding","encoding","243","H67.jpg","3",".","0","0","1000"
"6","6","encoding","encoding","244","H27.jpg","3",".","0","0","1000"
"6","6","encoding","encoding","245","H48.jpg","3",".","37","0","823"
"6","6","encoding","encoding","246","H61.jpg","3",".","0","0","1000"
"6","6","encoding","encoding","247","G18.jpg","1",".","0","0","1000"
"6","6","encoding","encoding","248","G54.jpg","1",".","0","0","1000"
"6","6","encoding","encoding","249","H63.jpg","3",".","37","0","281"
"6","6","encoding","encoding","250","G67.jpg","1",".","36","0","516"
"6","6","encoding","encoding","251","G22.jpg","1",".","0","0","1000"
"6","6","encoding","encoding","252","G79.jpg","1",".","0","0","1000"
"6","6","encoding","encoding","253","G69.jpg","1",".","0","0","1000"
"6","6","encoding","encoding","254","G20.jpg","1",".","0","0","1000"
"6","6","encoding","encoding","255","H12.jpg","3",".","0","0","1000"
"6","6","encoding","encoding","256","H78.jpg","3",".","0","0","1000"
"6","6","encoding","encoding","257","H23.jpg","3",".","0","0","1000"
"6","6","encoding","encoding","258","H58.jpg","3",".","37","0","132"
"6","6","encoding","encoding","259","H76.jpg","3",".","36","0","852"
"6","6","encoding","encoding","260","H52.jpg","3",".","37","0","284"
"6","6","encoding","encoding","261","G76.jpg","1",".","0","0","1000"
"6","6","encoding","encoding","262","H29.jpg","3",".","0","0","1000"
"6","6","encoding","encoding","263","H24.jpg","3",".","0","0","1000"
"6","6","encoding","encoding","265","H64.jpg","3",".","0","0","1000"
"6","6","encoding","encoding","266","H32.jpg","3",".","0","0","1000"
"6","6","encoding","encoding","267","H42.jpg","3",".","37","0","630"
"6","6","encoding","encoding","268","G7.jpg","1",".","0","0","1000"
"6","6","encoding","encoding","269","G9.jpg","1",".","36","0","763"
"6","6","encoding","encoding","270","H59.jpg","3",".","37","0","963"
"6","6","encoding","encoding","271","H76.jpg","3",".","0","0","1000"
"6","6","encoding","encoding","272","H32.jpg","3",".","37","0","335"
"6","6","encoding","encoding","273","H57.jpg","3",".","37","0","201"
"6","6","encoding","encoding","274","H44.jpg","3",".","37","0","289"
"6","6","encoding","encoding","275","H10.jpg","3",".","0","0","1000"
"6","6","encoding","encoding","276","H21.jpg","3",".","37","0","415"
"6","6","encoding","encoding","277","H58.jpg","3",".","37","0","389"
"6","6","encoding","encoding","278","H37.jpg","3",".","37","0","286"
"6","6","encoding","encoding","279","H18.jpg","3",".","37","0","656"
"6","6","encoding","encoding","280","H41.jpg","3",".","0","0","1000"
"6","6","encoding","encoding","281","G10.jpg","1",".","0","0","1000"
"6","6","encoding","encoding","282","H74.jpg","3",".","0","0","1000"
"6","6","encoding","encoding","283","G65.jpg","1",".","0","0","1000"
"6","6","encoding","encoding","284","H65.jpg","3",".","37","0","267"
"6","6","encoding","encoding","285","H35.jpg","3",".","0","0","1000"
"6","6","encoding","encoding","286","H55.jpg","3",".","36","0","343"
"6","6","encoding","encoding","287","H57.jpg","3",".","0","0","1000"
"6","6","encoding","encoding","288","H3.jpg","3",".","0","0","1000"
"6","6","encoding","encoding","289","H49.jpg","3",".","0","0","1000"
"6","6","encoding","encoding","290","H21.jpg","3",".","36","0","586"
"6","6","encoding","encoding","291","H59.jpg","3",".","0","0","1000"
"6","6","encoding","encoding","292","H36.jpg","3",".","37","0","497"
"6","6","encoding","encoding","293","H77.jpg","3",".","0","0","1000"
"6","6","encoding","encoding","294","G14.jpg","1",".","0","0","1000"
"6","6","encoding","encoding","295","H23.jpg","3",".","37","0","839"
"6","6","encoding","encoding","296","G25.jpg","1",".","37","0","419"
"6","6","encoding","encoding","297","H67.jpg","3",".","37","0","509"
"6","6","encoding","encoding","298","H58.jpg","3",".","37","0","538"
"6","6","encoding","encoding","299","G12.jpg","1",".","0","0","1000"
"6","6","encoding","encoding","300","G71.jpg","1",".","0","0","1000"
"6","6","encoding","encoding","301","H46.jpg","3",".","37","0","210"
"6","6","encoding","encoding","302","H49.jpg","3",".","0","0","1000"
"6","6","encoding","encoding","303","H73.jpg","3",".","0","0","1000"
"6","6","encoding","encoding","304","H69.jpg","3",".","0","0","1000"
"6","6","encoding","encoding","305","H75.jpg","3",".","0","0","1000"
"6","6","encoding","encoding","306","H11.jpg","3",".","0","0","1000"
"6","6","encoding","encoding","307","H52.jpg","3",".","37","0","116"
"6","6","encoding","encoding","308","G31.jpg","1",".","0","0","1000"
"6","6","encoding","encoding","309","H7.jpg","3",".","37","0","145"
"6","6","encoding","encoding","310","H76.jpg","3",".","36","0","653"
"6","6","encoding","encoding","311","G19.jpg","1",".","0","0","1000"
"6","6","encoding","encoding","312","G32.jpg","1",".","0","0","1000"
"6","6","encoding","encoding","313","H60.jpg","3",".","0","0","1000"
"6","6","encoding","encoding","314","H45.jpg","3",".","37","0","577"
"6","6","encoding","encoding","315","H75.jpg","3",".","37","0","402"
"6","6","encoding","encoding","316","H6.jpg","3",".","0","0","1000"
"6","6","encoding","encoding","317","H28.jpg","3",".","0","0","1000"
"6","6","encoding","encoding","318","H51.jpg","3",".","0","0","1000"
"6","6","encoding","encoding","319","H70.jpg","3",".","0","0","1000"
"6","6","encoding","encoding","320","G59.jpg","1",".","0","0","1000"
"6","6","encoding","encoding","321","H0.jpg","3",".","37","0","184"
"6","6","encoding","encoding","322","H35.jpg","3",".","37","0","297"
"6","6","encoding","encoding","323","H38.jpg","3",".","0","0","1000"
"6","6","encoding","encoding","324","H14.jpg","3",".","37","0","92"
"6","6","encoding","encoding","325","G53.jpg","",".","0","0","1000"
"6","6","retrieval","new_object","1","E69.jpg",".",".","0","0","2000"
"6","6","retrieval","new_object","2","E67.jpg",".",".","0","0","2000"
"6","6","retrieval","old_object","3","G44.jpg",".","1","0","0","2000"
"6","6","retrieval","new_object","4","F24.jpg",".",".","0","0","2000"
"6","6","retrieval","old_object","5","H55.jpg",".","3","0","0","2000"
"6","6","retrieval","old_object","6","G26.jpg",".","1","36","1","209"
"6","6","retrieval","old_object","7","H16.jpg",".","3","36","1","1511"
"6","6","retrieval","old_object","8","H31.jpg",".","3","0","0","2000"
"6","6","retrieval","new_object","9","E65.jpg",".",".","0","0","2000"
"6","6","retrieval","old_object","10","G37.jpg",".","1","0","0","2000"
"6","6","retrieval","old_object","11","G22.jpg",".","1","37","0","453"
"6","6","retrieval","old_object","12","G36.jpg",".","1","0","0","2000"
"6","6","retrieval","new_object","13","E68.jpg",".",".","0","0","2000"
"6","6","retrieval","new_object","14","E58.jpg",".",".","0","0","2000"
"6","6","retrieval","old_object","15","G3.jpg",".","1","0","0","2000"
"6","6","retrieval","new_object","16","E5.jpg",".",".","0","0","2000"
"6","6","retrieval","new_object","17","F34.jpg",".",".","37","1","539"
"6","6","retrieval","old_object","18","G23.jpg",".","1","0","0","2000"
"6","6","retrieval","new_object","19","E55.jpg",".",".","37","1","1961"
"6","6","retrieval","new_object","20","F75.jpg",".",".","0","0","2000"
"6","6","retrieval","old_object","21","G30.jpg",".","1","0","0","2000"
"6","6","retrieval","new_object","22","E34.jpg",".",".","0","0","2000"
"6","6","retrieval","old_object","23","H74.jpg",".","3","37","0","1181"
"6","6","retrieval","old_object","24","G56.jpg",".","1","0","0","2000"
"6","6","retrieval","new_object","25","F72.jpg",".",".","37","1","1936"
"6","6","retrieval","old_object","26","G68.jpg",".","1","0","0","2000"
"6","6","retrieval","old_object","27","H22.jpg",".","3","0","0","2000"
"6","6","retrieval","old_object","28","H20.jpg",".","3","36","1","1563"
"6","6","retrieval","new_object","29","F31.jpg",".",".","36","0","1974"
"6","6","retrieval","new_object","30","E78.jpg",".",".","0","0","2000"
"6","6","retrieval","old_object","31","H34.jpg",".","3","0","0","2000"
"6","6","retrieval","new_object","32","F6.jpg",".",".","0","0","2000"
"6","6","retrieval","new_object","33","F0.jpg",".",".","37","1","18"
"6","6","retrieval","new_object","34","F61.jpg",".",".","0","0","2000"
"6","6","retrieval","old_object","35","G21.jpg",".","1","36","1","1857"
"6","6","retrieval","old_object","36","H67.jpg",".","3","36","1","1559"
"6","6","retrieval","old_object","37","G17.jpg",".","1","37","0","1697"
"6","6","retrieval","old_object","38","G60.jpg",".","1","0","0","2000"
"6","6","retrieval","new_object","39","E79.jpg",".",".","0","0","2000"
"6","6","retrieval","old_object","40","H52.jpg",".","3","36","1","1289"
"6","6","retrieval","new_object","41","F79.jpg",".",".","0","0","2000"
"6","6","retrieval","new_object","42","F67.jpg",".",".","0","0","2000"
"6","6","retrieval","old_object","43","H60.jpg",".","3","37","0","119"
"6","6","retrieval","new_object","44","F54.jpg",".",".","0","0","2000"
"6","6","retrieval","old_object","45","G51.jpg",".","1","0","0","2000"
"6","6","retrieval","new_object","46","E42.jpg",".",".","0","0","2000"
"6","6","retrieval","old_object","47","H33.jpg",".","3","37","0","312"
"6","6","retrieval","new_object","48","E10.jpg",".",".","0","0","2000"
"6","6","retrieval","old_object","49","G74.jpg",".","1","0","0","2000"
"6","6","retrieval","old_object","50","H14.jpg",".","3","36","1","167"
"6","6","retrieval","old_object","51","G35.jpg",".","1","0","0","2000"
"6","6","retrieval","new_object","52","E40.jpg",".",".","0","0","2000"
"6","6","retrieval","new_object","53","F43.jpg",".",".","37","1","16"
"6","6","retrieval","old_object","54","H37.jpg",".","3","0","0","2000"
"6","6","retrieval","old_object","55","G54.jpg",".","1","36","1","766"
"6","6","retrieval","old_object","56","G41.jpg",".","1","0","0","2000"
"6","6","retrieval","new_object","57","E26.jpg",".",".","0","0","2000"
"6","6","retrieval","old_object","58","G11.jpg",".","1","0","0","2000"
"6","6","retrieval","old_object","59","G5.jpg",".","1","0","0","2000"
"6","6","retrieval","new_object","60","E3.jpg",".",".","0","0","2000"
"6","6","retrieval","old_object","61","G46.jpg",".","1","0","0","2000"
"6","6","retrieval","old_object","62","H6.jpg",".","3","36","1","1350"
"6","6","retrieval","new_object","63","E19.jpg",".",".","0","0","2000"
"6","6","retrieval","old_object","64","G6.jpg",".","1","0","0","2000"
"6","6","retrieval","new_object","65","F27.jpg",".",".","37","1","53"
"6","6","retrieval","old_object","67","H17.jpg",".","3","36","1","1784"
"6","6","retrieval","new_object","68","F38.jpg",".",".","37","1","1446"
"6","6","retrieval","old_object","69","G42.jpg",".","1","0","0","2000"
"6","6","retrieval","new_object","70","E45.jpg",".",".","0","0","2000"
"6","6","retrieval","new_object","71","E2.jpg",".",".","37","1","1217"
"6","6","retrieval","old_object","72","H56.jpg",".","3","0","0","2000"
"6","6","retrieval","new_object","73","E14.jpg",".",".","0","0","2000"
"6","6","retrieval","old_object","74","G49.jpg",".","1","0","0","2000"
"6","6","retrieval","new_object","75","E36.jpg",".",".","36","0","1585"
"6","6","retrieval","new_object","76","F29.jpg",".",".","37","1","1595"
"6","6","retrieval","new_object","77","E48.jpg",".",".","0","0","2000"
"6","6","retrieval","new_object","78","F49.jpg",".",".","37","1","1614"
"6","6","retrieval","old_object","79","H51.jpg",".","3","37","0","1726"
"6","6","retrieval","old_object","80","H78.jpg",".","3","36","1","1162"
"6","6","retrieval","new_object","81","E21.jpg",".",".","37","1","1697"
"6","6","retrieval","new_object","82","E15.jpg",".",".","0","0","2000"
"6","6","retrieval","old_object","83","G50.jpg",".","1","37","0","1669"
"6","6","retrieval","new_object","84","E51.jpg",".",".","37","1","1667"
"6","6","retrieval","new_object","85","E43.jpg",".",".","0","0","2000"
"6","6","retrieval","new_object","86","F66.jpg",".",".","0","0","2000"
"6","6","retrieval","new_object","87","F8.jpg",".",".","0","0","2000"
"6","6","retrieval","new_object","88","E77.jpg",".",".","0","0","2000"
"6","6","retrieval","old_object","89","G65.jpg",".","1","0","0","2000"
"6","6","retrieval","new_object","90","F32.jpg",".",".","0","0","2000"
"6","6","retrieval","new_object","91","F33.jpg",".",".","0","0","2000"
"6","6","retrieval","new_object","92","E16.jpg",".",".","0","0","2000"
"6","6","retrieval","old_object","93","H64.jpg",".","3","36","1","1569"
"6","6","retrieval","old_object","94","G0.jpg",".","1","0","0","2000"
"6","6","retrieval","new_object","95","E29.jpg",".",".","0","0","2000"
"6","6","retrieval","new_object","96","E35.jpg",".",".","0","0","2000"
"6","6","retrieval","old_object","97","H4.jpg",".","3","0","0","2000"
"6","6","retrieval","new_object","98","E63.jpg",".",".","0","0","2000"
"6","6","retrieval","old_object","99","G63.jpg",".","1","37","0","676"
"6","6","retrieval","new_object","100","E76.jpg",".",".","0","0","2000"
"6","6","retrieval","old_object","101","G69.jpg",".","1","36","1","1911"
"6","6","retrieval","new_object","102","F58.jpg",".",".","0","0","2000"
"6","6","retrieval","old_object","103","G19.jpg",".","1","36","1","1730"
"6","6","retrieval","old_object","104","H70.jpg",".","3","36","1","1425"
"6","6","retrieval","new_object","105","E61.jpg",".",".","0","0","2000"
"6","6","retrieval","old_object","106","H43.jpg",".","3","37","0","349"
"6","6","retrieval","new_object","107","F50.jpg",".",".","0","0","2000"
"6","6","retrieval","new_object","108","E8.jpg",".",".","0","0","2000"
"6","6","retrieval","new_object","109","E70.jpg",".",".","0","0","2000"
"6","6","retrieval","new_object","110","E66.jpg",".",".","0","0","2000"
"6","6","retrieval","new_object","111","F40.jpg",".",".","0","0","2000"
"6","6","retrieval","new_object","112","F78.jpg",".",".","0","0","2000"
"6","6","retrieval","new_object","113","E30.jpg",".",".","0","0","2000"
"6","6","retrieval","new_object","114","F55.jpg",".",".","37","1","1423"
"6","6","retrieval","new_object","115","E23.jpg",".",".","0","0","2000"
"6","6","retrieval","old_object","116","G28.jpg",".","1","0","0","2000"
"6","6","retrieval","old_object","117","H71.jpg",".","3","0","0","2000"
"6","6","retrieval","old_object","118","H58.jpg",".","3","36","1","1335"
"6","6","retrieval","new_object","119","F39.jpg",".",".","0","0","2000"
"6","6","retrieval","old_object","120","H5.jpg",".","3","36","1","1903"
"6","6","retrieval","new_object","121","E72.jpg",".",".","0","0","2000"
"6","6","retrieval","new_object","122","E22.jpg",".",".","0","0","2000"
"6","6","retrieval","new_object","123","E41.jpg",".",".","0","0","2000"
"6","6","retrieval","new_object","124","F3.jpg",".",".","0","0","2000"
"6","6","retrieval","new_object","125","F21.jpg",".",".","0","0","2000"
"6","6","retrieval","new_object","126","F51.jpg",".",".","0","0","2000"
"6","6","retrieval","old_object","127","H13.jpg",".","3","0","0","2000"
"6","6","retrieval","new_object","128","F63.jpg",".",".","37","1","1656"
"6","6","retrieval","old_object","129","G61.jpg",".","1","37","0","1690"
"6","6","retrieval","old_object","130","H32.jpg",".","3","36","1","1333"
"6","6","retrieval","old_object","131","G15.jpg",".","1","0","0","2000"
"6","6","retrieval","old_object","133","H21.jpg",".","3","36","1","1865"
"6","6","retrieval","old_object","134","H42.jpg",".","3","36","1","1086"
"6","6","retrieval","new_object","135","E1.jpg",".",".","0","0","2000"
"6","6","retrieval","new_object","136","F7.jpg",".",".","0","0","2000"
"6","6","retrieval","old_object","137","G52.jpg",".","1","37","0","1858"
"6","6","retrieval","old_object","138","H57.jpg",".","3","36","1","1256"
"6","6","retrieval","new_object","139","F1.jpg",".",".","0","0","2000"
"6","6","retrieval","new_object","140","F57.jpg",".",".","0","0","2000"
"6","6","retrieval","new_object","141","F12.jpg",".",".","0","0","2000"
"6","6","retrieval","old_object","142","H29.jpg",".","3","36","1","1409"
"6","6","retrieval","old_object","143","H35.jpg",".","3","36","1","1385"
"6","6","retrieval","old_object","144","H75.jpg",".","3","36","1","1383"
"6","6","retrieval","old_object","145","H23.jpg",".","3","36","1","1551"
"6","6","retrieval","new_object","146","F68.jpg",".",".","0","0","2000"
"6","6","retrieval","old_object","147","H18.jpg",".","3","36","1","409"
"6","6","retrieval","new_object","148","F62.jpg",".",".","0","0","2000"
"6","6","retrieval","new_object","149","F60.jpg",".",".","37","1","1731"
"6","6","retrieval","old_object","150","G14.jpg",".","1","0","0","2000"
"6","6","retrieval","old_object","151","H77.jpg",".","3","36","1","1243"
"6","6","retrieval","new_object","152","E25.jpg",".",".","36","0","1911"
"6","6","retrieval","old_object","153","H27.jpg",".","3","0","0","2000"
"6","6","retrieval","new_object","154","F44.jpg",".",".","36","0","273"
"6","6","retrieval","new_object","155","E56.jpg",".",".","37","1","1853"
"6","6","retrieval","old_object","156","G72.jpg",".","1","0","0","2000"
"6","6","retrieval","old_object","157","G77.jpg",".","1","36","1","1923"
"6","6","retrieval","old_object","158","G18.jpg",".","1","0","0","2000"
"6","6","retrieval","old_object","159","H53.jpg",".","3","0","0","2000"
"6","6","retrieval","new_object","160","E38.jpg",".",".","0","0","2000"
"6","6","retrieval","old_object","161","G7.jpg",".","1","0","0","2000"
"6","6","retrieval","new_object","162","F26.jpg",".",".","0","0","2000"
"6","6","retrieval","old_object","163","G66.jpg",".","1","0","0","2000"
"6","6","retrieval","old_object","164","H47.jpg",".","3","36","1","1944"
"6","6","retrieval","old_object","165","H11.jpg",".","3","36","1","1706"
"6","6","retrieval","new_object","166","F4.jpg",".",".","0","0","2000"
"6","6","retrieval","old_object","167","G24.jpg",".","1","0","0","2000"
"6","6","retrieval","new_object","168","F25.jpg",".",".","0","0","2000"
"6","6","retrieval","old_object","169","G39.jpg",".","1","0","0","2000"
"6","6","retrieval","new_object","170","E4.jpg",".",".","0","0","2000"
"6","6","retrieval","old_object","171","H40.jpg",".","3","36","1","1778"
"6","6","retrieval","new_object","172","E32.jpg",".",".","0","0","2000"
"6","6","retrieval","old_object","173","H30.jpg",".","3","0","0","2000"
"6","6","retrieval","old_object","174","G27.jpg",".","1","0","0","2000"
"6","6","retrieval","old_object","175","H0.jpg",".","3","36","1","1180"
"6","6","retrieval","new_object","176","E59.jpg",".",".","37","1","1548"
"6","6","retrieval","new_object","177","E31.jpg",".",".","0","0","2000"
"6","6","retrieval","new_object","178","F5.jpg",".",".","0","0","2000"
"6","6","retrieval","old_object","179","G20.jpg",".","1","37","0","1470"
"6","6","retrieval","old_object","180","G33.jpg",".","1","0","0","2000"
"6","6","retrieval","old_object","181","H25.jpg",".","3","36","1","1797"
"6","6","retrieval","new_object","182","E74.jpg",".",".","0","0","2000"
"6","6","retrieval","old_object","183","H19.jpg",".","3","0","0","2000"
"6","6","retrieval","new_object","184","E12.jpg",".",".","0","0","2000"
"6","6","retrieval","new_object","185","E50.jpg",".",".","0","0","2000"
"6","6","retrieval","old_object","186","G38.jpg",".","1","36","1","1944"
"6","6","retrieval","old_object","187","G32.jpg",".","1","36","1","1892"
"6","6","retrieval","old_object","188","H61.jpg",".","3","0","0","2000"
"6","6","retrieval","new_object","189","E17.jpg",".",".","0","0","2000"
"6","6","retrieval","new_object","190","F74.jpg",".",".","0","0","2000"
"6","6","retrieval","old_object","191","G4.jpg",".","1","36","1","1864"
"6","6","retrieval","new_object","192","F70.jpg",".",".","0","0","2000"
"6","6","retrieval","new_object","193","F15.jpg",".",".","37","1","1633"
"6","6","retrieval","old_object","194","H63.jpg",".","3","36","1","1852"
"6","6","retrieval","new_object","195","E13.jpg",".",".","0","0","2000"
"6","6","retrieval","new_object","196","E71.jpg",".",".","37","1","1888"
"6","6","retrieval","old_object","197","H76.jpg",".","3","0","0","2000"
"6","6","retrieval","old_object","199","H69.jpg",".","3","36","1","1394"
"6","6","retrieval","new_object","200","F42.jpg",".",".","0","0","2000"
"6","6","retrieval","new_object","201","E60.jpg",".",".","37","1","1784"
"6","6","retrieval","new_object","202","F36.jpg",".",".","0","0","2000"
"6","6","retrieval","new_object","203","E6.jpg",".",".","37","1","225"
"6","6","retrieval","new_object","204","F69.jpg",".",".","0","0","2000"
"6","6","retrieval","new_object","205","E49.jpg",".",".","0","0","2000"
"6","6","retrieval","new_object","206","F2.jpg",".",".","0","0","2000"
"6","6","retrieval","new_object","207","F22.jpg",".",".","37","1","1582"
"6","6","retrieval","new_object","208","F56.jpg",".",".","0","0","2000"
"6","6","retrieval","old_object","209","G16.jpg",".","1","37","0","1676"
"6","6","retrieval","old_object","210","H8.jpg",".","3","0","0","2000"
"6","6","retrieval","old_object","211","H49.jpg",".","3","36","1","1156"
"6","6","retrieval","old_object","212","H24.jpg",".","3","0","0","2000"
"6","6","retrieval","new_object","213","F53.jpg",".",".","0","0","2000"
"6","6","retrieval","new_object","214","E24.jpg",".",".","0","0","2000"
"6","6","retrieval","old_object","215","G2.jpg",".","1","0","0","2000"
"6","6","retrieval","new_object","216","F14.jpg",".",".","0","0","2000"
"6","6","retrieval","new_object","217","F71.jpg",".",".","0","0","2000"
"6","6","retrieval","old_object","218","H46.jpg",".","3","36","1","1280"
"6","6","retrieval","new_object","219","F17.jpg",".",".","36","0","353"
"6","6","retrieval","old_object","220","H73.jpg",".","3","36","1","967"
"6","6","retrieval","new_object","221","E20.jpg",".",".","0","0","2000"
"6","6","retrieval","new_object","222","E53.jpg",".",".","0","0","2000"
"6","6","retrieval","old_object","223","G31.jpg",".","1","37","0","1647"
"6","6","retrieval","old_object","224","H28.jpg",".","3","0","0","2000"
"6","6","retrieval","old_object","225","H68.jpg",".","3","36","1","1970"
"6","6","retrieval","new_object","226","F19.jpg",".",".","0","0","2000"
"6","6","retrieval","new_object","227","E52.jpg",".",".","37","1","1953"
"6","6","retrieval","new_object","228","F52.jpg",".",".","0","0","2000"
"6","6","retrieval","old_object","229","H1.jpg",".","3","37","0","245"
"6","6","retrieval","old_object","230","G53.jpg",".","1","0","0","2000"
"6","6","retrieval","old_object","231","G79.jpg",".","1","0","0","2000"
"6","6","retrieval","new_object","232","F59.jpg",".",".","0","0","2000"
"6","6","retrieval","old_object","233","H41.jpg",".","3","37","0","329"
"6","6","retrieval","old_object","234","G58.jpg",".","1","36","1","1772"
"6","6","retrieval","old_object","235","H12.jpg",".","3","0","0","2000"
"6","6","retrieval","old_object","236","H79.jpg",".","3","36","1","1762"
"6","6","retrieval","new_object","237","E7.jpg",".",".","0","0","2000"
"6","6","retrieval","new_object","238","E46.jpg",".",".","37","1","90"
"6","6","retrieval","old_object","239","H44.jpg",".","3","36","1","1782"
"6","6","retrieval","old_object","240","G12.jpg",".","1","36","1","1793"
"6","6","retrieval","old_object","241","H3.jpg",".","3","0","0","2000"
"6","6","retrieval","old_object","242","H36.jpg",".","3","0","0","2000"
"6","6","retrieval","new_object","243","E73.jpg",".",".","0","0","2000"
"6","6","retrieval","old_object","244","H66.jpg",".","3","0","0","2000"
"6","6","retrieval","new_object","245","F13.jpg",".",".","0","0","2000"
"6","6","retrieval","old_object","246","G13.jpg",".","1","0","0","2000"
"6","6","retrieval","old_object","247","H59.jpg",".","3","0","0","2000"
"6","6","retrieval","old_object","248","H38.jpg",".","3","36","1","1304"
"6","6","retrieval","new_object","249","F76.jpg",".",".","0","0","2000"
"6","6","retrieval","old_object","250","G48.jpg",".","1","37","0","1924"
"6","6","retrieval","old_object","251","G10.jpg",".","1","36","1","1498"
"6","6","retrieval","old_object","252","H65.jpg",".","3","36","1","1668"
"6","6","retrieval","old_object","253","G62.jpg",".","1","0","0","2000"
"6","6","retrieval","old_object","254","G55.jpg",".","1","36","1","1905"
"6","6","retrieval","new_object","255","F73.jpg",".",".","0","0","2000"
"6","6","retrieval","new_object","256","E28.jpg",".",".","37","1","1915"
"6","6","retrieval","new_object","257","F37.jpg",".",".","0","0","2000"
"6","6","retrieval","new_object","258","E9.jpg",".",".","0","0","2000"
"6","6","retrieval","new_object","259","F48.jpg",".",".","37","1","1967"
"6","6","retrieval","old_object","260","G43.jpg",".","1","36","1","1334"
"6","6","retrieval","new_object","261","F41.jpg",".",".","0","0","2000"
"6","6","retrieval","new_object","262","E54.jpg",".",".","0","0","2000"
"6","6","retrieval","new_object","263","F18.jpg",".",".","0","0","2000"
"6","6","retrieval","old_object","265","G57.jpg",".","1","36","1","1782"
"6","6","retrieval","new_object","266","F45.jpg",".",".","37","1","1701"
"6","6","retrieval","new_object","267","E64.jpg",".",".","0","0","2000"
"6","6","retrieval","new_object","268","E62.jpg",".",".","0","0","2000"
"6","6","retrieval","old_object","269","H62.jpg",".","3","37","0","467"
"6","6","retrieval","old_object","270","G78.jpg",".","1","0","0","2000"
"6","6","retrieval","new_object","271","E57.jpg",".",".","37","1","735"
"6","6","retrieval","new_object","272","F20.jpg",".",".","37","1","1355"
"6","6","retrieval","old_object","273","H54.jpg",".","3","0","0","2000"
"6","6","retrieval","old_object","274","H50.jpg",".","3","0","0","2000"
"6","6","retrieval","new_object","275","F77.jpg",".",".","0","0","2000"
"6","6","retrieval","old_object","276","G45.jpg",".","1","0","0","2000"
"6","6","retrieval","old_object","277","G47.jpg",".","1","0","0","2000"
"6","6","retrieval","new_object","278","F9.jpg",".",".","0","0","2000"
"6","6","retrieval","new_object","279","E47.jpg",".",".","37","1","1629"
"6","6","retrieval","new_object","280","F46.jpg",".",".","37","1","1637"
"6","6","retrieval","old_object","281","H15.jpg",".","3","0","0","2000"
"6","6","retrieval","old_object","282","G76.jpg",".","1","36","1","1031"
"6","6","retrieval","new_object","283","E11.jpg",".",".","36","0","259"
"6","6","retrieval","new_object","284","E27.jpg",".",".","37","1","1746"
"6","6","retrieval","old_object","285","H2.jpg",".","3","37","0","1971"
"6","6","retrieval","old_object","286","H9.jpg",".","3","36","1","1655"
"6","6","retrieval","new_object","287","E0.jpg",".",".","0","0","2000"
"6","6","retrieval","new_object","288","F47.jpg",".",".","0","0","2000"
"6","6","retrieval","old_object","289","G25.jpg",".","1","0","0","2000"
"6","6","retrieval","old_object","290","G67.jpg",".","1","0","0","2000"
"6","6","retrieval","old_object","291","H39.jpg",".","3","36","1","1846"
"6","6","retrieval","old_object","292","H7.jpg",".","3","0","0","2000"
"6","6","retrieval","new_object","293","E37.jpg",".",".","0","0","2000"
"6","6","retrieval","old_object","294","G9.jpg",".","1","37","0","384"
"6","6","retrieval","new_object","295","F65.jpg",".",".","36","0","373"
"6","6","retrieval","old_object","296","G29.jpg",".","1","0","0","2000"
"6","6","retrieval","new_object","297","F30.jpg",".",".","37","1","1877"
"6","6","retrieval","old_object","298","H72.jpg",".","3","0","0","2000"
"6","6","retrieval","old_object","299","H48.jpg",".","3","36","1","1955"
"6","6","retrieval","old_object","300","G1.jpg",".","1","0","0","2000"
"6","6","retrieval","new_object","301","E18.jpg",".",".","0","0","2000"
"6","6","retrieval","new_object","302","F28.jpg",".",".","37","1","1902"
"6","6","retrieval","old_object","303","G8.jpg",".","1","0","0","2000"
"6","6","retrieval","old_object","304","H10.jpg",".","3","0","0","2000"
"6","6","retrieval","old_object","305","G73.jpg",".","1","0","0","2000"
"6","6","retrieval","new_object","306","F11.jpg",".",".","37","1","1970"
"6","6","retrieval","old_object","307","G59.jpg",".","1","37","0","1452"
"6","6","retrieval","old_object","308","G64.jpg",".","1","0","0","2000"
"6","6","retrieval","old_object","309","G34.jpg",".","1","0","0","2000"
"6","6","retrieval","new_object","310","E33.jpg",".",".","0","0","2000"
"6","6","retrieval","old_object","311","G40.jpg",".","1","37","0","1890"
"6","6","retrieval","old_object","312","H26.jpg",".","3","0","0","2000"
"6","6","retrieval","old_object","313","G70.jpg",".","1","0","0","2000"
"6","6","retrieval","old_object","314","G71.jpg",".","1","0","0","2000"
"6","6","retrieval","old_object","315","H45.jpg",".","3","0","0","2000"
"6","6","retrieval","new_object","316","F35.jpg",".",".","0","0","2000"
"6","6","retrieval","new_object","317","E75.jpg",".",".","0","0","2000"
"6","6","retrieval","new_object","318","F10.jpg",".",".","37","1","1803"
"6","6","retrieval","new_object","319","F64.jpg",".",".","0","0","2000"
"6","6","retrieval","new_object","320","F23.jpg",".",".","37","1","1625"
"6","6","retrieval","old_object","321","G75.jpg",".","1","0","0","2000"
"6","6","retrieval","new_object","322","E44.jpg",".",".","0","0","2000"
"6","6","retrieval","new_object","323","E39.jpg",".",".","0","0","2000"
"6","6","retrieval","new_object","324","F16.jpg",".",".","37","1","1792"
"6","6","retrieval","new_object","325","F13.jpg",".",".","0","0","2000"
"6","6","demographics_block","gender","1",".",".",".","male","1","32971"
"6","6","demographics_block","age","1",".",".",".","33","1","32971"
"6","6","demographics_block","education","1",".",".",".","B.A","1","32971"
"6","6","demographics_block","left_right_handed","2",".",".",".","Right","1","17665"
"6","6","demographics_block","raceoption1","2",".",".",".","0","1","17665"
"6","6","demographics_block","raceoption2","2",".",".",".","","1","17665"
"6","6","demographics_block","raceoption3","2",".",".",".","","1","17665"
"6","6","demographics_block","raceoption4","2",".",".",".","","1","17665"
"6","6","demographics_block","raceoption5","2",".",".",".","","1","17665"
"6","6","demographics_block","raceoption6","2",".",".",".","","1","17665"
"6","6","demographics_block","raceoption7","2",".",".",".","","1","17665"
"6","6","demographics_block","raceoption8","2",".",".",".","","1","17665"
"6","6","demographics_block","raceoption9","2",".",".",".","","1","17665"
"6","6","demographics_block","raceother","2",".",".",".","","1","17665"
"6","6","demographics_block","raceother","2",".",".",".","","1","17665"
"6","6","demographics_block","english_language","2",".",".",".","Yes","1","17665"
"6","6","demographics_block","other","2",".",".",".","","1","17665"
"6","6","demographics_block","eyesight","3",".",".",".","Yes","1","11559"
"6","6","demographics_block","colorblind","3",".",".",".","No","1","11559"
"12","12","encoding","encoding","1","G53.jpg","1",".","0","0","1000"
"12","12","encoding","encoding","2","H10.jpg","3",".","0","0","1000"
"12","12","encoding","encoding","3","H22.jpg","3",".","36","0","302"
"12","12","encoding","encoding","4","G70.jpg","1",".","36","0","100"
"12","12","encoding","encoding","5","H23.jpg","3",".","36","0","41"
"12","12","encoding","encoding","6","G57.jpg","1",".","37","0","49"
"12","12","encoding","encoding","7","H67.jpg","3",".","36","0","106"
"12","12","encoding","encoding","8","H6.jpg","3",".","36","0","89"
"12","12","encoding","encoding","9","H51.jpg","3",".","37","0","4"
"12","12","encoding","encoding","10","H27.jpg","3",".","37","0","11"
"12","12","encoding","encoding","11","H29.jpg","3",".","37","0","264"
"12","12","encoding","encoding","12","H17.jpg","3",".","37","0","17"
"12","12","encoding","encoding","13","G41.jpg","1",".","36","0","68"
"12","12","encoding","encoding","14","H53.jpg","3",".","37","0","52"
"12","12","encoding","encoding","15","H69.jpg","3",".","37","0","105"
"12","12","encoding","encoding","16","H31.jpg","3",".","36","0","94"
"12","12","encoding","encoding","17","H12.jpg","3",".","36","0","413"
"12","12","encoding","encoding","18","G55.jpg","1",".","36","0","30"
"12","12","encoding","encoding","19","G6.jpg","1",".","36","0","82"
"12","12","encoding","encoding","20","H17.jpg","3",".","36","0","12"
"12","12","encoding","encoding","21","H0.jpg","3",".","36","0","59"
"12","12","encoding","encoding","22","H54.jpg","3",".","36","0","21"
"12","12","encoding","encoding","23","H24.jpg","3",".","37","0","141"
"12","12","encoding","encoding","24","H11.jpg","3",".","36","0","125"
"12","12","encoding","encoding","25","H41.jpg","3",".","36","0","180"
"12","12","encoding","encoding","26","H62.jpg","3",".","37","0","89"
"12","12","encoding","encoding","27","G47.jpg","1",".","37","0","12"
"12","12","encoding","encoding","28","H22.jpg","3",".","37","0","35"
"12","12","encoding","encoding","29","H11.jpg","3",".","37","0","8"
"12","12","encoding","encoding","30","H5.jpg","3",".","36","0","72"
"12","12","encoding","encoding","31","H1.jpg","3",".","36","0","74"
"12","12","encoding","encoding","32","H50.jpg","3",".","37","0","69"
"12","12","encoding","encoding","33","H45.jpg","3",".","37","0","123"
"12","12","encoding","encoding","34","H38.jpg","3",".","37","0","2"
"12","12","encoding","encoding","35","H24.jpg","3",".","37","0","9"
"12","12","encoding","encoding","36","H16.jpg","3",".","37","0","152"
"12","12","encoding","encoding","37","H44.jpg","3",".","36","0","21"
"12","12","encoding","encoding","38","H63.jpg","3",".","36","0","78"
"12","12","encoding","encoding","39","H8.jpg","3",".","37","0","10"
"12","12","encoding","encoding","40","G30.jpg","1",".","36","0","34"
"12","12","encoding","encoding","41","G39.jpg","1",".","36","0","85"
"12","12","encoding","encoding","42","G34.jpg","1",".","36","0","65"
"12","12","encoding","encoding","43","G4.jpg","1",".","37","0","89"
"12","12","encoding","encoding","44","H72.jpg","3",".","37","0","98"
"12","12","encoding","encoding","45","G43.jpg","1",".","37","0","150"
"12","12","encoding","encoding","46","G36.jpg","1",".","36","0","2"
"12","12","encoding","encoding","47","H19.jpg","3",".","37","0","50"
"12","12","encoding","encoding","48","H57.jpg","3",".","37","0","155"
"12","12","encoding","encoding","49","G15.jpg","1",".","37","0","136"
"12","12","encoding","encoding","50","H66.jpg","3",".","37","0","3"
"12","12","encoding","encoding","51","H7.jpg","3",".","36","0","39"
"12","12","encoding","encoding","52","G44.jpg","1",".","37","0","44"
"12","12","encoding","encoding","53","H48.jpg","3",".","37","0","40"
"12","12","encoding","encoding","54","G49.jpg","1",".","37","0","166"
"12","12","encoding","encoding","55","H43.jpg","3",".","36","0","10"
"12","12","encoding","encoding","56","H21.jpg","3",".","37","0","68"
"12","12","encoding","encoding","57","H47.jpg","3",".","36","0","15"
"12","12","encoding","encoding","58","H54.jpg","3",".","37","0","33"
"12","12","encoding","encoding","59","H13.jpg","3",".","36","0","34"
"12","12","encoding","encoding","60","H75.jpg","3",".","36","0","69"
"12","12","encoding","encoding","61","H79.jpg","3",".","0","0","1000"
"12","12","encoding","encoding","62","H39.jpg","3",".","0","0","1000"
"12","12","encoding","encoding","63","G11.jpg","1",".","36","0","442"
"12","12","encoding","encoding","64","H51.jpg","3",".","37","0","108"
"12","12","encoding","encoding","65","H66.jpg","3",".","36","0","87"
"12","12","encoding","encoding","67","H48.jpg","3",".","0","0","1000"
"12","12","encoding","encoding","68","H59.jpg","3",".","0","0","1000"
"12","12","encoding","encoding","69","H13.jpg","3",".","36","0","70"
"12","12","encoding","encoding","70","H37.jpg","3",".","37","0","60"
"12","12","encoding","encoding","71","H13.jpg","3",".","36","0","15"
"12","12","encoding","encoding","72","H71.jpg","3",".","37","0","30"
"12","12","encoding","encoding","73","H55.jpg","3",".","36","0","111"
"12","12","encoding","encoding","74","G42.jpg","1",".","36","0","67"
"12","12","encoding","encoding","75","H62.jpg","3",".","36","0","35"
"12","12","encoding","encoding","76","H70.jpg","3",".","36","0","63"
"12","12","encoding","encoding","77","G72.jpg","1",".","37","0","75"
"12","12","encoding","encoding","78","H68.jpg","3",".","37","0","38"
"12","12","encoding","encoding","79","G60.jpg","1",".","36","0","40"
"12","12","encoding","encoding","80","G48.jpg","1",".","0","0","1000"
