"group","subject","blockcode","trialcode","trialnum","stimulus","encoding_condition","old_object_condition","response","correct","latency"
"9","9","encoding","encoding","1","Hippopotamus.jpg","1",".","0","0","1000"
"9","9","encoding","encoding","2","BusStop.jpg","3",".","37","0","822"
"9","9","encoding","encoding","3","Bottle_Blue.jpg","1",".","37","0","738"
"9","9","encoding","encoding","4","NeedlesAcupuncture.jpg","1",".","0","0","1000"
"9","9","encoding","encoding","5","LeatherPuncherTool.jpg","1",".","37","0","885"
"9","9","encoding","encoding","6","Bottle_Wine.jpg","3",".","37","0","790"
"9","9","encoding","encoding","7","Dress_Party.jpg","3",".","37","0","797"
"9","9","encoding","encoding","8","Flute_Wooden.jpg","3",".","37","0","674"
"9","9","encoding","encoding","9","Knife_Hunting.jpg","1",".","37","0","751"
"9","9","encoding","encoding","10","Knee.jpg","1",".","36","0","676"
"9","9","encoding","encoding","11","Bottle_Wine.jpg","3",".","37","0","589"
"9","9","encoding","encoding","12","Mug_Beer.jpg","3",".","37","0","718"
"9","9","encoding","encoding","13","Toy_RockingHorseBlack.jpg","3",".","37","0","682"
"9","9","encoding","encoding","14","MixingGlass.jpg","3",".","37","0","607"
"9","9","encoding","encoding","15","MonaLisa.jpg","3",".","37","0","829"
"9","9","encoding","encoding","16","Tripod.jpg","3",".","37","0","587"
"9","9","encoding","encoding","17","Sign_Wetfloor.jpg","1",".","37","0","502"
"9","9","encoding","encoding","18","SmokeDetector.jpg","3",".","37","0","521"
"9","9","encoding","encoding","19","CookieCutter_Bell.jpg","3",".","37","0","495"
"9","9","encoding","encoding","20","DogTreat.jpg","3",".","36","0","441"
"9","9","encoding","encoding","21","Shampoo.jpg","1",".","37","0","521"
"9","9","encoding","encoding","22","Chest_Toys.jpg","1",".","37","0","593"
"9","9","encoding","encoding","23","Light_Siren.jpg","3",".","37","0","480"
"9","9","encoding","encoding","24","Leaf_Clover.jpg","3",".","36","0","658"
"9","9","encoding","encoding","25","Fish_Rockbass.jpg","3",".","36","0","633"
"9","9","encoding","encoding","26","Exercise_Stretch.jpg","3",".","37","0","567"
"9","9","encoding","encoding","27","Blanket.jpg","3",".","37","0","618"
"9","9","encoding","encoding","28","Autocreeper.jpg","3",".","37","0","548"
"9","9","encoding","encoding","29","Mattress.jpg","1",".","37","0","530"
"9","9","encoding","encoding","30","Bird_Cardinal.jpg","1",".","36","0","429"
"9","9","encoding","encoding","31","JukeboxAntique.jpg","1",".","37","0","544"
"9","9","encoding","encoding","32","BicycleHandleGrip.jpg","3",".","37","0","515"
"9","9","encoding","encoding","33","Chair_BeanBag.jpg","1",".","37","0","668"
"9","9","encoding","encoding","34","Fruit_Cactus.jpg","3",".","36","0","636"
"9","9","encoding","encoding","35","Autocreeper.jpg","3",".","37","0","556"
"9","9","encoding","encoding","36","Pitcher.jpg","3",".","37","0","446"
"9","9","encoding","encoding","37","ShoulderPads.jpg","3",".","37","0","455"
"9","9","encoding","encoding","38","Saw.jpg","3",".","37","0","474"
"9","9","encoding","encoding","39","Mitt_Oven.jpg","3",".","37","0","504"
"9","9","encoding","encoding","40","Exercise_Stretch.jpg","3",".","36","0","503"
"9","9","encoding","encoding","41","Pipe_Drain.jpg","3",".","37","0","507"
"9","9","encoding","encoding","42","Candy_Chocolate.jpg","3",".","37","0","638"
"9","9","encoding","encoding","43","Fuse.jpg","1",".","37","0","432"
"9","9","encoding","encoding","44","Guitar_Acoustic.jpg","3",".","37","0","610"
"9","9","encoding","encoding","45","Toy_BlocksPlastic Colourful.jpg","3",".","37","0","570"
"9","9","encoding","encoding","46","DentistOverheadLight.jpg","3",".","37","0","562"
"9","9","encoding","encoding","47","Pineapple.jpg","1",".","36","0","543"
"9","9","encoding","encoding","48","Golf_Bag.jpg","3",".","37","0","434"
"9","9","encoding","encoding","49","BicycleBrake.jpg","3",".","37","0","440"
"9","9","encoding","encoding","50","Shoes_DutchClogs.jpg","3",".","37","0","562"
"9","9","encoding","encoding","51","Box_Jewellery.jpg","3",".","37","0","411"
"9","9","encoding","encoding","52","DrinkingFountain.jpg","3",".","37","0","440"
"9","9","encoding","encoding","53","Bullet.jpg","1",".","37","0","478"
"9","9","encoding","encoding","54","WireStripper.jpg","3",".","37","0","447"
"9","9","encoding","encoding","55","Toys_Lego.jpg","3",".","37","0","460"
"9","9","encoding","encoding","56","Toy_Moose.jpg","1",".","37","0","567"
"9","9","encoding","encoding","57","Tickets_Blank.jpg","1",".","37","0","577"
"9","9","encoding","encoding","58","Speaker_OnStand.jpg","1",".","37","0","498"
"9","9","encoding","encoding","59","Lock_Combination.jpg","3",".","37","0","481"
"9","9","encoding","encoding","60","Helmet_Construction.jpg","3",".","37","0","450"
"9","9","encoding","encoding","61","Mitt_Oven.jpg","3",".","37","0","536"
"9","9","encoding","encoding","62","Megaphone.jpg","1",".","37","0","492"
"9","9","encoding","encoding","63","DoorBell.jpg","3",".","37","0","544"
"9","9","encoding","encoding","64","Flamingo_Cartoon.jpg","3",".","37","0","715"
"9","9","encoding","encoding","65","Table_Poker.jpg","3",".","37","0","469"
"9","9","encoding","encoding","67","Apple_RedAndGreen.jpg","3",".","36","0","557"
"9","9","encoding","encoding","68","Golf_Bag.jpg","3",".","37","0","450"
"9","9","encoding","encoding","69","Thermostat_Digital.jpg","3",".","37","0","489"
"9","9","encoding","encoding","70","CandyDispenser.jpg","3",".","37","0","466"
"9","9","encoding","encoding","71","Cup_Styrofoam.jpg","1",".","37","0","491"
"9","9","encoding","encoding","72","Paratrooper.jpg","1",".","37","0","451"
"9","9","encoding","encoding","73","Helmet_Soldier.jpg","3",".","37","0","552"
"9","9","encoding","encoding","74","Flute_Wooden.jpg","3",".","37","0","459"
"9","9","encoding","encoding","75","NintendoWii.jpg","1",".","37","0","507"
"9","9","encoding","encoding","76","Clip_Paper.jpg","1",".","37","0","735"
"9","9","encoding","encoding","77","Candy_Chocolate.jpg","3",".","37","0","508"
"9","9","encoding","encoding","78","Fortress.jpg","3",".","37","0","518"
"9","9","encoding","encoding","79","DrinkingFountain.jpg","3",".","37","0","571"
"9","9","encoding","encoding","80","SmokeDetector.jpg","3",".","37","0","462"
"9","9","encoding","encoding","81","Lantern_TeaBox.jpg","3",".","37","0","452"
"9","9","encoding","encoding","82","Fortress.jpg","3",".","37","0","433"
"9","9","encoding","encoding","83","Shoes_DutchClogs.jpg","3",".","37","0","460"
"9","9","encoding","encoding","84","Helmet_Construction.jpg","3",".","37","0","500"
"9","9","encoding","encoding","85","Helmet_Soldier.jpg","3",".","37","0","415"
"9","9","encoding","encoding","86","HairDryer.jpg","3",".","37","0","427"
"9","9","encoding","encoding","87","PassionFruit.jpg","1",".","37","0","547"
"9","9","encoding","encoding","88","Ashtray_Empty.jpg","1",".","37","0","806"
"9","9","encoding","encoding","89","Hook_Fish.jpg","1",".","37","0","676"
"9","9","encoding","encoding","90","CameoPortrait.jpg","3",".","37","0","527"
"9","9","encoding","encoding","91","DogTreat.jpg","3",".","37","0","600"
"9","9","encoding","encoding","92","Keg.jpg","3",".","37","0","410"
"9","9","encoding","encoding","93","IceCream_Chocolate.jpg","3",".","36","0","762"
"9","9","encoding","encoding","94","Mop.jpg","3",".","37","0","500"
"9","9","encoding","encoding","95","Teabag.jpg","1",".","37","0","617"
"9","9","encoding","encoding","96","Toy_RockingHorseBlack.jpg","3",".","37","0","493"
"9","9","encoding","encoding","97","Box_Floral.jpg","1",".","37","0","549"
"9","9","encoding","encoding","98","Flamingo_Cartoon.jpg","3",".","37","0","533"
"9","9","encoding","encoding","99","DentistOverheadLight.jpg","3",".","37","0","397"
"9","9","encoding","encoding","100","AmpMeter.jpg","1",".","37","0","443"
"9","9","encoding","encoding","101","Toys_Lego.jpg","3",".","37","0","451"
"9","9","encoding","encoding","102","WashRack.jpg","3",".","37","0","496"
"9","9","encoding","encoding","103","SmokeDetector.jpg","3",".","37","0","520"
"9","9","encoding","encoding","104","ShoulderPads.jpg","3",".","37","0","420"
"9","9","encoding","encoding","105","MonaLisa.jpg","3",".","37","0","493"
"9","9","encoding","encoding","106","Cassette_Audio.jpg","1",".","37","0","530"
"9","9","encoding","encoding","107","Mango.jpg","3",".","36","0","619"
"9","9","encoding","encoding","108","Sushi.jpg","3",".","36","0","664"
"9","9","encoding","encoding","109","Fish_Rockbass.jpg","3",".","36","0","739"
"9","9","encoding","encoding","110","Bowl_Chinese.jpg","1",".","37","0","481"
"9","9","encoding","encoding","111","Lollipop_Grape.jpg","3",".","37","0","583"
"9","9","encoding","encoding","112","NailPolish.jpg","1",".","37","0","449"
"9","9","encoding","encoding","113","GPS.jpg","1",".","37","0","424"
"9","9","encoding","encoding","114","WashRack.jpg","3",".","37","0","462"
"9","9","encoding","encoding","115","Helmet_Soldier.jpg","3",".","37","0","433"
"9","9","encoding","encoding","116","Flute_Wooden.jpg","3",".","37","0","502"
"9","9","encoding","encoding","117","BusStop.jpg","3",".","37","0","472"
"9","9","encoding","encoding","118","ButterDish.jpg","3",".","37","0","464"
"9","9","encoding","encoding","119","Bellows.jpg","1",".","37","0","506"
"9","9","encoding","encoding","120","CameoPortrait.jpg","3",".","37","0","481"
"9","9","encoding","encoding","121","BusStop.jpg","3",".","37","0","459"
"9","9","encoding","encoding","122","Almond.jpg","3",".","36","0","569"
"9","9","encoding","encoding","123","Toys_Lego.jpg","3",".","37","0","414"
"9","9","encoding","encoding","124","Trumpet.jpg","1",".","37","0","462"
"9","9","encoding","encoding","125","BicycleBrake.jpg","3",".","37","0","437"
"9","9","encoding","encoding","126","Table_Poker.jpg","3",".","37","0","504"
"9","9","encoding","encoding","127","Glove_Rubber.jpg","1",".","37","0","504"
"9","9","encoding","encoding","128","Toy_BlocksPlastic Colourful.jpg","3",".","37","0","509"
"9","9","encoding","encoding","129","Desk_School.jpg","1",".","37","0","482"
"9","9","encoding","encoding","130","fries.jpg","3",".","37","0","881"
"9","9","encoding","encoding","131","TinChristmas.jpg","3",".","37","0","621"
"9","9","encoding","encoding","133","DoorKnob.jpg","1",".","37","0","626"
"9","9","encoding","encoding","134","Tripod.jpg","3",".","37","0","453"
"9","9","encoding","encoding","135","Chair_MedicalToilet.jpg","3",".","37","0","467"
"9","9","encoding","encoding","136","Spoons_MeasuringDetached.jpg","3",".","37","0","430"
"9","9","encoding","encoding","137","Toy_Shapesorter.jpg","3",".","37","0","419"
"9","9","encoding","encoding","138","Golf_Bag.jpg","3",".","37","0","376"
"9","9","encoding","encoding","139","Colander.jpg","3",".","37","0","423"
"9","9","encoding","encoding","140","Car_Sedan.jpg","1",".","37","0","383"
"9","9","encoding","encoding","141","Exercise_Stretch.jpg","3",".","37","0","379"
"9","9","encoding","encoding","142","Shoes_DutchClogs.jpg","3",".","37","0","423"
"9","9","encoding","encoding","143","BicycleBrake.jpg","3",".","37","0","401"
"9","9","encoding","encoding","144","Toy_Shapesorter.jpg","3",".","37","0","351"
"9","9","encoding","encoding","145","Fruit_Cactus.jpg","3",".","36","0","604"
"9","9","encoding","encoding","146","IceCrusher.jpg","1",".","37","0","359"
"9","9","encoding","encoding","147","Chest.jpg","3",".","37","0","385"
"9","9","encoding","encoding","148","FlashlightHeadBand.jpg","3",".","37","0","378"
"9","9","encoding","encoding","149","Fish_Rockbass.jpg","3",".","36","0","564"
"9","9","encoding","encoding","150","Phone_Wireless.jpg","1",".","37","0","408"
"9","9","encoding","encoding","151","DentistOverheadLight.jpg","3",".","37","0","407"
"9","9","encoding","encoding","152","Sushi.jpg","3",".","37","0","686"
"9","9","encoding","encoding","153","Notebook.jpg","3",".","37","0","476"
"9","9","encoding","encoding","154","Steeple.jpg","1",".","37","0","414"
"9","9","encoding","encoding","155","Hammer_Reflex.jpg","3",".","37","0","540"
"9","9","encoding","encoding","156","MonkeyPuppet.jpg","1",".","37","0","446"
"9","9","encoding","encoding","157","BicycleHandleGrip.jpg","3",".","37","0","410"
"9","9","encoding","encoding","158","PotatoMasher_Zigzag.jpg","1",".","37","0","449"
"9","9","encoding","encoding","159","fries.jpg","3",".","37","0","640"
"9","9","encoding","encoding","160","BottleOpener.jpg","3",".","37","0","426"
"9","9","encoding","encoding","161","Mug_Beer.jpg","3",".","37","0","445"
"9","9","encoding","encoding","162","Toy_StackingRing.jpg","1",".","37","0","438"
"9","9","encoding","encoding","163","Lollipop_Grape.jpg","3",".","37","0","539"
"9","9","encoding","encoding","164","Mango.jpg","3",".","36","0","615"
"9","9","encoding","encoding","165","Colander.jpg","3",".","37","0","385"
"9","9","encoding","encoding","166","Lilypad.jpg","1",".","36","0","597"
"9","9","encoding","encoding","167","CandyDispenser.jpg","3",".","37","0","446"
"9","9","encoding","encoding","168","BottleOpener.jpg","3",".","37","0","397"
"9","9","encoding","encoding","169","Flamingo_Cartoon.jpg","3",".","37","0","398"
"9","9","encoding","encoding","170","Candy_Heart.jpg","1",".","37","0","693"
"9","9","encoding","encoding","171","GasBurner.jpg","3",".","37","0","502"
"9","9","encoding","encoding","172","DogTreat.jpg","3",".","37","0","571"
"9","9","encoding","encoding","173","Sushi.jpg","3",".","37","0","630"
"9","9","encoding","encoding","174","Table_Poker.jpg","3",".","37","0","485"
"9","9","encoding","encoding","175","Cantaloupe.jpg","3",".","36","0","620"
"9","9","encoding","encoding","176","ShoulderPads.jpg","3",".","37","0","494"
"9","9","encoding","encoding","177","Keg.jpg","3",".","37","0","409"
"9","9","encoding","encoding","178","BicyclePedal.jpg","1",".","37","0","428"
"9","9","encoding","encoding","179","Candle_Blue.jpg","3",".","37","0","469"
"9","9","encoding","encoding","180","WindowBlinds.jpg","1",".","37","0","331"
"9","9","encoding","encoding","181","Cake_Wedding.jpg","3",".","37","0","386"
"9","9","encoding","encoding","182","Almond.jpg","3",".","36","0","589"
"9","9","encoding","encoding","183","ButterDish.jpg","3",".","37","0","365"
"9","9","encoding","encoding","184","MouthGuard.jpg","1",".","37","0","462"
"9","9","encoding","encoding","185","Candy_Chocolate.jpg","3",".","37","0","458"
"9","9","encoding","encoding","186","Mitt_Oven.jpg","3",".","37","0","446"
"9","9","encoding","encoding","187","Peppermill.jpg","3",".","37","0","409"
"9","9","encoding","encoding","188","Skates.jpg","1",".","37","0","448"
"9","9","encoding","encoding","189","Mug_Beer.jpg","3",".","37","0","403"
"9","9","encoding","encoding","190","Keg.jpg","3",".","37","0","398"
"9","9","encoding","encoding","191","Hammer_Reflex.jpg","3",".","37","0","450"
"9","9","encoding","encoding","192","Light_Siren.jpg","3",".","37","0","479"
"9","9","encoding","encoding","193","Jar_JellyBeans.jpg","1",".","37","0","565"
"9","9","encoding","encoding","194","WireStripper.jpg","3",".","37","0","483"
"9","9","encoding","encoding","195","Mop.jpg","3",".","37","0","423"
"9","9","encoding","encoding","196","Toy_Witch.jpg","1",".","37","0","464"
"9","9","encoding","encoding","197","TinChristmas.jpg","3",".","37","0","484"
"9","9","encoding","encoding","199","Mop.jpg","3",".","37","0","562"
"9","9","encoding","encoding","200","SculptureMetalFish.jpg","3",".","37","0","440"
"9","9","encoding","encoding","201","Mask_Happy.jpg","3",".","37","0","466"
"9","9","encoding","encoding","202","Mask_Happy.jpg","3",".","37","0","385"
"9","9","encoding","encoding","203","Chair_MedicalToilet.jpg","3",".","37","0","492"
"9","9","encoding","encoding","204","Pitcher.jpg","3",".","37","0","430"
"9","9","encoding","encoding","205","CookieCutter_Bell.jpg","3",".","37","0","408"
"9","9","encoding","encoding","206","Lantern_TeaBox.jpg","3",".","37","0","386"
"9","9","encoding","encoding","207","IceCream_Chocolate.jpg","3",".","37","0","705"
"9","9","encoding","encoding","208","Bottle_Wine.jpg","3",".","37","0","400"
"9","9","encoding","encoding","209","PaintRollTray.jpg","1",".","37","0","467"
"9","9","encoding","encoding","210","Hammer_Reflex.jpg","3",".","37","0","411"
"9","9","encoding","encoding","211","Apple_RedAndGreen.jpg","3",".","36","0","540"
"9","9","encoding","encoding","212","Thermostat_Digital.jpg","3",".","37","0","435"
"9","9","encoding","encoding","213","DoorBell.jpg","3",".","37","0","382"
"9","9","encoding","encoding","214","Drink_Green.jpg","1",".","37","0","392"
"9","9","encoding","encoding","215","Toy_BlocksPlastic Colourful.jpg","3",".","37","0","486"
"9","9","encoding","encoding","216","Balalaika.jpg","1",".","37","0","409"
"9","9","encoding","encoding","217","Thermostat_Digital.jpg","3",".","37","0","427"
"9","9","encoding","encoding","218","HairDryer.jpg","3",".","37","0","382"
"9","9","encoding","encoding","219","Blanket.jpg","3",".","37","0","401"
"9","9","encoding","encoding","220","Cherry.jpg","1",".","36","0","491"
"9","9","encoding","encoding","221","Oyster.jpg","1",".","36","0","963"
"9","9","encoding","encoding","222","Notebook.jpg","3",".","37","0","514"
"9","9","encoding","encoding","223","WireStripper.jpg","3",".","37","0","422"
"9","9","encoding","encoding","224","Trophy.jpg","1",".","37","0","448"
"9","9","encoding","encoding","225","Guitar_Acoustic.jpg","3",".","37","0","380"
"9","9","encoding","encoding","226","Toy_Shapesorter.jpg","3",".","37","0","444"
"9","9","encoding","encoding","227","Peppermill.jpg","3",".","37","0","391"
"9","9","encoding","encoding","228","Generator.jpg","1",".","37","0","378"
"9","9","encoding","encoding","229","Cake_Wedding.jpg","3",".","37","0","416"
"9","9","encoding","encoding","230","Guitar_Acoustic.jpg","3",".","37","0","404"
"9","9","encoding","encoding","231","Lock_Combination.jpg","3",".","37","0","380"
"9","9","encoding","encoding","232","PuppetTheatre_WhiteGold.jpg","1",".","37","0","496"
"9","9","encoding","encoding","233","MonaLisa.jpg","3",".","37","0","407"
"9","9","encoding","encoding","234","Hourglass.jpg","1",".","37","0","383"
"9","9","encoding","encoding","235","Box_Jewellery.jpg","3",".","37","0","318"
"9","9","encoding","encoding","236","Cantaloupe.jpg","3",".","36","0","601"
"9","9","encoding","encoding","237","Candle_Blue.jpg","3",".","37","0","614"
"9","9","encoding","encoding","238","Lantern_TeaBox.jpg","3",".","37","0","507"
"9","9","encoding","encoding","239","Peppermill.jpg","3",".","37","0","519"
"9","9","encoding","encoding","240","WashRack.jpg","3",".","37","0","405"
"9","9","encoding","encoding","241","BottleOpener.jpg","3",".","37","0","361"
"9","9","encoding","encoding","242","Wheelbarrow_Green.jpg","3",".","37","0","403"
"9","9","encoding","encoding","243","FlashlightHeadBand.jpg","3",".","37","0","331"
"9","9","encoding","encoding","244","DoorBell.jpg","3",".","37","0","498"
"9","9","encoding","encoding","245","Nyala.jpg","1",".","37","0","706"
"9","9","encoding","encoding","246","Almond.jpg","3",".","36","0","588"
"9","9","encoding","encoding","247","Toy_GasPump.jpg","1",".","37","0","431"
"9","9","encoding","encoding","248","Pipe_Drain.jpg","3",".","37","0","422"
"9","9","encoding","encoding","249","Stove_Camping.jpg","1",".","37","0","382"
"9","9","encoding","encoding","250","GasBurner.jpg","3",".","37","0","399"
"9","9","encoding","encoding","251","Saw.jpg","3",".","37","0","394"
"9","9","encoding","encoding","252","FireExtinguisher.jpg","3",".","37","0","399"
"9","9","encoding","encoding","253","Bathtub.jpg","3",".","37","0","410"
"9","9","encoding","encoding","254","BadgeSpecialAgent.jpg","1",".","37","0","456"
"9","9","encoding","encoding","255","Mat_Door.jpg","1",".","37","0","432"
"9","9","encoding","encoding","256","BicycleHandleGrip.jpg","3",".","37","0","459"
"9","9","encoding","encoding","257","Light_Siren.jpg","3",".","37","0","455"
"9","9","encoding","encoding","258","Fruit_Cactus.jpg","3",".","36","0","605"
"9","9","encoding","encoding","259","Goose_Canadian.jpg","1",".","37","0","490"
"9","9","encoding","encoding","260","Leaf_Clover.jpg","3",".","36","0","695"
"9","9","encoding","encoding","261","CameoPortrait.jpg","3",".","37","0","600"
"9","9","encoding","encoding","262","Pants_Jeans.jpg","3",".","37","0","533"
"9","9","encoding","encoding","263","Saw.jpg","3",".","37","0","390"
"9","9","encoding","encoding","265","Spoon_Wooden.jpg","1",".","37","0","534"
"9","9","encoding","encoding","266","Leaf_Clover.jpg","3",".","36","0","461"
"9","9","encoding","encoding","267","IceCream_Chocolate.jpg","3",".","37","0","686"
"9","9","encoding","encoding","268","Wheelbarrow_Green.jpg","3",".","37","0","509"
"9","9","encoding","encoding","269","Chest.jpg","3",".","37","0","436"
"9","9","encoding","encoding","270","Notebook.jpg","3",".","37","0","428"
"9","9","encoding","encoding","271","DryRack_Dishes.jpg","1",".","37","0","424"
"9","9","encoding","encoding","272","Blanket.jpg","3",".","37","0","398"
"9","9","encoding","encoding","273","MixingGlass.jpg","3",".","37","0","461"
"9","9","encoding","encoding","274","Tortilla.jpg","1",".","36","0","656"
"9","9","encoding","encoding","275","SculptureMetalFish.jpg","3",".","37","0","433"
"9","9","encoding","encoding","276","Mango.jpg","3",".","36","0","603"
"9","9","encoding","encoding","277","Guitarcase.jpg","1",".","37","0","459"
"9","9","encoding","encoding","278","TinChristmas.jpg","3",".","37","0","370"
"9","9","encoding","encoding","279","Lock_Combination.jpg","3",".","37","0","420"
"9","9","encoding","encoding","280","Fortress.jpg","3",".","37","0","396"
"9","9","encoding","encoding","281","MixingGlass.jpg","3",".","37","0","435"
"9","9","encoding","encoding","282","Chest.jpg","3",".","37","0","405"
"9","9","encoding","encoding","283","Spoons_MeasuringDetached.jpg","3",".","37","0","426"
"9","9","encoding","encoding","284","Bathtub.jpg","3",".","37","0","411"
"9","9","encoding","encoding","285","Pitcher.jpg","3",".","37","0","416"
"9","9","encoding","encoding","286","Colander.jpg","3",".","37","0","347"
"9","9","encoding","encoding","287","CandyDispenser.jpg","3",".","37","0","447"
"9","9","encoding","encoding","288","Beater_Electric.jpg","1",".","37","0","466"
"9","9","encoding","encoding","289","Pants_Jeans.jpg","3",".","37","0","457"
"9","9","encoding","encoding","290","Lollipop_Grape.jpg","3",".","37","0","626"
"9","9","encoding","encoding","291","PaintBrushAndPallette.jpg","1",".","37","0","558"
"9","9","encoding","encoding","292","Sign_Parking.jpg","1",".","37","0","486"
"9","9","encoding","encoding","293","Spoons_MeasuringDetached.jpg","3",".","37","0","413"
"9","9","encoding","encoding","294","Dress_Party.jpg","3",".","37","0","466"
"9","9","encoding","encoding","295","FlashlightHeadBand.jpg","3",".","37","0","508"
"9","9","encoding","encoding","296","Dress_Party.jpg","3",".","37","0","464"
"9","9","encoding","encoding","297","Tripod.jpg","3",".","37","0","454"
"9","9","encoding","encoding","298","Helmet_Construction.jpg","3",".","37","0","502"
"9","9","encoding","encoding","299","Chair_MedicalToilet.jpg","3",".","37","0","453"
"9","9","encoding","encoding","300","TartStrawberry.jpg","1",".","36","0","638"
"9","9","encoding","encoding","301","DrinkingFountain.jpg","3",".","37","0","471"
"9","9","encoding","encoding","302","Wheelbarrow_Green.jpg","3",".","37","0","337"
"9","9","encoding","encoding","303","Cantaloupe.jpg","3",".","36","0","560"
"9","9","encoding","encoding","304","Bathtub.jpg","3",".","37","0","463"
"9","9","encoding","encoding","305","TeethMould.jpg","1",".","37","0","679"
"9","9","encoding","encoding","306","Autocreeper.jpg","3",".","37","0","445"
"9","9","encoding","encoding","307","HairDryer.jpg","3",".","37","0","388"
"9","9","encoding","encoding","308","CookieCutter_Bell.jpg","3",".","37","0","420"
"9","9","encoding","encoding","309","fries.jpg","3",".","37","0","638"
"9","9","encoding","encoding","310","Apple_RedAndGreen.jpg","3",".","36","0","610"
"9","9","encoding","encoding","311","FireExtinguisher.jpg","3",".","37","0","420"
"9","9","encoding","encoding","312","SculptureMetalFish.jpg","3",".","37","0","413"
"9","9","encoding","encoding","313","Box_Jewellery.jpg","3",".","37","0","404"
"9","9","encoding","encoding","314","Cake_Wedding.jpg","3",".","37","0","372"
"9","9","encoding","encoding","315","Mask_Happy.jpg","3",".","37","0","434"
"9","9","encoding","encoding","316","Pipe_Drain.jpg","3",".","37","0","396"
"9","9","encoding","encoding","317","FireExtinguisher.jpg","3",".","37","0","393"
"9","9","encoding","encoding","318","ButterDish.jpg","3",".","37","0","456"
"9","9","encoding","encoding","319","Toy_RockingHorseBlack.jpg","3",".","37","0","478"
"9","9","encoding","encoding","320","GasBurner.jpg","3",".","37","0","442"
"9","9","encoding","encoding","321","StringBean.jpg","1",".","36","0","662"
"9","9","encoding","encoding","322","Pants_Jeans.jpg","3",".","37","0","430"
"9","9","encoding","encoding","323","RemoteControl.jpg","1",".","37","0","395"
"9","9","encoding","encoding","324","Candle_Blue.jpg","3",".","37","0","353"
"9","9","encoding","encoding","325","Hippopotamus.jpg","",".","37","0","436"
"9","9","retrieval","new_object","1","MobilityScooter.jpg",".",".","37","1","1126"
"9","9","retrieval","new_object","2","KeyHook_Occupied.jpg",".",".","37","1","908"
"9","9","retrieval","old_object","3","Car_Sedan.jpg",".","1","37","0","734"
"9","9","retrieval","old_object","4","Lock_Combination.jpg",".","3","36","1","923"
"9","9","retrieval","new_object","5","Cabinet_Office.jpg",".",".","37","1","831"
"9","9","retrieval","old_object","6","Bottle_Blue.jpg",".","1","36","1","1039"
"9","9","retrieval","old_object","7","Bowl_Chinese.jpg",".","1","36","1","870"
"9","9","retrieval","new_object","8","Ball_8.jpg",".",".","37","1","738"
"9","9","retrieval","new_object","9","Screw.jpg",".",".","37","1","866"
"9","9","retrieval","new_object","10","Tape_Washi.jpg",".",".","37","1","679"
"9","9","retrieval","old_object","11","Trumpet.jpg",".","1","36","1","783"
"9","9","retrieval","new_object","12","CuttingBoard.jpg",".",".","37","1","771"
"9","9","retrieval","old_object","13","Hook_Fish.jpg",".","1","36","1","998"
"9","9","retrieval","new_object","14","Shield_Antique.jpg",".",".","37","1","808"
"9","9","retrieval","new_object","15","RibbonSpool.jpg",".",".","37","1","763"
"9","9","retrieval","new_object","16","PropellerFan.jpg",".",".","37","1","750"
"9","9","retrieval","old_object","17","Toys_Lego.jpg",".","3","36","1","637"
"9","9","retrieval","old_object","18","Keg.jpg",".","3","36","1","784"
"9","9","retrieval","new_object","19","BicycleChain.jpg",".",".","37","1","745"
"9","9","retrieval","old_object","20","Flamingo_Cartoon.jpg",".","3","36","1","995"
"9","9","retrieval","new_object","21","PanCooking.jpg",".",".","37","1","744"
"9","9","retrieval","old_object","22","BadgeSpecialAgent.jpg",".","1","36","1","822"
"9","9","retrieval","old_object","23","Hourglass.jpg",".","1","37","0","949"
"9","9","retrieval","new_object","24","Jug_Milk.jpg",".",".","37","1","1017"
"9","9","retrieval","new_object","25","Bell_Hand.jpg",".",".","37","1","809"
"9","9","retrieval","new_object","26","Syrup_Maple.jpg",".",".","37","1","759"
"9","9","retrieval","old_object","27","Knee.jpg",".","1","36","1","898"
"9","9","retrieval","new_object","28","DrillBit.jpg",".",".","37","1","960"
"9","9","retrieval","old_object","29","Spoon_Wooden.jpg",".","1","36","1","809"
"9","9","retrieval","old_object","30","Bullet.jpg",".","1","37","0","879"
"9","9","retrieval","new_object","31","Sign_TrafficArrow.jpg",".",".","37","1","1193"
"9","9","retrieval","new_object","32","Toy_PoliceCar.jpg",".",".","37","1","810"
"9","9","retrieval","new_object","33","Dress_Blue.jpg",".",".","37","1","719"
"9","9","retrieval","old_object","34","Lantern_TeaBox.jpg",".","3","36","1","791"
"9","9","retrieval","old_object","35","Apple_RedAndGreen.jpg",".","3","36","1","768"
"9","9","retrieval","old_object","36","Guitarcase.jpg",".","1","37","0","1164"
"9","9","retrieval","new_object","37","Thermostat.jpg",".",".","37","1","895"
"9","9","retrieval","new_object","38","KitchenTools.jpg",".",".","37","1","885"
"9","9","retrieval","new_object","39","Outhouse.jpg",".",".","37","1","690"
"9","9","retrieval","new_object","40","Exercise_Machine.jpg",".",".","36","0","1075"
"9","9","retrieval","old_object","41","Mug_Beer.jpg",".","3","36","1","833"
"9","9","retrieval","old_object","42","Box_Jewellery.jpg",".","3","36","1","700"
"9","9","retrieval","old_object","43","Autocreeper.jpg",".","3","36","1","999"
"9","9","retrieval","old_object","44","RemoteControl.jpg",".","1","36","1","793"
"9","9","retrieval","old_object","45","Skates.jpg",".","1","36","1","845"
"9","9","retrieval","new_object","46","Toy_TableSet.jpg",".",".","37","1","713"
"9","9","retrieval","new_object","47","Dart.jpg",".",".","37","1","818"
"9","9","retrieval","old_object","48","TartStrawberry.jpg",".","1","36","1","781"
"9","9","retrieval","new_object","49","Toolbox_RedOpen.jpg",".",".","37","1","685"
"9","9","retrieval","new_object","50","Lighter_Yellow.jpg",".",".","37","1","740"
"9","9","retrieval","new_object","51","Crutches.jpg",".",".","37","1","856"
"9","9","retrieval","new_object","52","PedestalGreek.jpg",".",".","37","1","791"
"9","9","retrieval","new_object","53","SafetyPin.jpg",".",".","37","1","771"
"9","9","retrieval","old_object","54","Spoons_MeasuringDetached.jpg",".","3","36","1","671"
"9","9","retrieval","new_object","55","ContactLens.jpg",".",".","37","1","734"
"9","9","retrieval","old_object","56","JukeboxAntique.jpg",".","1","37","0","992"
"9","9","retrieval","new_object","57","Toolbox_Old.jpg",".",".","37","1","756"
"9","9","retrieval","new_object","58","Shoe_Pink.jpg",".",".","37","1","701"
"9","9","retrieval","new_object","59","BoogieBoard.jpg",".",".","37","1","749"
"9","9","retrieval","old_object","60","DryRack_Dishes.jpg",".","1","36","1","739"
"9","9","retrieval","new_object","61","Pickaxe.jpg",".",".","37","1","729"
"9","9","retrieval","new_object","62","Iron_Antique.jpg",".",".","37","1","703"
"9","9","retrieval","new_object","63","Strainer_Tea.jpg",".",".","37","1","839"
"9","9","retrieval","old_object","64","Chair_BeanBag.jpg",".","1","36","1","804"
"9","9","retrieval","new_object","65","Pajamas.jpg",".",".","37","1","762"
"9","9","retrieval","old_object","67","Tickets_Blank.jpg",".","1","36","1","1330"
"9","9","retrieval","new_object","68","Cross.jpg",".",".","37","1","1779"
"9","9","retrieval","new_object","69","Pig.jpg",".",".","37","1","1341"
"9","9","retrieval","old_object","70","Table_Poker.jpg",".","3","37","0","1321"
"9","9","retrieval","new_object","71","CrepeMaker.jpg",".",".","37","1","916"
"9","9","retrieval","new_object","72","Statue_SouthAmerican.jpg",".",".","37","1","992"
"9","9","retrieval","old_object","73","DoorKnob.jpg",".","1","36","1","1127"
"9","9","retrieval","old_object","74","PotatoMasher_Zigzag.jpg",".","1","36","1","1235"
"9","9","retrieval","old_object","75","DogTreat.jpg",".","3","36","1","699"
"9","9","retrieval","old_object","76","MonkeyPuppet.jpg",".","1","36","1","909"
"9","9","retrieval","new_object","77","Can_OilSpout.jpg",".",".","37","1","702"
"9","9","retrieval","old_object","78","HairDryer.jpg",".","3","36","1","843"
"9","9","retrieval","old_object","79","TeethMould.jpg",".","1","36","1","718"
"9","9","retrieval","old_object","80","Helmet_Construction.jpg",".","3","36","1","1142"
"9","9","retrieval","old_object","81","Ashtray_Empty.jpg",".","1","36","1","653"
"9","9","retrieval","new_object","82","Clock_Radio.jpg",".",".","37","1","933"
"9","9","retrieval","old_object","83","Shoes_DutchClogs.jpg",".","3","36","1","741"
"9","9","retrieval","new_object","84","Jar_Cotton.jpg",".",".","37","1","857"
"9","9","retrieval","new_object","85","Bugle.jpg",".",".","37","1","893"
"9","9","retrieval","new_object","86","Hawk.jpg",".",".","37","1","944"
"9","9","retrieval","new_object","87","Chipmunk.jpg",".",".","37","1","716"
"9","9","retrieval","old_object","88","Leaf_Clover.jpg",".","3","36","1","619"
"9","9","retrieval","new_object","89","Toy_Lighthouse.jpg",".",".","37","1","699"
"9","9","retrieval","new_object","90","Microphone.jpg",".",".","37","1","892"
"9","9","retrieval","old_object","91","Flute_Wooden.jpg",".","3","36","1","846"
"9","9","retrieval","new_object","92","CartonEggs.jpg",".",".","37","1","927"
"9","9","retrieval","old_object","93","IceCream_Chocolate.jpg",".","3","36","1","804"
"9","9","retrieval","new_object","94","Hottub.jpg",".",".","37","1","722"
"9","9","retrieval","new_object","95","ToothPaste.jpg",".",".","37","1","708"
"9","9","retrieval","old_object","96","Tortilla.jpg",".","1","36","1","824"
"9","9","retrieval","new_object","97","Bomb.jpg",".",".","37","1","786"
"9","9","retrieval","new_object","98","Hammer.jpg",".",".","37","1","1062"
"9","9","retrieval","old_object","99","DoorBell.jpg",".","3","36","1","830"
"9","9","retrieval","new_object","100","Pasta_Spaghetti.jpg",".",".","37","1","731"
"9","9","retrieval","old_object","101","Golf_Bag.jpg",".","3","37","0","1105"
"9","9","retrieval","old_object","102","CameoPortrait.jpg",".","3","36","1","756"
"9","9","retrieval","old_object","103","Glove_Rubber.jpg",".","1","36","1","643"
"9","9","retrieval","old_object","104","Beater_Electric.jpg",".","1","36","1","709"
"9","9","retrieval","old_object","105","Sign_Wetfloor.jpg",".","1","37","0","842"
"9","9","retrieval","new_object","106","ShoppingCart.jpg",".",".","37","1","776"
"9","9","retrieval","old_object","107","Pitcher.jpg",".","3","36","1","770"
"9","9","retrieval","old_object","108","Cassette_Audio.jpg",".","1","36","1","810"
"9","9","retrieval","old_object","109","MouthGuard.jpg",".","1","36","1","879"
"9","9","retrieval","old_object","110","Candy_Chocolate.jpg",".","3","36","1","650"
"9","9","retrieval","new_object","111","Crib_Basket.jpg",".",".","37","1","715"
"9","9","retrieval","old_object","112","WireStripper.jpg",".","3","36","1","795"
"9","9","retrieval","new_object","113","Radio_Vintage.jpg",".",".","37","1","720"
"9","9","retrieval","new_object","114","SkiPoles.jpg",".",".","37","1","991"
"9","9","retrieval","new_object","115","Pot_Cooking.jpg",".",".","37","1","735"
"9","9","retrieval","old_object","116","Box_Floral.jpg",".","1","36","1","970"
"9","9","retrieval","old_object","117","Bathtub.jpg",".","3","36","1","750"
"9","9","retrieval","old_object","118","Thermostat_Digital.jpg",".","3","36","1","614"
"9","9","retrieval","new_object","119","FlipFlop_PairBlue.jpg",".",".","37","1","799"
"9","9","retrieval","new_object","120","Boardgame_Checkers.jpg",".",".","37","1","635"
"9","9","retrieval","old_object","121","Cup_Styrofoam.jpg",".","1","36","1","810"
"9","9","retrieval","old_object","122","Mop.jpg",".","3","36","1","676"
"9","9","retrieval","old_object","123","Mattress.jpg",".","1","36","1","755"
"9","9","retrieval","new_object","124","Pipe.jpg",".",".","37","1","778"
"9","9","retrieval","new_object","125","Seashell_AlternateTellin.jpg",".",".","37","1","962"
"9","9","retrieval","new_object","126","Toy_BearBlackPlastic.jpg",".",".","37","1","848"
"9","9","retrieval","new_object","127","Makeup_Foundation.jpg",".",".","36","0","1008"
"9","9","retrieval","old_object","128","Paratrooper.jpg",".","1","37","0","1156"
"9","9","retrieval","new_object","129","Hat_Baseball.jpg",".",".","37","1","1199"
"9","9","retrieval","old_object","130","Fortress.jpg",".","3","36","1","726"
"9","9","retrieval","new_object","131","Comb.jpg",".",".","37","1","832"
"9","9","retrieval","new_object","133","Carbiner_Ascender.jpg",".",".","37","1","1227"
"9","9","retrieval","old_object","134","Shampoo.jpg",".","1","37","0","841"
"9","9","retrieval","new_object","135","HumanSkeleton.jpg",".",".","37","1","752"
"9","9","retrieval","new_object","136","ChessPiece_Knight.jpg",".",".","37","1","748"
"9","9","retrieval","old_object","137","Mango.jpg",".","3","36","1","1086"
"9","9","retrieval","old_object","138","Peppermill.jpg",".","3","36","1","840"
"9","9","retrieval","new_object","139","Caterpillar.jpg",".",".","37","1","760"
"9","9","retrieval","new_object","140","Bottle_Specimen.jpg",".",".","37","1","604"
"9","9","retrieval","old_object","141","Candle_Blue.jpg",".","3","36","1","1012"
"9","9","retrieval","new_object","142","Telescope.jpg",".",".","37","1","701"
"9","9","retrieval","new_object","143","Tire_Hollow.jpg",".",".","37","1","786"
"9","9","retrieval","new_object","144","Icepick.jpg",".",".","37","1","640"
"9","9","retrieval","new_object","145","Socks_Winter.jpg",".",".","37","1","692"
"9","9","retrieval","old_object","146","Goose_Canadian.jpg",".","1","36","1","1349"
"9","9","retrieval","new_object","147","Gun_Glue.jpg",".",".","37","1","1355"
"9","9","retrieval","new_object","148","Statue_VirginMary.jpg",".",".","37","1","748"
"9","9","retrieval","old_object","149","Toy_StackingRing.jpg",".","1","37","0","769"
"9","9","retrieval","old_object","150","fries.jpg",".","3","36","1","779"
"9","9","retrieval","new_object","151","Ball_Disco.jpg",".",".","37","1","675"
"9","9","retrieval","old_object","152","Sign_Parking.jpg",".","1","36","1","888"
"9","9","retrieval","old_object","153","Toy_BlocksPlastic Colourful.jpg",".","3","36","1","608"
"9","9","retrieval","old_object","154","GasBurner.jpg",".","3","36","1","759"
"9","9","retrieval","new_object","155","PaperStack.jpg",".",".","37","1","674"
"9","9","retrieval","new_object","156","Flower_Orchid.jpg",".",".","37","1","874"
"9","9","retrieval","old_object","157","PaintBrushAndPallette.jpg",".","1","36","1","909"
"9","9","retrieval","new_object","158","Tweezers.jpg",".",".","37","1","852"
"9","9","retrieval","old_object","159","Bird_Cardinal.jpg",".","1","36","1","1017"
"9","9","retrieval","new_object","160","SaxophoneSoprano.jpg",".",".","37","1","803"
"9","9","retrieval","new_object","161","Frame_Oval.jpg",".",".","37","1","926"
"9","9","retrieval","new_object","162","SkullDeer.jpg",".",".","37","1","702"
"9","9","retrieval","old_object","163","Colander.jpg",".","3","36","1","734"
"9","9","retrieval","old_object","164","NintendoWii.jpg",".","1","37","0","668"
"9","9","retrieval","old_object","165","Sushi.jpg",".","3","36","1","894"
"9","9","retrieval","old_object","166","FlashlightHeadBand.jpg",".","3","36","1","807"
"9","9","retrieval","old_object","167","ButterDish.jpg",".","3","36","1","623"
"9","9","retrieval","new_object","168","Brooch_Fish.jpg",".",".","37","1","629"
"9","9","retrieval","new_object","169","AnsweringMachine.jpg",".",".","37","1","1087"
"9","9","retrieval","new_object","170","ShearsGarden.jpg",".",".","36","0","928"
"9","9","retrieval","old_object","171","Hippopotamus.jpg",".","1","36","1","787"
"9","9","retrieval","old_object","172","GPS.jpg",".","1","37","0","746"
"9","9","retrieval","new_object","173","Spatula_1.jpg",".",".","37","1","743"
"9","9","retrieval","old_object","174","Desk_School.jpg",".","1","37","0","633"
"9","9","retrieval","old_object","175","Fuse.jpg",".","1","37","0","940"
"9","9","retrieval","old_object","176","Jar_JellyBeans.jpg",".","1","36","1","1012"
"9","9","retrieval","new_object","177","SmokingPipe.jpg",".",".","37","1","793"
"9","9","retrieval","old_object","178","PaintRollTray.jpg",".","1","36","1","1098"
"9","9","retrieval","new_object","179","Glass_Martini.jpg",".",".","37","1","983"
"9","9","retrieval","old_object","180","Saw.jpg",".","3","36","1","919"
"9","9","retrieval","new_object","181","BicycleOdometer.jpg",".",".","37","1","794"
"9","9","retrieval","new_object","182","PaintRoller.jpg",".",".","37","1","1036"
"9","9","retrieval","old_object","183","Bellows.jpg",".","1","36","1","895"
"9","9","retrieval","old_object","184","Pants_Jeans.jpg",".","3","36","1","652"
"9","9","retrieval","new_object","185","Hockey_Equipment.jpg",".",".","37","1","1015"
"9","9","retrieval","new_object","186","Pen_Ballpoint.jpg",".",".","37","1","752"
"9","9","retrieval","new_object","187","Broom_Long.jpg",".",".","37","1","944"
"9","9","retrieval","old_object","188","Blanket.jpg",".","3","36","1","794"
"9","9","retrieval","new_object","189","Boots_KneeHigh.jpg",".",".","37","1","750"
"9","9","retrieval","old_object","190","Wheelbarrow_Green.jpg",".","3","37","0","683"
"9","9","retrieval","old_object","191","Toy_RockingHorseBlack.jpg",".","3","36","1","796"
"9","9","retrieval","new_object","192","OnionRed.jpg",".",".","37","1","890"
"9","9","retrieval","old_object","193","SmokeDetector.jpg",".","3","36","1","908"
"9","9","retrieval","old_object","194","Toy_Shapesorter.jpg",".","3","36","1","673"
"9","9","retrieval","old_object","195","Mask_Happy.jpg",".","3","36","1","695"
"9","9","retrieval","old_object","196","BicycleHandleGrip.jpg",".","3","36","1","955"
"9","9","retrieval","old_object","197","Teabag.jpg",".","1","36","1","875"
"9","9","retrieval","new_object","199","TurkeyDinner.jpg",".",".","37","1","1004"
"9","9","retrieval","new_object","200","BloodpPresureCuff.jpg",".",".","37","1","1102"
"9","9","retrieval","new_object","201","TireRims.jpg",".",".","37","1","782"
"9","9","retrieval","old_object","202","Bottle_Wine.jpg",".","3","36","1","865"
"9","9","retrieval","new_object","203","SewingMachine.jpg",".",".","37","1","733"
"9","9","retrieval","old_object","204","Speaker_OnStand.jpg",".","1","37","0","975"
"9","9","retrieval","new_object","205","Knife_Butter.jpg",".",".","37","1","974"
"9","9","retrieval","new_object","206","Dolphine.jpg",".",".","37","1","910"
"9","9","retrieval","new_object","207","Bandage_Wrap.jpg",".",".","37","1","907"
"9","9","retrieval","new_object","208","Paddle_Beach.jpg",".",".","37","1","715"
"9","9","retrieval","new_object","209","Baster.jpg",".",".","37","1","1055"
"9","9","retrieval","new_object","210","Cage_Bird.jpg",".",".","37","1","803"
"9","9","retrieval","old_object","211","PassionFruit.jpg",".","1","36","1","1115"
"9","9","retrieval","old_object","212","Cantaloupe.jpg",".","3","36","1","641"
"9","9","retrieval","old_object","213","DrinkingFountain.jpg",".","3","37","0","868"
"9","9","retrieval","old_object","214","Chest.jpg",".","3","36","1","769"
"9","9","retrieval","old_object","215","Chest_Toys.jpg",".","1","36","1","1018"
"9","9","retrieval","new_object","216","Case_DVD.jpg",".",".","37","1","832"
"9","9","retrieval","new_object","217","Toy_SeeSaw.jpg",".",".","37","1","720"
"9","9","retrieval","old_object","218","Candy_Heart.jpg",".","1","36","1","1124"
"9","9","retrieval","new_object","219","Glass_Cup.jpg",".",".","37","1","866"
"9","9","retrieval","new_object","220","Box_FirstAidOpen.jpg",".",".","37","1","672"
"9","9","retrieval","new_object","221","Loofa.jpg",".",".","37","1","878"
"9","9","retrieval","old_object","222","MonaLisa.jpg",".","3","36","1","805"
"9","9","retrieval","old_object","223","Pineapple.jpg",".","1","36","1","573"
"9","9","retrieval","old_object","224","Helmet_Soldier.jpg",".","3","36","1","663"
"9","9","retrieval","new_object","225","SundaeBanana.jpg",".",".","37","1","711"
"9","9","retrieval","old_object","226","Nyala.jpg",".","1","36","1","850"
"9","9","retrieval","old_object","227","FireExtinguisher.jpg",".","3","36","1","854"
"9","9","retrieval","old_object","228","Knife_Hunting.jpg",".","1","36","1","1070"
"9","9","retrieval","old_object","229","BicyclePedal.jpg",".","1","37","0","1680"
"9","9","retrieval","old_object","230","Oyster.jpg",".","1","36","1","723"
"9","9","retrieval","old_object","231","Drink_Green.jpg",".","1","36","1","755"
"9","9","retrieval","new_object","232","Brace_Back.jpg",".",".","37","1","888"
"9","9","retrieval","old_object","233","Light_Siren.jpg",".","3","36","1","792"
"9","9","retrieval","new_object","234","Bench_Wooden.jpg",".",".","37","1","1014"
"9","9","retrieval","old_object","235","Pipe_Drain.jpg",".","3","36","1","845"
"9","9","retrieval","new_object","236","Helmet_Knight.jpg",".",".","37","1","885"
"9","9","retrieval","new_object","237","CookieCutter_Tree.jpg",".",".","37","1","1305"
"9","9","retrieval","old_object","238","Phone_Wireless.jpg",".","1","37","0","1581"
"9","9","retrieval","new_object","239","Sink_Bathroom.jpg",".",".","37","1","977"
"9","9","retrieval","old_object","240","NailPolish.jpg",".","1","36","1","670"
"9","9","retrieval","old_object","241","NeedlesAcupuncture.jpg",".","1","36","1","874"
"9","9","retrieval","new_object","242","Thermos_MetalSleek.jpg",".",".","37","1","851"
"9","9","retrieval","old_object","243","Cherry.jpg",".","1","36","1","593"
"9","9","retrieval","new_object","244","Waffle.jpg",".",".","37","1","1023"
"9","9","retrieval","old_object","245","StringBean.jpg",".","1","36","1","647"
"9","9","retrieval","new_object","246","Beaker.jpg",".",".","37","1","696"
"9","9","retrieval","new_object","247","Arch.jpg",".",".","37","1","665"
"9","9","retrieval","old_object","248","SculptureMetalFish.jpg",".","3","36","1","902"
"9","9","retrieval","old_object","249","Chair_MedicalToilet.jpg",".","3","36","1","720"
"9","9","retrieval","new_object","250","Tribunal_Wooden.jpg",".",".","37","1","747"
"9","9","retrieval","old_object","251","CandyDispenser.jpg",".","3","36","1","739"
"9","9","retrieval","old_object","252","Almond.jpg",".","3","36","1","682"
"9","9","retrieval","old_object","253","DentistOverheadLight.jpg",".","3","37","0","760"
"9","9","retrieval","old_object","254","CookieCutter_Bell.jpg",".","3","36","1","689"
"9","9","retrieval","new_object","255","Fencing_HelmetSwords.jpg",".",".","37","1","787"
"9","9","retrieval","old_object","256","AmpMeter.jpg",".","1","36","1","840"
"9","9","retrieval","old_object","257","Exercise_Stretch.jpg",".","3","36","1","640"
"9","9","retrieval","old_object","258","Toy_GasPump.jpg",".","1","37","0","993"
"9","9","retrieval","new_object","259","Box_Present.jpg",".",".","37","1","774"
"9","9","retrieval","old_object","260","Hammer_Reflex.jpg",".","3","36","1","727"
"9","9","retrieval","old_object","261","Lilypad.jpg",".","1","36","1","715"
"9","9","retrieval","old_object","262","PuppetTheatre_WhiteGold.jpg",".","1","37","0","899"
"9","9","retrieval","new_object","263","House_Rural.jpg",".",".","37","1","805"
"9","9","retrieval","new_object","265","Drum_Brazilan.jpg",".",".","37","1","869"
"9","9","retrieval","old_object","266","Generator.jpg",".","1","37","0","577"
"9","9","retrieval","old_object","267","ShoulderPads.jpg",".","3","36","1","954"
"9","9","retrieval","old_object","268","Trophy.jpg",".","1","36","1","806"
"9","9","retrieval","new_object","269","Lamp_TableWhite.jpg",".",".","37","1","840"
"9","9","retrieval","new_object","270","Sock_Ankle.jpg",".",".","37","1","692"
"9","9","retrieval","new_object","271","Boxcutter.jpg",".",".","37","1","777"
"9","9","retrieval","new_object","272","Cannister_Gas.jpg",".",".","37","1","868"
"9","9","retrieval","old_object","273","WashRack.jpg",".","3","36","1","643"
"9","9","retrieval","old_object","274","Steeple.jpg",".","1","37","0","965"
"9","9","retrieval","new_object","275","Chinchilla.jpg",".",".","37","1","864"
"9","9","retrieval","new_object","276","Hoverboard.jpg",".",".","37","1","1141"
"9","9","retrieval","new_object","277","Tofu.jpg",".",".","37","1","841"
"9","9","retrieval","old_object","278","TinChristmas.jpg",".","3","37","0","532"
"9","9","retrieval","new_object","279","Bottle_BubbleBlower.jpg",".",".","37","1","1215"
"9","9","retrieval","new_object","280","CoffeeGrinder.jpg",".",".","37","1","1153"
"9","9","retrieval","old_object","281","LeatherPuncherTool.jpg",".","1","37","0","1031"
"9","9","retrieval","old_object","282","Fish_Rockbass.jpg",".","3","36","1","713"
"9","9","retrieval","new_object","283","Flower_Hibiscus.jpg",".",".","37","1","780"
"9","9","retrieval","old_object","284","Stove_Camping.jpg",".","1","37","0","995"
"9","9","retrieval","old_object","285","Lollipop_Grape.jpg",".","3","36","1","1014"
"9","9","retrieval","old_object","286","MixingGlass.jpg",".","3","36","1","690"
"9","9","retrieval","old_object","287","WindowBlinds.jpg",".","1","37","0","752"
"9","9","retrieval","new_object","288","Kite_Rainbow.jpg",".",".","37","1","787"
"9","9","retrieval","new_object","289","LampPost_OneBulb.jpg",".",".","37","1","787"
"9","9","retrieval","new_object","290","Gorilla.jpg",".",".","37","1","846"
"9","9","retrieval","new_object","291","DivingBoard.jpg",".",".","37","1","739"
"9","9","retrieval","new_object","292","ElasticBand.jpg",".",".","37","1","883"
"9","9","retrieval","new_object","293","Playground.jpg",".",".","37","1","653"
"9","9","retrieval","new_object","294","Switch_LightWhite.jpg",".",".","37","1","1141"
"9","9","retrieval","old_object","295","BusStop.jpg",".","3","36","1","972"
"9","9","retrieval","old_object","296","Tripod.jpg",".","3","36","1","741"
"9","9","retrieval","old_object","297","Clip_Paper.jpg",".","1","36","1","1493"
"9","9","retrieval","old_object","298","BicycleBrake.jpg",".","3","37","0","1058"
"9","9","retrieval","old_object","299","Dress_Party.jpg",".","3","36","1","766"
"9","9","retrieval","new_object","300","Fridge.jpg",".",".","37","1","810"
"9","9","retrieval","new_object","301","Cabinet_Display.jpg",".",".","37","1","591"
"9","9","retrieval","new_object","302","Wheel_Steering.jpg",".",".","37","1","713"
"9","9","retrieval","old_object","303","Fruit_Cactus.jpg",".","3","36","1","610"
"9","9","retrieval","old_object","304","Balalaika.jpg",".","1","37","0","643"
"9","9","retrieval","new_object","305","GranolaBar.jpg",".",".","37","1","776"
"9","9","retrieval","old_object","306","Cake_Wedding.jpg",".","3","36","1","825"
"9","9","retrieval","old_object","307","Toy_Witch.jpg",".","1","36","1","725"
"9","9","retrieval","new_object","308","Decoration_WallOrnament.jpg",".",".","37","1","752"
"9","9","retrieval","old_object","309","Mat_Door.jpg",".","1","36","1","1335"
"9","9","retrieval","old_object","310","Notebook.jpg",".","3","36","1","793"
"9","9","retrieval","old_object","311","Megaphone.jpg",".","1","37","0","1225"
"9","9","retrieval","old_object","312","Guitar_Acoustic.jpg",".","3","36","1","715"
"9","9","retrieval","new_object","313","Truck_Dump.jpg",".",".","37","1","919"
"9","9","retrieval","old_object","314","Mitt_Oven.jpg",".","3","36","1","678"
"9","9","retrieval","new_object","315","Chopsticks.jpg",".",".","36","0","1017"
"9","9","retrieval","new_object","316","Bindings_Snowboard.jpg",".",".","37","1","1038"
"9","9","retrieval","old_object","317","IceCrusher.jpg",".","1","37","0","657"
"9","9","retrieval","old_object","318","Toy_Moose.jpg",".","1","37","0","895"
"9","9","retrieval","old_object","319","BottleOpener.jpg",".","3","36","1","879"
"9","9","retrieval","new_object","320","ReindeerHeadband.jpg",".",".","37","1","735"
"9","9","retrieval","new_object","321","Toy_DollOffice.jpg",".",".","37","1","724"
"9","9","retrieval","new_object","322","BicycleGear.jpg",".",".","37","1","770"
"9","9","retrieval","new_object","323","Hazelnut.jpg",".",".","37","1","1170"
"9","9","retrieval","old_object","324","Car_Sedan.jpg",".","","36","1","1218"
"9","9","retrieval","new_object","325","Currants.jpg",".",".","37","1","895"
"9","9","demographics_block","gender","1",".",".",".","female","1","4293476088"
"9","9","demographics_block","age","1",".",".",".","65","1","4293476088"
"9","9","demographics_block","education","1",".",".",".","14","1","4293476088"
"9","9","demographics_block","left_right_handed","2",".",".",".","Right","1","4293455495"
"9","9","demographics_block","raceoption1","2",".",".",".","0","1","4293455495"
"9","9","demographics_block","raceoption2","2",".",".",".","","1","4293455495"
"9","9","demographics_block","raceoption3","2",".",".",".","","1","4293455495"
"9","9","demographics_block","raceoption4","2",".",".",".","","1","4293455495"
"9","9","demographics_block","raceoption5","2",".",".",".","","1","4293455495"
"9","9","demographics_block","raceoption6","2",".",".",".","","1","4293455495"
"9","9","demographics_block","raceoption7","2",".",".",".","","1","4293455495"
"9","9","demographics_block","raceoption8","2",".",".",".","","1","4293455495"
"9","9","demographics_block","raceoption9","2",".",".",".","","1","4293455495"
"9","9","demographics_block","raceother","2",".",".",".","","1","4293455495"
"9","9","demographics_block","raceother","2",".",".",".","","1","4293455495"
"9","9","demographics_block","english_language","2",".",".",".","Yes","1","4293455495"
"9","9","demographics_block","other","2",".",".",".","","1","4293455495"
"9","9","demographics_block","eyesight","3",".",".",".","Yes","1","4293444640"
"9","9","demographics_block","colorblind","3",".",".",".","No","1","4293444640"
"15","15","encoding","encoding","1","Hippopotamus.jpg","1",".","37","0","871"
"15","15","encoding","encoding","2","BusStop.jpg","3",".","36","0","817"
"15","15","encoding","encoding","3","Bottle_Blue.jpg","1",".","0","0","1000"
"15","15","encoding","encoding","4","NeedlesAcupuncture.jpg","1",".","37","0","895"
"15","15","encoding","encoding","5","LeatherPuncherTool.jpg","1",".","37","0","482"
"15","15","encoding","encoding","6","Bottle_Wine.jpg","3",".","37","0","661"
"15","15","encoding","encoding","7","Dress_Party.jpg","3",".","37","0","552"
"15","15","encoding","encoding","8","Flute_Wooden.jpg","3",".","37","0","586"
"15","15","encoding","encoding","9","Knife_Hunting.jpg","1",".","37","0","501"
"15","15","encoding","encoding","10","Knee.jpg","1",".","36","0","528"
"15","15","encoding","encoding","11","Bottle_Wine.jpg","3",".","37","0","523"
"15","15","encoding","encoding","12","Mug_Beer.jpg","3",".","37","0","438"
"15","15","encoding","encoding","13","Toy_RockingHorseBlack.jpg","3",".","37","0","569"
"15","15","encoding","encoding","14","MixingGlass.jpg","3",".","37","0","762"
"15","15","encoding","encoding","15","MonaLisa.jpg","3",".","37","0","606"
"15","15","encoding","encoding","16","Tripod.jpg","3",".","37","0","513"
"15","15","encoding","encoding","17","Sign_Wetfloor.jpg","1",".","37","0","499"
"15","15","encoding","encoding","18","SmokeDetector.jpg","3",".","37","0","510"
"15","15","encoding","encoding","19","CookieCutter_Bell.jpg","3",".","37","0","441"
"15","15","encoding","encoding","20","DogTreat.jpg","3",".","37","0","435"
"15","15","encoding","encoding","21","Shampoo.jpg","1",".","37","0","366"
"15","15","encoding","encoding","22","Chest_Toys.jpg","1",".","37","0","394"
"15","15","encoding","encoding","23","Light_Siren.jpg","3",".","37","0","347"
"15","15","encoding","encoding","24","Leaf_Clover.jpg","3",".","36","0","559"
"15","15","encoding","encoding","25","Fish_Rockbass.jpg","3",".","36","0","498"
"15","15","encoding","encoding","26","Exercise_Stretch.jpg","3",".","37","0","531"
"15","15","encoding","encoding","27","Blanket.jpg","3",".","37","0","663"
"15","15","encoding","encoding","28","Autocreeper.jpg","3",".","37","0","554"
"15","15","encoding","encoding","29","Mattress.jpg","1",".","37","0","420"
"15","15","encoding","encoding","30","Bird_Cardinal.jpg","1",".","36","0","559"
"15","15","encoding","encoding","31","JukeboxAntique.jpg","1",".","37","0","522"
"15","15","encoding","encoding","32","BicycleHandleGrip.jpg","3",".","37","0","493"
"15","15","encoding","encoding","33","Chair_BeanBag.jpg","1",".","37","0","672"
"15","15","encoding","encoding","34","Fruit_Cactus.jpg","3",".","37","0","483"
"15","15","encoding","encoding","35","Autocreeper.jpg","3",".","37","0","484"
"15","15","encoding","encoding","36","Pitcher.jpg","3",".","37","0","496"
"15","15","encoding","encoding","37","ShoulderPads.jpg","3",".","37","0","523"
"15","15","encoding","encoding","38","Saw.jpg","3",".","37","0","445"
"15","15","encoding","encoding","39","Mitt_Oven.jpg","3",".","37","0","576"
"15","15","encoding","encoding","40","Exercise_Stretch.jpg","3",".","37","0","467"
"15","15","encoding","encoding","41","Pipe_Drain.jpg","3",".","37","0","510"
"15","15","encoding","encoding","42","Candy_Chocolate.jpg","3",".","37","0","696"
"15","15","encoding","encoding","43","Fuse.jpg","1",".","37","0","468"
"15","15","encoding","encoding","44","Guitar_Acoustic.jpg","3",".","37","0","405"
"15","15","encoding","encoding","45","Toy_BlocksPlastic Colourful.jpg","3",".","37","0","376"
"15","15","encoding","encoding","46","DentistOverheadLight.jpg","3",".","37","0","372"
"15","15","encoding","encoding","47","Pineapple.jpg","1",".","36","0","670"
"15","15","encoding","encoding","48","Golf_Bag.jpg","3",".","37","0","489"
"15","15","encoding","encoding","49","BicycleBrake.jpg","3",".","37","0","364"
"15","15","encoding","encoding","50","Shoes_DutchClogs.jpg","3",".","37","0","454"
"15","15","encoding","encoding","51","Box_Jewellery.jpg","3",".","37","0","457"
"15","15","encoding","encoding","52","DrinkingFountain.jpg","3",".","37","0","396"
"15","15","encoding","encoding","53","Bullet.jpg","1",".","37","0","558"
"15","15","encoding","encoding","54","WireStripper.jpg","3",".","37","0","393"
"15","15","encoding","encoding","55","Toys_Lego.jpg","3",".","37","0","364"
"15","15","encoding","encoding","56","Toy_Moose.jpg","1",".","36","0","783"
"15","15","encoding","encoding","57","Tickets_Blank.jpg","1",".","37","0","506"
"15","15","encoding","encoding","58","Speaker_OnStand.jpg","1",".","37","0","485"
"15","15","encoding","encoding","59","Lock_Combination.jpg","3",".","37","0","415"
"15","15","encoding","encoding","60","Helmet_Construction.jpg","3",".","37","0","482"
"15","15","encoding","encoding","61","Mitt_Oven.jpg","3",".","37","0","389"
"15","15","encoding","encoding","62","Megaphone.jpg","1",".","37","0","375"
"15","15","encoding","encoding","63","DoorBell.jpg","3",".","37","0","322"
"15","15","encoding","encoding","64","Flamingo_Cartoon.jpg","3",".","37","0","669"
"15","15","encoding","encoding","65","Table_Poker.jpg","3",".","37","0","632"
"15","15","encoding","encoding","67","Apple_RedAndGreen.jpg","3",".","36","0","474"
"15","15","encoding","encoding","68","Golf_Bag.jpg","3",".","37","0","421"
"15","15","encoding","encoding","69","Thermostat_Digital.jpg","3",".","37","0","408"
"15","15","encoding","encoding","70","CandyDispenser.jpg","3",".","37","0","451"
"15","15","encoding","encoding","71","Cup_Styrofoam.jpg","1",".","37","0","534"
"15","15","encoding","encoding","72","Paratrooper.jpg","1",".","37","0","609"
"15","15","encoding","encoding","73","Helmet_Soldier.jpg","3",".","37","0","507"
"15","15","encoding","encoding","74","Flute_Wooden.jpg","3",".","37","0","390"
"15","15","encoding","encoding","75","NintendoWii.jpg","1",".","37","0","393"
"15","15","encoding","encoding","76","Clip_Paper.jpg","1",".","37","0","395"
"15","15","encoding","encoding","77","Candy_Chocolate.jpg","3",".","37","0","510"
"15","15","encoding","encoding","78","Fortress.jpg","3",".","37","0","585"
"15","15","encoding","encoding","79","DrinkingFountain.jpg","3",".","37","0","531"
"15","15","encoding","encoding","80","SmokeDetector.jpg","3",".","37","0","494"
"15","15","encoding","encoding","81","Lantern_TeaBox.jpg","3",".","37","0","466"
"15","15","encoding","encoding","82","Fortress.jpg","3",".","37","0","427"
"15","15","encoding","encoding","83","Shoes_DutchClogs.jpg","3",".","37","0","495"
"15","15","encoding","encoding","84","Helmet_Construction.jpg","3",".","37","0","450"
"15","15","encoding","encoding","85","Helmet_Soldier.jpg","3",".","37","0","452"
"15","15","encoding","encoding","86","HairDryer.jpg","3",".","37","0","599"
"15","15","encoding","encoding","87","PassionFruit.jpg","1",".","36","0","578"
"15","15","encoding","encoding","88","Ashtray_Empty.jpg","1",".","37","0","380"
"15","15","encoding","encoding","89","Hook_Fish.jpg","1",".","36","0","575"
"15","15","encoding","encoding","90","CameoPortrait.jpg","3",".","37","0","787"
"15","15","encoding","encoding","91","DogTreat.jpg","3",".","37","0","709"
"15","15","encoding","encoding","92","Keg.jpg","3",".","37","0","384"
"15","15","encoding","encoding","93","IceCream_Chocolate.jpg","3",".","37","0","931"
"15","15","encoding","encoding","94","Mop.jpg","3",".","37","0","557"
"15","15","encoding","encoding","95","Teabag.jpg","1",".","37","0","544"
"15","15","encoding","encoding","96","Toy_RockingHorseBlack.jpg","3",".","37","0","475"
"15","15","encoding","encoding","97","Box_Floral.jpg","1",".","37","0","557"
"15","15","encoding","encoding","98","Flamingo_Cartoon.jpg","3",".","36","0","768"
"15","15","encoding","encoding","99","DentistOverheadLight.jpg","3",".","37","0","499"
"15","15","encoding","encoding","100","AmpMeter.jpg","1",".","37","0","405"
"15","15","encoding","encoding","101","Toys_Lego.jpg","3",".","37","0","345"
"15","15","encoding","encoding","102","WashRack.jpg","3",".","37","0","341"
"15","15","encoding","encoding","103","SmokeDetector.jpg","3",".","37","0","358"
"15","15","encoding","encoding","104","ShoulderPads.jpg","3",".","37","0","401"
"15","15","encoding","encoding","105","MonaLisa.jpg","3",".","37","0","500"
"15","15","encoding","encoding","106","Cassette_Audio.jpg","1",".","37","0","479"
"15","15","encoding","encoding","107","Mango.jpg","3",".","36","0","521"
"15","15","encoding","encoding","108","Sushi.jpg","3",".","36","0","580"
"15","15","encoding","encoding","109","Fish_Rockbass.jpg","3",".","36","0","846"
"15","15","encoding","encoding","110","Bowl_Chinese.jpg","1",".","37","0","570"
"15","15","encoding","encoding","111","Lollipop_Grape.jpg","3",".","37","0","836"
"15","15","encoding","encoding","112","NailPolish.jpg","1",".","37","0","727"
"15","15","encoding","encoding","113","GPS.jpg","1",".","37","0","482"
"15","15","encoding","encoding","114","WashRack.jpg","3",".","37","0","365"
"15","15","encoding","encoding","115","Helmet_Soldier.jpg","3",".","37","0","407"
"15","15","encoding","encoding","116","Flute_Wooden.jpg","3",".","37","0","362"
"15","15","encoding","encoding","117","BusStop.jpg","3",".","37","0","317"
"15","15","encoding","encoding","118","ButterDish.jpg","3",".","37","0","336"
"15","15","encoding","encoding","119","Bellows.jpg","1",".","37","0","450"
"15","15","encoding","encoding","120","CameoPortrait.jpg","3",".","37","0","453"
"15","15","encoding","encoding","121","BusStop.jpg","3",".","37","0","328"
"15","15","encoding","encoding","122","Almond.jpg","3",".","36","0","490"
"15","15","encoding","encoding","123","Toys_Lego.jpg","3",".","37","0","365"
"15","15","encoding","encoding","124","Trumpet.jpg","1",".","37","0","361"
"15","15","encoding","encoding","125","BicycleBrake.jpg","3",".","37","0","323"
"15","15","encoding","encoding","126","Table_Poker.jpg","3",".","37","0","446"
"15","15","encoding","encoding","127","Glove_Rubber.jpg","1",".","37","0","417"
"15","15","encoding","encoding","128","Toy_BlocksPlastic Colourful.jpg","3",".","37","0","355"
"15","15","encoding","encoding","129","Desk_School.jpg","1",".","37","0","334"
"15","15","encoding","encoding","130","fries.jpg","3",".","37","0","865"
"15","15","encoding","encoding","131","TinChristmas.jpg","3",".","37","0","715"
"15","15","encoding","encoding","133","DoorKnob.jpg","1",".","37","0","547"
"15","15","encoding","encoding","134","Tripod.jpg","3",".","37","0","487"
"15","15","encoding","encoding","135","Chair_MedicalToilet.jpg","3",".","37","0","385"
"15","15","encoding","encoding","136","Spoons_MeasuringDetached.jpg","3",".","37","0","332"
"15","15","encoding","encoding","137","Toy_Shapesorter.jpg","3",".","37","0","311"
"15","15","encoding","encoding","138","Golf_Bag.jpg","3",".","37","0","298"
"15","15","encoding","encoding","139","Colander.jpg","3",".","37","0","316"
"15","15","encoding","encoding","140","Car_Sedan.jpg","1",".","37","0","496"
"15","15","encoding","encoding","141","Exercise_Stretch.jpg","3",".","37","0","411"
"15","15","encoding","encoding","142","Shoes_DutchClogs.jpg","3",".","37","0","452"
"15","15","encoding","encoding","143","BicycleBrake.jpg","3",".","37","0","543"
"15","15","encoding","encoding","144","Toy_Shapesorter.jpg","3",".","37","0","586"
"15","15","encoding","encoding","145","Fruit_Cactus.jpg","3",".","36","0","557"
"15","15","encoding","encoding","146","IceCrusher.jpg","1",".","37","0","376"
"15","15","encoding","encoding","147","Chest.jpg","3",".","37","0","323"
"15","15","encoding","encoding","148","FlashlightHeadBand.jpg","3",".","37","0","317"
"15","15","encoding","encoding","149","Fish_Rockbass.jpg","3",".","36","0","528"
"15","15","encoding","encoding","150","Phone_Wireless.jpg","1",".","37","0","355"
"15","15","encoding","encoding","151","DentistOverheadLight.jpg","3",".","37","0","325"
"15","15","encoding","encoding","152","Sushi.jpg","3",".","37","0","648"
"15","15","encoding","encoding","153","Notebook.jpg","3",".","37","0","452"
"15","15","encoding","encoding","154","Steeple.jpg","1",".","37","0","334"
"15","15","encoding","encoding","155","Hammer_Reflex.jpg","3",".","37","0","409"
"15","15","encoding","encoding","156","MonkeyPuppet.jpg","1",".","37","0","668"
"15","15","encoding","encoding","157","BicycleHandleGrip.jpg","3",".","37","0","430"
"15","15","encoding","encoding","158","PotatoMasher_Zigzag.jpg","1",".","37","0","369"
"15","15","encoding","encoding","159","fries.jpg","3",".","36","0","828"
"15","15","encoding","encoding","160","BottleOpener.jpg","3",".","37","0","590"
"15","15","encoding","encoding","161","Mug_Beer.jpg","3",".","37","0","361"
"15","15","encoding","encoding","162","Toy_StackingRing.jpg","1",".","37","0","333"
"15","15","encoding","encoding","163","Lollipop_Grape.jpg","3",".","37","0","358"
"15","15","encoding","encoding","164","Mango.jpg","3",".","36","0","553"
"15","15","encoding","encoding","165","Colander.jpg","3",".","37","0","421"
"15","15","encoding","encoding","166","Lilypad.jpg","1",".","37","0","294"
"15","15","encoding","encoding","167","CandyDispenser.jpg","3",".","37","0","354"
"15","15","encoding","encoding","168","BottleOpener.jpg","3",".","37","0","381"
"15","15","encoding","encoding","169","Flamingo_Cartoon.jpg","3",".","36","0","663"
"15","15","encoding","encoding","170","Candy_Heart.jpg","1",".","37","0","924"
"15","15","encoding","encoding","171","GasBurner.jpg","3",".","37","0","557"
"15","15","encoding","encoding","172","DogTreat.jpg","3",".","37","0","487"
"15","15","encoding","encoding","173","Sushi.jpg","3",".","37","0","986"
"15","15","encoding","encoding","174","Table_Poker.jpg","3",".","37","0","485"
"15","15","encoding","encoding","175","Cantaloupe.jpg","3",".","36","0","535"
"15","15","encoding","encoding","176","ShoulderPads.jpg","3",".","37","0","355"
"15","15","encoding","encoding","177","Keg.jpg","3",".","37","0","333"
"15","15","encoding","encoding","178","BicyclePedal.jpg","1",".","37","0","400"
"15","15","encoding","encoding","179","Candle_Blue.jpg","3",".","37","0","507"
"15","15","encoding","encoding","180","WindowBlinds.jpg","1",".","37","0","446"
"15","15","encoding","encoding","181","Cake_Wedding.jpg","3",".","37","0","504"
"15","15","encoding","encoding","182","Almond.jpg","3",".","36","0","523"
"15","15","encoding","encoding","183","ButterDish.jpg","3",".","37","0","366"
"15","15","encoding","encoding","184","MouthGuard.jpg","1",".","37","0","480"
"15","15","encoding","encoding","185","Candy_Chocolate.jpg","3",".","37","0","451"
"15","15","encoding","encoding","186","Mitt_Oven.jpg","3",".","37","0","327"
"15","15","encoding","encoding","187","Peppermill.jpg","3",".","37","0","321"
"15","15","encoding","encoding","188","Skates.jpg","1",".","37","0","356"
"15","15","encoding","encoding","189","Mug_Beer.jpg","3",".","37","0","303"
"15","15","encoding","encoding","190","Keg.jpg","3",".","37","0","297"
"15","15","encoding","encoding","191","Hammer_Reflex.jpg","3",".","37","0","356"
"15","15","encoding","encoding","192","Light_Siren.jpg","3",".","37","0","335"
"15","15","encoding","encoding","193","Jar_JellyBeans.jpg","1",".","37","0","409"
"15","15","encoding","encoding","194","WireStripper.jpg","3",".","37","0","340"
"15","15","encoding","encoding","195","Mop.jpg","3",".","37","0","432"
"15","15","encoding","encoding","196","Toy_Witch.jpg","1",".","37","0","442"
"15","15","encoding","encoding","197","TinChristmas.jpg","3",".","37","0","413"
"15","15","encoding","encoding","199","Mop.jpg","3",".","37","0","409"
"15","15","encoding","encoding","200","SculptureMetalFish.jpg","3",".","37","0","300"
"15","15","encoding","encoding","201","Mask_Happy.jpg","3",".","37","0","398"
"15","15","encoding","encoding","202","Mask_Happy.jpg","3",".","37","0","321"
"15","15","encoding","encoding","203","Chair_MedicalToilet.jpg","3",".","37","0","396"
"15","15","encoding","encoding","204","Pitcher.jpg","3",".","37","0","311"
"15","15","encoding","encoding","205","CookieCutter_Bell.jpg","3",".","37","0","449"
"15","15","encoding","encoding","206","Lantern_TeaBox.jpg","3",".","37","0","357"
"15","15","encoding","encoding","207","IceCream_Chocolate.jpg","3",".","37","0","751"
"15","15","encoding","encoding","208","Bottle_Wine.jpg","3",".","37","0","338"
"15","15","encoding","encoding","209","PaintRollTray.jpg","1",".","37","0","525"
"15","15","encoding","encoding","210","Hammer_Reflex.jpg","3",".","37","0","312"
"15","15","encoding","encoding","211","Apple_RedAndGreen.jpg","3",".","37","0","34"
"15","15","encoding","encoding","212","Thermostat_Digital.jpg","3",".","37","0","429"
"15","15","encoding","encoding","213","DoorBell.jpg","3",".","37","0","384"
"15","15","encoding","encoding","214","Drink_Green.jpg","1",".","36","0","770"
"15","15","encoding","encoding","215","Toy_BlocksPlastic Colourful.jpg","3",".","37","0","342"
"15","15","encoding","encoding","216","Balalaika.jpg","1",".","37","0","368"
"15","15","encoding","encoding","217","Thermostat_Digital.jpg","3",".","37","0","411"
"15","15","encoding","encoding","218","HairDryer.jpg","3",".","37","0","374"
"15","15","encoding","encoding","219","Blanket.jpg","3",".","37","0","344"
"15","15","encoding","encoding","220","Cherry.jpg","1",".","36","0","563"
"15","15","encoding","encoding","221","Oyster.jpg","1",".","36","0","710"
"15","15","encoding","encoding","222","Notebook.jpg","3",".","37","0","441"
"15","15","encoding","encoding","223","WireStripper.jpg","3",".","37","0","355"
"15","15","encoding","encoding","224","Trophy.jpg","1",".","37","0","455"
"15","15","encoding","encoding","225","Guitar_Acoustic.jpg","3",".","37","0","402"
"15","15","encoding","encoding","226","Toy_Shapesorter.jpg","3",".","37","0","307"
"15","15","encoding","encoding","227","Peppermill.jpg","3",".","37","0","279"
"15","15","encoding","encoding","228","Generator.jpg","1",".","37","0","386"
"15","15","encoding","encoding","229","Cake_Wedding.jpg","3",".","37","0","516"
"15","15","encoding","encoding","230","Guitar_Acoustic.jpg","3",".","37","0","391"
"15","15","encoding","encoding","231","Lock_Combination.jpg","3",".","37","0","530"
"15","15","encoding","encoding","232","PuppetTheatre_WhiteGold.jpg","1",".","37","0","548"
"15","15","encoding","encoding","233","MonaLisa.jpg","3",".","37","0","471"
"15","15","encoding","encoding","234","Hourglass.jpg","1",".","37","0","458"
"15","15","encoding","encoding","235","Box_Jewellery.jpg","3",".","37","0","549"
"15","15","encoding","encoding","236","Cantaloupe.jpg","3",".","36","0","527"
"15","15","encoding","encoding","237","Candle_Blue.jpg","3",".","37","0","314"
"15","15","encoding","encoding","238","Lantern_TeaBox.jpg","3",".","37","0","205"
"15","15","encoding","encoding","239","Peppermill.jpg","3",".","37","0","248"
"15","15","encoding","encoding","240","WashRack.jpg","3",".","37","0","355"
"15","15","encoding","encoding","241","BottleOpener.jpg","3",".","37","0","373"
"15","15","encoding","encoding","242","Wheelbarrow_Green.jpg","3",".","37","0","256"
"15","15","encoding","encoding","243","FlashlightHeadBand.jpg","3",".","37","0","187"
"15","15","encoding","encoding","244","DoorBell.jpg","3",".","37","0","349"
"15","15","encoding","encoding","245","Nyala.jpg","1",".","37","0","281"
"15","15","encoding","encoding","246","Almond.jpg","3",".","36","0","467"
"15","15","encoding","encoding","247","Toy_GasPump.jpg","1",".","37","0","366"
"15","15","encoding","encoding","248","Pipe_Drain.jpg","3",".","37","0","329"
"15","15","encoding","encoding","249","Stove_Camping.jpg","1",".","37","0","340"
"15","15","encoding","encoding","250","GasBurner.jpg","3",".","37","0","326"
"15","15","encoding","encoding","251","Saw.jpg","3",".","37","0","393"
"15","15","encoding","encoding","252","FireExtinguisher.jpg","3",".","37","0","492"
"15","15","encoding","encoding","253","Bathtub.jpg","3",".","37","0","446"
"15","15","encoding","encoding","254","BadgeSpecialAgent.jpg","1",".","37","0","329"
"15","15","encoding","encoding","255","Mat_Door.jpg","1",".","37","0","316"
"15","15","encoding","encoding","256","BicycleHandleGrip.jpg","3",".","37","0","318"
"15","15","encoding","encoding","257","Light_Siren.jpg","3",".","37","0","313"
"15","15","encoding","encoding","258","Fruit_Cactus.jpg","3",".","36","0","525"
"15","15","encoding","encoding","259","Goose_Canadian.jpg","1",".","36","0","695"
"15","15","encoding","encoding","260","Leaf_Clover.jpg","3",".","36","0","570"
"15","15","encoding","encoding","261","CameoPortrait.jpg","3",".","37","0","580"
"15","15","encoding","encoding","262","Pants_Jeans.jpg","3",".","37","0","558"
"15","15","encoding","encoding","263","Saw.jpg","3",".","37","0","402"
"15","15","encoding","encoding","265","Spoon_Wooden.jpg","1",".","37","0","585"
"15","15","encoding","encoding","266","Leaf_Clover.jpg","3",".","36","0","476"
"15","15","encoding","encoding","267","IceCream_Chocolate.jpg","3",".","37","0","680"
"15","15","encoding","encoding","268","Wheelbarrow_Green.jpg","3",".","37","0","626"
"15","15","encoding","encoding","269","Chest.jpg","3",".","37","0","405"
"15","15","encoding","encoding","270","Notebook.jpg","3",".","37","0","327"
"15","15","encoding","encoding","271","DryRack_Dishes.jpg","1",".","37","0","346"
"15","15","encoding","encoding","272","Blanket.jpg","3",".","37","0","349"
"15","15","encoding","encoding","273","MixingGlass.jpg","3",".","37","0","240"
"15","15","encoding","encoding","274","Tortilla.jpg","1",".","37","0","234"
"15","15","encoding","encoding","275","SculptureMetalFish.jpg","3",".","37","0","366"
"15","15","encoding","encoding","276","Mango.jpg","3",".","36","0","441"
"15","15","encoding","encoding","277","Guitarcase.jpg","1",".","37","0","346"
"15","15","encoding","encoding","278","TinChristmas.jpg","3",".","37","0","222"
"15","15","encoding","encoding","279","Lock_Combination.jpg","3",".","37","0","225"
"15","15","encoding","encoding","280","Fortress.jpg","3",".","37","0","211"
"15","15","encoding","encoding","281","MixingGlass.jpg","3",".","37","0","286"
"15","15","encoding","encoding","282","Chest.jpg","3",".","37","0","329"
"15","15","encoding","encoding","283","Spoons_MeasuringDetached.jpg","3",".","37","0","323"
"15","15","encoding","encoding","284","Bathtub.jpg","3",".","37","0","358"
"15","15","encoding","encoding","285","Pitcher.jpg","3",".","37","0","433"
"15","15","encoding","encoding","286","Colander.jpg","3",".","37","0","331"
"15","15","encoding","encoding","287","CandyDispenser.jpg","3",".","37","0","334"
"15","15","encoding","encoding","288","Beater_Electric.jpg","1",".","37","0","393"
"15","15","encoding","encoding","289","Pants_Jeans.jpg","3",".","37","0","339"
"15","15","encoding","encoding","290","Lollipop_Grape.jpg","3",".","37","0","366"
"15","15","encoding","encoding","291","PaintBrushAndPallette.jpg","1",".","37","0","426"
"15","15","encoding","encoding","292","Sign_Parking.jpg","1",".","37","0","468"
"15","15","encoding","encoding","293","Spoons_MeasuringDetached.jpg","3",".","37","0","447"
"15","15","encoding","encoding","294","Dress_Party.jpg","3",".","37","0","482"
"15","15","encoding","encoding","295","FlashlightHeadBand.jpg","3",".","37","0","404"
"15","15","encoding","encoding","296","Dress_Party.jpg","3",".","37","0","360"
"15","15","encoding","encoding","297","Tripod.jpg","3",".","37","0","346"
"15","15","encoding","encoding","298","Helmet_Construction.jpg","3",".","37","0","460"
"15","15","encoding","encoding","299","Chair_MedicalToilet.jpg","3",".","37","0","383"
"15","15","encoding","encoding","300","TartStrawberry.jpg","1",".","36","0","450"
"15","15","encoding","encoding","301","DrinkingFountain.jpg","3",".","37","0","349"
"15","15","encoding","encoding","302","Wheelbarrow_Green.jpg","3",".","37","0","360"
"15","15","encoding","encoding","303","Cantaloupe.jpg","3",".","36","0","444"
"15","15","encoding","encoding","304","Bathtub.jpg","3",".","37","0","413"
"15","15","encoding","encoding","305","TeethMould.jpg","1",".","37","0","800"
"15","15","encoding","encoding","306","Autocreeper.jpg","3",".","37","0","483"
"15","15","encoding","encoding","307","HairDryer.jpg","3",".","37","0","349"
"15","15","encoding","encoding","308","CookieCutter_Bell.jpg","3",".","37","0","304"
"15","15","encoding","encoding","309","fries.jpg","3",".","36","0","843"
"15","15","encoding","encoding","310","Apple_RedAndGreen.jpg","3",".","37","0","335"
"15","15","encoding","encoding","311","FireExtinguisher.jpg","3",".","37","0","400"
"15","15","encoding","encoding","312","SculptureMetalFish.jpg","3",".","37","0","348"
"15","15","encoding","encoding","313","Box_Jewellery.jpg","3",".","37","0","374"
"15","15","encoding","encoding","314","Cake_Wedding.jpg","3",".","37","0","401"
"15","15","encoding","encoding","315","Mask_Happy.jpg","3",".","37","0","388"
"15","15","encoding","encoding","316","Pipe_Drain.jpg","3",".","37","0","406"
"15","15","encoding","encoding","317","FireExtinguisher.jpg","3",".","37","0","345"
"15","15","encoding","encoding","318","ButterDish.jpg","3",".","37","0","316"
"15","15","encoding","encoding","319","Toy_RockingHorseBlack.jpg","3",".","37","0","350"
"15","15","encoding","encoding","320","GasBurner.jpg","3",".","37","0","282"
"15","15","encoding","encoding","321","StringBean.jpg","1",".","37","0","300"
"15","15","encoding","encoding","322","Pants_Jeans.jpg","3",".","37","0","384"
"15","15","encoding","encoding","323","RemoteControl.jpg","1",".","37","0","394"
"15","15","encoding","encoding","324","Candle_Blue.jpg","3",".","37","0","317"
"15","15","encoding","encoding","325","Hippopotamus.jpg","",".","36","0","487"
"15","15","retrieval","old_object","1","Car_Sedan.jpg",".","1","36","1","1190"
"15","15","retrieval","old_object","2","Lock_Combination.jpg",".","3","36","1","960"
"15","15","retrieval","old_object","3","Bottle_Blue.jpg",".","1","36","1","1299"
"15","15","retrieval","new_object","4","AnsweringMachine.jpg",".",".","37","1","742"
"15","15","retrieval","old_object","5","Bowl_Chinese.jpg",".","1","36","1","1009"
"15","15","retrieval","old_object","6","Trumpet.jpg",".","1","36","1","812"
"15","15","retrieval","new_object","7","Can_OilSpout.jpg",".",".","37","1","695"
"15","15","retrieval","old_object","8","Hook_Fish.jpg",".","1","36","1","761"
"15","15","retrieval","new_object","9","Gun_Glue.jpg",".",".","37","1","876"
"15","15","retrieval","new_object","10","Radio_Vintage.jpg",".",".","36","0","1128"
"15","15","retrieval","old_object","11","Toys_Lego.jpg",".","3","36","1","1010"
"15","15","retrieval","old_object","12","Keg.jpg",".","3","36","1","605"
"15","15","retrieval","old_object","13","Flamingo_Cartoon.jpg",".","3","36","1","544"
"15","15","retrieval","new_object","14","Loofa.jpg",".",".","37","1","626"
"15","15","retrieval","new_object","15","OnionRed.jpg",".",".","36","0","669"
"15","15","retrieval","new_object","16","Bottle_BubbleBlower.jpg",".",".","37","1","968"
"15","15","retrieval","new_object","17","Chinchilla.jpg",".",".","37","1","683"
"15","15","retrieval","new_object","18","Hottub.jpg",".",".","37","1","654"
"15","15","retrieval","old_object","19","BadgeSpecialAgent.jpg",".","1","36","1","689"
"15","15","retrieval","new_object","20","Chipmunk.jpg",".",".","37","1","883"
"15","15","retrieval","new_object","21","Hat_Baseball.jpg",".",".","37","1","654"
"15","15","retrieval","new_object","22","GranolaBar.jpg",".",".","37","1","577"
"15","15","retrieval","old_object","23","Hourglass.jpg",".","1","36","1","755"
"15","15","retrieval","old_object","24","Knee.jpg",".","1","36","1","815"
"15","15","retrieval","old_object","25","Spoon_Wooden.jpg",".","1","36","1","778"
"15","15","retrieval","new_object","26","Hoverboard.jpg",".",".","37","1","652"
"15","15","retrieval","new_object","27","HumanSkeleton.jpg",".",".","37","1","671"
"15","15","retrieval","old_object","28","Bullet.jpg",".","1","36","1","1010"
"15","15","retrieval","old_object","29","Lantern_TeaBox.jpg",".","3","36","1","668"
"15","15","retrieval","new_object","30","Carbiner_Ascender.jpg",".",".","37","1","639"
"15","15","retrieval","old_object","31","Apple_RedAndGreen.jpg",".","3","36","1","787"
"15","15","retrieval","new_object","32","SkiPoles.jpg",".",".","37","1","877"
"15","15","retrieval","old_object","33","Guitarcase.jpg",".","1","36","1","760"
"15","15","retrieval","new_object","34","Toolbox_RedOpen.jpg",".",".","37","1","627"
"15","15","retrieval","old_object","35","Mug_Beer.jpg",".","3","36","1","925"
"15","15","retrieval","new_object","36","Arch.jpg",".",".","37","1","641"
"15","15","retrieval","old_object","37","Box_Jewellery.jpg",".","3","36","1","859"
"15","15","retrieval","old_object","38","Autocreeper.jpg",".","3","36","1","671"
"15","15","retrieval","old_object","39","RemoteControl.jpg",".","1","36","1","729"
"15","15","retrieval","new_object","40","Hawk.jpg",".",".","37","1","660"
"15","15","retrieval","old_object","41","Skates.jpg",".","1","36","1","686"
"15","15","retrieval","new_object","42","Helmet_Knight.jpg",".",".","37","1","721"
"15","15","retrieval","new_object","43","Pipe.jpg",".",".","37","1","748"
"15","15","retrieval","new_object","44","SafetyPin.jpg",".",".","37","1","814"
"15","15","retrieval","new_object","45","Frame_Oval.jpg",".",".","37","1","649"
"15","15","retrieval","new_object","46","Brace_Back.jpg",".",".","37","1","565"
"15","15","retrieval","new_object","47","Pajamas.jpg",".",".","37","1","672"
"15","15","retrieval","old_object","48","TartStrawberry.jpg",".","1","36","1","898"
"15","15","retrieval","new_object","49","Thermostat.jpg",".",".","37","1","581"
"15","15","retrieval","old_object","50","Spoons_MeasuringDetached.jpg",".","3","36","1","777"
"15","15","retrieval","old_object","51","JukeboxAntique.jpg",".","1","36","1","811"
"15","15","retrieval","new_object","52","Sign_TrafficArrow.jpg",".",".","37","1","670"
"15","15","retrieval","new_object","53","Bomb.jpg",".",".","37","1","729"
"15","15","retrieval","new_object","54","Boxcutter.jpg",".",".","37","1","788"
"15","15","retrieval","new_object","55","Makeup_Foundation.jpg",".",".","36","0","782"
"15","15","retrieval","old_object","56","DryRack_Dishes.jpg",".","1","36","1","802"
"15","15","retrieval","new_object","57","Glass_Cup.jpg",".",".","37","1","716"
"15","15","retrieval","old_object","58","Chair_BeanBag.jpg",".","1","36","1","766"
"15","15","retrieval","old_object","59","Tickets_Blank.jpg",".","1","37","0","714"
"15","15","retrieval","old_object","60","Table_Poker.jpg",".","3","36","1","1044"
"15","15","retrieval","old_object","61","DoorKnob.jpg",".","1","36","1","703"
"15","15","retrieval","old_object","62","PotatoMasher_Zigzag.jpg",".","1","36","1","802"
"15","15","retrieval","old_object","63","DogTreat.jpg",".","3","36","1","597"
"15","15","retrieval","new_object","64","Spatula_1.jpg",".",".","37","1","848"
"15","15","retrieval","new_object","65","Hazelnut.jpg",".",".","37","1","779"
"15","15","retrieval","old_object","67","MonkeyPuppet.jpg",".","1","36","1","1345"
"15","15","retrieval","new_object","68","Toy_PoliceCar.jpg",".",".","37","1","851"
"15","15","retrieval","old_object","69","HairDryer.jpg",".","3","36","1","1654"
"15","15","retrieval","old_object","70","TeethMould.jpg",".","1","36","1","698"
"15","15","retrieval","new_object","71","Tire_Hollow.jpg",".",".","37","1","708"
"15","15","retrieval","old_object","72","Helmet_Construction.jpg",".","3","36","1","1015"
"15","15","retrieval","new_object","73","Lighter_Yellow.jpg",".",".","37","1","1130"
"15","15","retrieval","old_object","74","Ashtray_Empty.jpg",".","1","36","1","934"
"15","15","retrieval","new_object","75","Sock_Ankle.jpg",".",".","37","1","591"
"15","15","retrieval","new_object","76","SewingMachine.jpg",".",".","37","1","866"
"15","15","retrieval","new_object","77","Wheel_Steering.jpg",".",".","37","1","749"
"15","15","retrieval","new_object","78","SmokingPipe.jpg",".",".","37","1","832"
"15","15","retrieval","old_object","79","Shoes_DutchClogs.jpg",".","3","36","1","731"
"15","15","retrieval","new_object","80","Thermos_MetalSleek.jpg",".",".","37","1","1021"
"15","15","retrieval","new_object","81","CrepeMaker.jpg",".",".","37","1","929"
"15","15","retrieval","new_object","82","PedestalGreek.jpg",".",".","37","1","724"
"15","15","retrieval","new_object","83","Toy_SeeSaw.jpg",".",".","37","1","1014"
"15","15","retrieval","new_object","84","Pig.jpg",".",".","37","1","849"
"15","15","retrieval","new_object","85","CuttingBoard.jpg",".",".","37","1","604"
"15","15","retrieval","new_object","86","Clock_Radio.jpg",".",".","37","1","614"
"15","15","retrieval","old_object","87","Leaf_Clover.jpg",".","3","36","1","569"
"15","15","retrieval","new_object","88","BicycleOdometer.jpg",".",".","37","1","716"
"15","15","retrieval","new_object","89","RibbonSpool.jpg",".",".","37","1","607"
"15","15","retrieval","new_object","90","Knife_Butter.jpg",".",".","37","1","618"
"15","15","retrieval","new_object","91","Box_Present.jpg",".",".","37","1","901"
"15","15","retrieval","new_object","92","Broom_Long.jpg",".",".","37","1","887"
"15","15","retrieval","old_object","93","Flute_Wooden.jpg",".","3","36","1","722"
"15","15","retrieval","new_object","94","PaperStack.jpg",".",".","36","0","853"
"15","15","retrieval","new_object","95","Comb.jpg",".",".","37","1","1135"
"15","15","retrieval","old_object","96","IceCream_Chocolate.jpg",".","3","36","1","786"
"15","15","retrieval","old_object","97","Tortilla.jpg",".","1","36","1","909"
"15","15","retrieval","old_object","98","DoorBell.jpg",".","3","36","1","1225"
"15","15","retrieval","new_object","99","Pot_Cooking.jpg",".",".","37","1","771"
"15","15","retrieval","old_object","100","Golf_Bag.jpg",".","3","36","1","862"
"15","15","retrieval","new_object","101","Shoe_Pink.jpg",".",".","36","0","1026"
"15","15","retrieval","old_object","102","CameoPortrait.jpg",".","3","36","1","844"
"15","15","retrieval","new_object","103","Seashell_AlternateTellin.jpg",".",".","36","0","1287"
"15","15","retrieval","new_object","104","Case_DVD.jpg",".",".","37","1","738"
"15","15","retrieval","new_object","105","Ball_8.jpg",".",".","37","1","1132"
"15","15","retrieval","old_object","106","Glove_Rubber.jpg",".","1","36","1","1263"
"15","15","retrieval","new_object","107","House_Rural.jpg",".",".","0","0","2000"
"15","15","retrieval","old_object","108","Beater_Electric.jpg",".","1","36","1","909"
"15","15","retrieval","new_object","109","CartonEggs.jpg",".",".","37","1","752"
"15","15","retrieval","new_object","110","MobilityScooter.jpg",".",".","37","1","1115"
"15","15","retrieval","new_object","111","Statue_VirginMary.jpg",".",".","37","1","909"
"15","15","retrieval","new_object","112","Socks_Winter.jpg",".",".","37","1","1440"
"15","15","retrieval","new_object","113","Cage_Bird.jpg",".",".","37","1","771"
"15","15","retrieval","old_object","114","Sign_Wetfloor.jpg",".","1","36","1","678"
"15","15","retrieval","old_object","115","Pitcher.jpg",".","3","37","0","1129"
"15","15","retrieval","old_object","116","Cassette_Audio.jpg",".","1","37","0","1156"
"15","15","retrieval","old_object","117","MouthGuard.jpg",".","1","36","1","734"
"15","15","retrieval","old_object","118","Candy_Chocolate.jpg",".","3","36","1","1057"
"15","15","retrieval","old_object","119","WireStripper.jpg",".","3","36","1","1692"
"15","15","retrieval","new_object","120","SaxophoneSoprano.jpg",".",".","37","1","854"
"15","15","retrieval","old_object","121","Box_Floral.jpg",".","1","36","1","857"
"15","15","retrieval","old_object","122","Bathtub.jpg",".","3","36","1","652"
"15","15","retrieval","new_object","123","SundaeBanana.jpg",".",".","37","1","647"
"15","15","retrieval","new_object","124","Sink_Bathroom.jpg",".",".","36","0","842"
"15","15","retrieval","old_object","125","Thermostat_Digital.jpg",".","3","36","1","773"
"15","15","retrieval","new_object","126","Crib_Basket.jpg",".",".","37","1","655"
"15","15","retrieval","old_object","127","Cup_Styrofoam.jpg",".","1","37","0","690"
"15","15","retrieval","new_object","128","Jar_Cotton.jpg",".",".","37","1","886"
"15","15","retrieval","old_object","129","Mop.jpg",".","3","36","1","928"
"15","15","retrieval","new_object","130","BicycleChain.jpg",".",".","37","1","667"
"15","15","retrieval","old_object","131","Mattress.jpg",".","1","36","1","782"
"15","15","retrieval","new_object","133","Truck_Dump.jpg",".",".","36","0","1000"
"15","15","retrieval","old_object","134","Paratrooper.jpg",".","1","36","1","1787"
"15","15","retrieval","old_object","135","Fortress.jpg",".","3","36","1","1518"
"15","15","retrieval","old_object","136","Shampoo.jpg",".","1","36","1","1472"
"15","15","retrieval","old_object","137","Mango.jpg",".","3","36","1","731"
"15","15","retrieval","new_object","138","Bell_Hand.jpg",".",".","37","1","958"
"15","15","retrieval","new_object","139","SkullDeer.jpg",".",".","37","1","913"
"15","15","retrieval","old_object","140","Peppermill.jpg",".","3","36","1","860"
"15","15","retrieval","old_object","141","Candle_Blue.jpg",".","3","36","1","551"
"15","15","retrieval","new_object","142","Currants.jpg",".",".","37","1","601"
"15","15","retrieval","old_object","143","Goose_Canadian.jpg",".","1","36","1","637"
"15","15","retrieval","new_object","144","Bench_Wooden.jpg",".",".","36","0","1151"
"15","15","retrieval","old_object","145","Toy_StackingRing.jpg",".","1","37","0","969"
"15","15","retrieval","new_object","146","Hockey_Equipment.jpg",".",".","37","1","685"
"15","15","retrieval","new_object","147","CoffeeGrinder.jpg",".",".","37","1","1056"
"15","15","retrieval","old_object","148","fries.jpg",".","3","36","1","930"
"15","15","retrieval","new_object","149","Toolbox_Old.jpg",".",".","37","1","909"
"15","15","retrieval","old_object","150","Sign_Parking.jpg",".","1","36","1","719"
"15","15","retrieval","new_object","151","Telescope.jpg",".",".","0","0","2000"
"15","15","retrieval","new_object","152","Kite_Rainbow.jpg",".",".","37","1","1310"
"15","15","retrieval","new_object","153","Pickaxe.jpg",".",".","37","1","745"
"15","15","retrieval","old_object","154","Toy_BlocksPlastic Colourful.jpg",".","3","36","1","651"
"15","15","retrieval","old_object","155","GasBurner.jpg",".","3","36","1","1614"
"15","15","retrieval","old_object","156","PaintBrushAndPallette.jpg",".","1","0","0","2000"
"15","15","retrieval","new_object","157","Jug_Milk.jpg",".",".","37","1","835"
"15","15","retrieval","new_object","158","Boots_KneeHigh.jpg",".",".","37","1","918"
"15","15","retrieval","old_object","159","Bird_Cardinal.jpg",".","1","36","1","1602"
"15","15","retrieval","old_object","160","Colander.jpg",".","3","0","0","2000"
"15","15","retrieval","new_object","161","Bandage_Wrap.jpg",".",".","37","1","1199"
"15","15","retrieval","new_object","162","TireRims.jpg",".",".","37","1","1699"
"15","15","retrieval","new_object","163","ElasticBand.jpg",".",".","37","1","636"
"15","15","retrieval","old_object","164","NintendoWii.jpg",".","1","36","1","1200"
"15","15","retrieval","old_object","165","Sushi.jpg",".","3","36","1","1147"
"15","15","retrieval","new_object","166","LampPost_OneBulb.jpg",".",".","37","1","732"
"15","15","retrieval","new_object","167","Glass_Martini.jpg",".",".","0","0","2000"
"15","15","retrieval","new_object","168","Dart.jpg",".",".","37","1","771"
"15","15","retrieval","new_object","169","Dolphine.jpg",".",".","0","0","2000"
"15","15","retrieval","new_object","170","Paddle_Beach.jpg",".",".","37","1","800"
"15","15","retrieval","old_object","171","FlashlightHeadBand.jpg",".","3","37","0","556"
"15","15","retrieval","new_object","172","Dress_Blue.jpg",".",".","37","1","678"
"15","15","retrieval","new_object","173","Playground.jpg",".",".","37","1","537"
"15","15","retrieval","old_object","174","ButterDish.jpg",".","3","36","1","804"
"15","15","retrieval","old_object","175","Hippopotamus.jpg",".","1","36","1","742"
"15","15","retrieval","new_object","176","Pen_Ballpoint.jpg",".",".","37","1","978"
"15","15","retrieval","new_object","177","BoogieBoard.jpg",".",".","37","1","781"
"15","15","retrieval","old_object","178","GPS.jpg",".","1","37","0","655"
"15","15","retrieval","old_object","179","Desk_School.jpg",".","1","36","1","706"
"15","15","retrieval","new_object","180","Waffle.jpg",".",".","37","1","837"
"15","15","retrieval","new_object","181","Exercise_Machine.jpg",".",".","37","1","839"
"15","15","retrieval","old_object","182","Fuse.jpg",".","1","37","0","602"
"15","15","retrieval","old_object","183","Jar_JellyBeans.jpg",".","1","37","0","734"
"15","15","retrieval","old_object","184","PaintRollTray.jpg",".","1","37","0","855"
"15","15","retrieval","old_object","185","Saw.jpg",".","3","36","1","907"
"15","15","retrieval","new_object","186","Outhouse.jpg",".",".","37","1","886"
"15","15","retrieval","old_object","187","Bellows.jpg",".","1","36","1","752"
"15","15","retrieval","old_object","188","Pants_Jeans.jpg",".","3","36","1","828"
"15","15","retrieval","old_object","189","Blanket.jpg",".","3","36","1","623"
"15","15","retrieval","new_object","190","Box_FirstAidOpen.jpg",".",".","37","1","641"
"15","15","retrieval","old_object","191","Wheelbarrow_Green.jpg",".","3","36","1","772"
"15","15","retrieval","new_object","192","PropellerFan.jpg",".",".","37","1","727"
"15","15","retrieval","new_object","193","Tribunal_Wooden.jpg",".",".","37","1","802"
"15","15","retrieval","new_object","194","Iron_Antique.jpg",".",".","37","1","972"
"15","15","retrieval","new_object","195","Bugle.jpg",".",".","37","1","1871"
"15","15","retrieval","old_object","196","Toy_RockingHorseBlack.jpg",".","3","36","1","1066"
"15","15","retrieval","new_object","197","Pasta_Spaghetti.jpg",".",".","0","0","2000"
"15","15","retrieval","old_object","199","SmokeDetector.jpg",".","3","36","1","1229"
"15","15","retrieval","new_object","200","Microphone.jpg",".",".","0","0","2000"
"15","15","retrieval","old_object","201","Toy_Shapesorter.jpg",".","3","36","1","1011"
"15","15","retrieval","old_object","202","Mask_Happy.jpg",".","3","37","0","701"
"15","15","retrieval","old_object","203","BicycleHandleGrip.jpg",".","3","37","0","568"
"15","15","retrieval","new_object","204","Syrup_Maple.jpg",".",".","37","1","860"
"15","15","retrieval","old_object","205","Teabag.jpg",".","1","36","1","838"
"15","15","retrieval","new_object","206","Statue_SouthAmerican.jpg",".",".","36","0","1193"
"15","15","retrieval","new_object","207","Bindings_Snowboard.jpg",".",".","37","1","716"
"15","15","retrieval","new_object","208","Crutches.jpg",".",".","37","1","918"
"15","15","retrieval","old_object","209","Bottle_Wine.jpg",".","3","36","1","706"
"15","15","retrieval","old_object","210","Speaker_OnStand.jpg",".","1","37","0","1069"
"15","15","retrieval","old_object","211","PassionFruit.jpg",".","1","36","1","807"
"15","15","retrieval","old_object","212","Cantaloupe.jpg",".","3","36","1","634"
"15","15","retrieval","new_object","213","Shield_Antique.jpg",".",".","37","1","1669"
"15","15","retrieval","new_object","214","Baster.jpg",".",".","37","1","631"
"15","15","retrieval","new_object","215","ContactLens.jpg",".",".","37","1","699"
"15","15","retrieval","old_object","216","DrinkingFountain.jpg",".","3","37","0","725"
"15","15","retrieval","new_object","217","Fridge.jpg",".",".","37","1","800"
"15","15","retrieval","new_object","218","BicycleGear.jpg",".",".","37","1","563"
"15","15","retrieval","old_object","219","Chest.jpg",".","3","36","1","678"
"15","15","retrieval","old_object","220","Chest_Toys.jpg",".","1","36","1","768"
"15","15","retrieval","new_object","221","Decoration_WallOrnament.jpg",".",".","37","1","755"
"15","15","retrieval","old_object","222","Candy_Heart.jpg",".","1","36","1","775"
"15","15","retrieval","new_object","223","Cross.jpg",".",".","37","1","825"
"15","15","retrieval","new_object","224","Cabinet_Display.jpg",".",".","36","0","820"
"15","15","retrieval","new_object","225","Hammer.jpg",".",".","37","1","647"
"15","15","retrieval","old_object","226","MonaLisa.jpg",".","3","36","1","689"
"15","15","retrieval","new_object","227","Toy_DollOffice.jpg",".",".","37","1","740"
"15","15","retrieval","new_object","228","KeyHook_Occupied.jpg",".",".","37","1","735"
"15","15","retrieval","new_object","229","Ball_Disco.jpg",".",".","37","1","618"
"15","15","retrieval","new_object","230","ToothPaste.jpg",".",".","37","1","596"
"15","15","retrieval","new_object","231","PanCooking.jpg",".",".","37","1","616"
"15","15","retrieval","new_object","232","Switch_LightWhite.jpg",".",".","37","1","682"
"15","15","retrieval","old_object","233","Pineapple.jpg",".","1","36","1","749"
"15","15","retrieval","new_object","234","ChessPiece_Knight.jpg",".",".","37","1","752"
"15","15","retrieval","new_object","235","CookieCutter_Tree.jpg",".",".","37","1","682"
"15","15","retrieval","new_object","236","Tape_Washi.jpg",".",".","37","1","670"
"15","15","retrieval","old_object","237","Helmet_Soldier.jpg",".","3","37","0","513"
"15","15","retrieval","old_object","238","Nyala.jpg",".","1","36","1","595"
"15","15","retrieval","new_object","239","Toy_BearBlackPlastic.jpg",".",".","37","1","710"
"15","15","retrieval","new_object","240","DivingBoard.jpg",".",".","37","1","777"
"15","15","retrieval","new_object","241","Boardgame_Checkers.jpg",".",".","37","1","772"
"15","15","retrieval","old_object","242","FireExtinguisher.jpg",".","3","36","1","767"
"15","15","retrieval","old_object","243","Knife_Hunting.jpg",".","1","36","1","874"
"15","15","retrieval","old_object","244","BicyclePedal.jpg",".","1","37","0","821"
"15","15","retrieval","new_object","245","Beaker.jpg",".",".","36","0","775"
"15","15","retrieval","new_object","246","DrillBit.jpg",".",".","37","1","594"
"15","15","retrieval","new_object","247","Fencing_HelmetSwords.jpg",".",".","37","1","845"
"15","15","retrieval","old_object","248","Oyster.jpg",".","1","36","1","688"
"15","15","retrieval","new_object","249","ReindeerHeadband.jpg",".",".","37","1","643"
"15","15","retrieval","new_object","250","Brooch_Fish.jpg",".",".","37","1","630"
"15","15","retrieval","new_object","251","Bottle_Specimen.jpg",".",".","37","1","600"
"15","15","retrieval","new_object","252","Icepick.jpg",".",".","37","1","907"
"15","15","retrieval","new_object","253","Toy_TableSet.jpg",".",".","37","1","679"
"15","15","retrieval","old_object","254","Drink_Green.jpg",".","1","36","1","968"
"15","15","retrieval","old_object","255","Light_Siren.jpg",".","3","36","1","1068"
"15","15","retrieval","old_object","256","Pipe_Drain.jpg",".","3","37","0","1303"
"15","15","retrieval","old_object","257","Phone_Wireless.jpg",".","1","36","1","1353"
"15","15","retrieval","old_object","258","NailPolish.jpg",".","1","36","1","1460"
"15","15","retrieval","old_object","259","NeedlesAcupuncture.jpg",".","1","37","0","952"
