"group","subject","blockcode","trialcode","trialnum","stimulus","encoding_condition","old_object_condition","response","correct","latency"
"22","22","encoding","encoding","1","Hippopotamus.jpg","1",".","0","0","1000"
"22","22","encoding","encoding","2","BusStop.jpg","3",".","37","0","350"
"22","22","encoding","encoding","3","Bottle_Blue.jpg","1",".","0","0","1000"
"22","22","encoding","encoding","4","NeedlesAcupuncture.jpg","1",".","0","0","1000"
"22","22","encoding","encoding","5","LeatherPuncherTool.jpg","1",".","37","0","954"
"22","22","encoding","encoding","6","Bottle_Wine.jpg","3",".","37","0","921"
"22","22","encoding","encoding","7","Dress_Party.jpg","3",".","0","0","1000"
"22","22","encoding","encoding","8","Flute_Wooden.jpg","3",".","0","0","1000"
"22","22","encoding","encoding","9","Knife_Hunting.jpg","1",".","0","0","1000"
"22","22","encoding","encoding","10","Knee.jpg","1",".","0","0","1000"
"22","22","encoding","encoding","11","Bottle_Wine.jpg","3",".","0","0","1000"
"22","22","encoding","encoding","12","Mug_Beer.jpg","3",".","0","0","1000"
"22","22","encoding","encoding","13","Toy_RockingHorseBlack.jpg","3",".","0","0","1000"
"22","22","encoding","encoding","14","MixingGlass.jpg","3",".","37","0","953"
"22","22","encoding","encoding","15","MonaLisa.jpg","3",".","0","0","1000"
"22","22","encoding","encoding","16","Tripod.jpg","3",".","37","0","945"
"22","22","encoding","encoding","17","Sign_Wetfloor.jpg","1",".","0","0","1000"
"22","22","encoding","encoding","18","SmokeDetector.jpg","3",".","37","0","810"
"22","22","encoding","encoding","19","CookieCutter_Bell.jpg","3",".","37","0","860"
"22","22","encoding","encoding","20","DogTreat.jpg","3",".","0","0","1000"
"22","22","encoding","encoding","21","Shampoo.jpg","1",".","0","0","1000"
"22","22","encoding","encoding","22","Chest_Toys.jpg","1",".","0","0","1000"
"22","22","encoding","encoding","23","Light_Siren.jpg","3",".","37","0","897"
"22","22","encoding","encoding","24","Leaf_Clover.jpg","3",".","36","0","923"
"22","22","encoding","encoding","25","Fish_Rockbass.jpg","3",".","0","0","1000"
"22","22","encoding","encoding","26","Exercise_Stretch.jpg","3",".","0","0","1000"
"22","22","encoding","encoding","27","Blanket.jpg","3",".","0","0","1000"
"22","22","encoding","encoding","28","Autocreeper.jpg","3",".","0","0","1000"
"22","22","encoding","encoding","29","Mattress.jpg","1",".","0","0","1000"
"22","22","encoding","encoding","30","Bird_Cardinal.jpg","1",".","0","0","1000"
"22","22","encoding","encoding","31","JukeboxAntique.jpg","1",".","0","0","1000"
"22","22","encoding","encoding","32","BicycleHandleGrip.jpg","3",".","36","0","301"
"22","22","encoding","encoding","33","Chair_BeanBag.jpg","1",".","37","0","882"
"22","22","encoding","encoding","34","Fruit_Cactus.jpg","3",".","0","0","1000"
"22","22","encoding","encoding","35","Autocreeper.jpg","3",".","0","0","1000"
"22","22","encoding","encoding","36","Pitcher.jpg","3",".","0","0","1000"
"22","22","encoding","encoding","37","ShoulderPads.jpg","3",".","0","0","1000"
"22","22","encoding","encoding","38","Saw.jpg","3",".","0","0","1000"
"22","22","encoding","encoding","39","Mitt_Oven.jpg","3",".","0","0","1000"
"22","22","encoding","encoding","40","Exercise_Stretch.jpg","3",".","37","0","911"
"22","22","encoding","encoding","41","Pipe_Drain.jpg","3",".","37","0","914"
"22","22","encoding","encoding","42","Candy_Chocolate.jpg","3",".","0","0","1000"
"22","22","encoding","encoding","43","Fuse.jpg","1",".","0","0","1000"
"22","22","encoding","encoding","44","Guitar_Acoustic.jpg","3",".","37","0","911"
"22","22","encoding","encoding","45","Toy_BlocksPlastic Colourful.jpg","3",".","37","0","961"
"22","22","encoding","encoding","46","DentistOverheadLight.jpg","3",".","37","0","940"
"22","22","encoding","encoding","47","Pineapple.jpg","1",".","0","0","1000"
"22","22","encoding","encoding","48","Golf_Bag.jpg","3",".","37","0","846"
"22","22","encoding","encoding","49","BicycleBrake.jpg","3",".","37","0","878"
"22","22","encoding","encoding","50","Shoes_DutchClogs.jpg","3",".","37","0","913"
"22","22","encoding","encoding","51","Box_Jewellery.jpg","3",".","37","0","797"
"22","22","encoding","encoding","52","DrinkingFountain.jpg","3",".","37","0","813"
"22","22","encoding","encoding","53","Bullet.jpg","1",".","37","0","944"
"22","22","encoding","encoding","54","WireStripper.jpg","3",".","37","0","939"
"22","22","encoding","encoding","55","Toys_Lego.jpg","3",".","37","0","926"
"22","22","encoding","encoding","56","Toy_Moose.jpg","1",".","0","0","1000"
"22","22","encoding","encoding","57","Tickets_Blank.jpg","1",".","37","0","863"
"22","22","encoding","encoding","58","Speaker_OnStand.jpg","1",".","37","0","743"
"22","22","encoding","encoding","59","Lock_Combination.jpg","3",".","37","0","826"
"22","22","encoding","encoding","60","Helmet_Construction.jpg","3",".","0","0","1000"
"22","22","encoding","encoding","61","Mitt_Oven.jpg","3",".","37","0","958"
"22","22","encoding","encoding","62","Megaphone.jpg","1",".","0","0","1000"
"22","22","encoding","encoding","63","DoorBell.jpg","3",".","37","0","852"
"22","22","encoding","encoding","64","Flamingo_Cartoon.jpg","3",".","36","0","896"
"22","22","encoding","encoding","65","Table_Poker.jpg","3",".","37","0","961"
"22","22","encoding","encoding","67","Apple_RedAndGreen.jpg","3",".","0","0","1000"
"22","22","encoding","encoding","68","Golf_Bag.jpg","3",".","37","0","754"
"22","22","encoding","encoding","69","Thermostat_Digital.jpg","3",".","37","0","905"
"22","22","encoding","encoding","70","CandyDispenser.jpg","3",".","0","0","1000"
"22","22","encoding","encoding","71","Cup_Styrofoam.jpg","1",".","37","0","768"
"22","22","encoding","encoding","72","Paratrooper.jpg","1",".","37","0","444"
"22","22","encoding","encoding","73","Helmet_Soldier.jpg","3",".","37","0","184"
"22","22","encoding","encoding","74","Flute_Wooden.jpg","3",".","37","0","823"
"22","22","encoding","encoding","75","NintendoWii.jpg","1",".","37","0","817"
"22","22","encoding","encoding","76","Clip_Paper.jpg","1",".","0","0","1000"
"22","22","encoding","encoding","77","Candy_Chocolate.jpg","3",".","0","0","1000"
"22","22","encoding","encoding","78","Fortress.jpg","3",".","0","0","1000"
"22","22","encoding","encoding","79","DrinkingFountain.jpg","3",".","37","0","56"
"22","22","encoding","encoding","80","SmokeDetector.jpg","3",".","37","0","776"
"22","22","encoding","encoding","81","Lantern_TeaBox.jpg","3",".","37","0","873"
"22","22","encoding","encoding","82","Fortress.jpg","3",".","37","0","780"
"22","22","encoding","encoding","83","Shoes_DutchClogs.jpg","3",".","37","0","676"
"22","22","encoding","encoding","84","Helmet_Construction.jpg","3",".","37","0","861"
"22","22","encoding","encoding","85","Helmet_Soldier.jpg","3",".","37","0","870"
"22","22","encoding","encoding","86","HairDryer.jpg","3",".","37","0","720"
"22","22","encoding","encoding","87","PassionFruit.jpg","1",".","37","0","760"
"22","22","encoding","encoding","88","Ashtray_Empty.jpg","1",".","37","0","861"
"22","22","encoding","encoding","89","Hook_Fish.jpg","1",".","0","0","1000"
"22","22","encoding","encoding","90","CameoPortrait.jpg","3",".","37","0","984"
"22","22","encoding","encoding","91","DogTreat.jpg","3",".","37","0","844"
"22","22","encoding","encoding","92","Keg.jpg","3",".","37","0","731"
"22","22","encoding","encoding","93","IceCream_Chocolate.jpg","3",".","37","0","669"
"22","22","encoding","encoding","94","Mop.jpg","3",".","0","0","1000"
"22","22","encoding","encoding","95","Teabag.jpg","1",".","0","0","1000"
"22","22","encoding","encoding","96","Toy_RockingHorseBlack.jpg","3",".","37","0","918"
"22","22","encoding","encoding","97","Box_Floral.jpg","1",".","37","0","970"
"22","22","encoding","encoding","98","Flamingo_Cartoon.jpg","3",".","0","0","1000"
"22","22","encoding","encoding","99","DentistOverheadLight.jpg","3",".","37","0","904"
"22","22","encoding","encoding","100","AmpMeter.jpg","1",".","37","0","928"
"22","22","encoding","encoding","101","Toys_Lego.jpg","3",".","0","0","1000"
"22","22","encoding","encoding","102","WashRack.jpg","3",".","37","0","893"
"22","22","encoding","encoding","103","SmokeDetector.jpg","3",".","37","0","856"
"22","22","encoding","encoding","104","ShoulderPads.jpg","3",".","37","0","978"
"22","22","encoding","encoding","105","MonaLisa.jpg","3",".","0","0","1000"
"22","22","encoding","encoding","106","Cassette_Audio.jpg","1",".","37","0","889"
"22","22","encoding","encoding","107","Mango.jpg","3",".","37","0","815"
"22","22","encoding","encoding","108","Sushi.jpg","3",".","0","0","1000"
"22","22","encoding","encoding","109","Fish_Rockbass.jpg","3",".","0","0","1000"
"22","22","encoding","encoding","110","Bowl_Chinese.jpg","1",".","0","0","1000"
"22","22","encoding","encoding","111","Lollipop_Grape.jpg","3",".","0","0","1000"
"22","22","encoding","encoding","112","NailPolish.jpg","1",".","37","0","925"
"22","22","encoding","encoding","113","GPS.jpg","1",".","0","0","1000"
"22","22","encoding","encoding","114","WashRack.jpg","3",".","37","0","838"
"22","22","encoding","encoding","115","Helmet_Soldier.jpg","3",".","37","0","938"
"22","22","encoding","encoding","116","Flute_Wooden.jpg","3",".","37","0","841"
"22","22","encoding","encoding","117","BusStop.jpg","3",".","0","0","1000"
"22","22","encoding","encoding","118","ButterDish.jpg","3",".","0","0","1000"
"22","22","encoding","encoding","119","Bellows.jpg","1",".","37","0","974"
"22","22","encoding","encoding","120","CameoPortrait.jpg","3",".","0","0","1000"
"22","22","encoding","encoding","121","BusStop.jpg","3",".","37","0","840"
"22","22","encoding","encoding","122","Almond.jpg","3",".","37","0","710"
"22","22","encoding","encoding","123","Toys_Lego.jpg","3",".","37","0","739"
"22","22","encoding","encoding","124","Trumpet.jpg","1",".","37","0","672"
"22","22","encoding","encoding","125","BicycleBrake.jpg","3",".","37","0","701"
"22","22","encoding","encoding","126","Table_Poker.jpg","3",".","37","0","568"
"22","22","encoding","encoding","127","Glove_Rubber.jpg","1",".","0","0","1000"
"22","22","encoding","encoding","128","Toy_BlocksPlastic Colourful.jpg","3",".","37","0","855"
"22","22","encoding","encoding","129","Desk_School.jpg","1",".","0","0","1000"
"22","22","encoding","encoding","130","fries.jpg","3",".","0","0","1000"
"22","22","encoding","encoding","131","TinChristmas.jpg","3",".","37","0","909"
"22","22","encoding","encoding","133","DoorKnob.jpg","1",".","0","0","1000"
"22","22","encoding","encoding","134","Tripod.jpg","3",".","37","0","941"
"22","22","encoding","encoding","135","Chair_MedicalToilet.jpg","3",".","37","0","939"
"22","22","encoding","encoding","136","Spoons_MeasuringDetached.jpg","3",".","37","0","893"
"22","22","encoding","encoding","137","Toy_Shapesorter.jpg","3",".","37","0","859"
"22","22","encoding","encoding","138","Golf_Bag.jpg","3",".","37","0","698"
"22","22","encoding","encoding","139","Colander.jpg","3",".","37","0","693"
"22","22","encoding","encoding","140","Car_Sedan.jpg","1",".","37","0","737"
"22","22","encoding","encoding","141","Exercise_Stretch.jpg","3",".","37","0","868"
"22","22","encoding","encoding","142","Shoes_DutchClogs.jpg","3",".","37","0","917"
"22","22","encoding","encoding","143","BicycleBrake.jpg","3",".","37","0","819"
"22","22","encoding","encoding","144","Toy_Shapesorter.jpg","3",".","37","0","951"
"22","22","encoding","encoding","145","Fruit_Cactus.jpg","3",".","36","0","878"
"22","22","encoding","encoding","146","IceCrusher.jpg","1",".","37","0","882"
"22","22","encoding","encoding","147","Chest.jpg","3",".","37","0","769"
"22","22","encoding","encoding","148","FlashlightHeadBand.jpg","3",".","37","0","736"
"22","22","encoding","encoding","149","Fish_Rockbass.jpg","3",".","37","0","781"
"22","22","encoding","encoding","150","Phone_Wireless.jpg","1",".","37","0","819"
"22","22","encoding","encoding","151","DentistOverheadLight.jpg","3",".","37","0","842"
"22","22","encoding","encoding","152","Sushi.jpg","3",".","0","0","1000"
"22","22","encoding","encoding","153","Notebook.jpg","3",".","0","0","1000"
"22","22","encoding","encoding","154","Steeple.jpg","1",".","37","0","911"
"22","22","encoding","encoding","155","Hammer_Reflex.jpg","3",".","37","0","954"
"22","22","encoding","encoding","156","MonkeyPuppet.jpg","1",".","37","0","821"
"22","22","encoding","encoding","157","BicycleHandleGrip.jpg","3",".","37","0","865"
"22","22","encoding","encoding","158","PotatoMasher_Zigzag.jpg","1",".","37","0","717"
"22","22","encoding","encoding","159","fries.jpg","3",".","37","0","952"
"22","22","encoding","encoding","160","BottleOpener.jpg","3",".","37","0","946"
"22","22","encoding","encoding","161","Mug_Beer.jpg","3",".","37","0","785"
"22","22","encoding","encoding","162","Toy_StackingRing.jpg","1",".","37","0","868"
"22","22","encoding","encoding","163","Lollipop_Grape.jpg","3",".","0","0","1000"
"22","22","encoding","encoding","164","Mango.jpg","3",".","0","0","1000"
"22","22","encoding","encoding","165","Colander.jpg","3",".","37","0","826"
"22","22","encoding","encoding","166","Lilypad.jpg","1",".","0","0","1000"
"22","22","encoding","encoding","167","CandyDispenser.jpg","3",".","0","0","1000"
"22","22","encoding","encoding","168","BottleOpener.jpg","3",".","0","0","1000"
"22","22","encoding","encoding","169","Flamingo_Cartoon.jpg","3",".","0","0","1000"
"22","22","encoding","encoding","170","Candy_Heart.jpg","1",".","0","0","1000"
"22","22","encoding","encoding","171","GasBurner.jpg","3",".","37","0","848"
"22","22","encoding","encoding","172","DogTreat.jpg","3",".","0","0","1000"
"22","22","encoding","encoding","173","Sushi.jpg","3",".","0","0","1000"
"22","22","encoding","encoding","174","Table_Poker.jpg","3",".","0","0","1000"
"22","22","encoding","encoding","175","Cantaloupe.jpg","3",".","0","0","1000"
"22","22","encoding","encoding","176","ShoulderPads.jpg","3",".","0","0","1000"
"22","22","encoding","encoding","177","Keg.jpg","3",".","37","0","779"
"22","22","encoding","encoding","178","BicyclePedal.jpg","1",".","37","0","727"
"22","22","encoding","encoding","179","Candle_Blue.jpg","3",".","37","0","345"
"22","22","encoding","encoding","180","WindowBlinds.jpg","1",".","37","0","789"
"22","22","encoding","encoding","181","Cake_Wedding.jpg","3",".","0","0","1000"
"22","22","encoding","encoding","182","Almond.jpg","3",".","37","0","826"
"22","22","encoding","encoding","183","ButterDish.jpg","3",".","37","0","908"
"22","22","encoding","encoding","184","MouthGuard.jpg","1",".","37","0","904"
"22","22","encoding","encoding","185","Candy_Chocolate.jpg","3",".","0","0","1000"
"22","22","encoding","encoding","186","Mitt_Oven.jpg","3",".","37","0","947"
"22","22","encoding","encoding","187","Peppermill.jpg","3",".","0","0","1000"
"22","22","encoding","encoding","188","Skates.jpg","1",".","37","0","841"
"22","22","encoding","encoding","189","Mug_Beer.jpg","3",".","0","0","1000"
"22","22","encoding","encoding","190","Keg.jpg","3",".","37","0","463"
"22","22","encoding","encoding","191","Hammer_Reflex.jpg","3",".","36","0","980"
"22","22","encoding","encoding","192","Light_Siren.jpg","3",".","0","0","1000"
"22","22","encoding","encoding","193","Jar_JellyBeans.jpg","1",".","0","0","1000"
"22","22","encoding","encoding","194","WireStripper.jpg","3",".","0","0","1000"
"22","22","encoding","encoding","195","Mop.jpg","3",".","37","0","921"
"22","22","encoding","encoding","196","Toy_Witch.jpg","1",".","0","0","1000"
"22","22","encoding","encoding","197","TinChristmas.jpg","3",".","37","0","960"
"22","22","encoding","encoding","199","Mop.jpg","3",".","0","0","1000"
"22","22","encoding","encoding","200","SculptureMetalFish.jpg","3",".","0","0","1000"
"22","22","encoding","encoding","201","Mask_Happy.jpg","3",".","37","0","962"
"22","22","encoding","encoding","202","Mask_Happy.jpg","3",".","37","0","780"
"22","22","encoding","encoding","203","Chair_MedicalToilet.jpg","3",".","37","0","804"
"22","22","encoding","encoding","204","Pitcher.jpg","3",".","37","0","918"
"22","22","encoding","encoding","205","CookieCutter_Bell.jpg","3",".","37","0","808"
"22","22","encoding","encoding","206","Lantern_TeaBox.jpg","3",".","37","0","805"
"22","22","encoding","encoding","207","IceCream_Chocolate.jpg","3",".","0","0","1000"
"22","22","encoding","encoding","208","Bottle_Wine.jpg","3",".","37","0","768"
"22","22","encoding","encoding","209","PaintRollTray.jpg","1",".","37","0","957"
"22","22","encoding","encoding","210","Hammer_Reflex.jpg","3",".","0","0","1000"
"22","22","encoding","encoding","211","Apple_RedAndGreen.jpg","3",".","0","0","1000"
"22","22","encoding","encoding","212","Thermostat_Digital.jpg","3",".","0","0","1000"
"22","22","encoding","encoding","213","DoorBell.jpg","3",".","37","0","972"
"22","22","encoding","encoding","214","Drink_Green.jpg","1",".","0","0","1000"
"22","22","encoding","encoding","215","Toy_BlocksPlastic Colourful.jpg","3",".","37","0","905"
"22","22","encoding","encoding","216","Balalaika.jpg","1",".","37","0","951"
"22","22","encoding","encoding","217","Thermostat_Digital.jpg","3",".","0","0","1000"
"22","22","encoding","encoding","218","HairDryer.jpg","3",".","37","0","823"
"22","22","encoding","encoding","219","Blanket.jpg","3",".","0","0","1000"
"22","22","encoding","encoding","220","Cherry.jpg","1",".","37","0","807"
"22","22","encoding","encoding","221","Oyster.jpg","1",".","36","0","79"
"22","22","encoding","encoding","222","Notebook.jpg","3",".","37","0","853"
"22","22","encoding","encoding","223","WireStripper.jpg","3",".","37","0","681"
"22","22","encoding","encoding","224","Trophy.jpg","1",".","37","0","263"
"22","22","encoding","encoding","225","Guitar_Acoustic.jpg","3",".","0","0","1000"
"22","22","encoding","encoding","226","Toy_Shapesorter.jpg","3",".","37","0","918"
"22","22","encoding","encoding","227","Peppermill.jpg","3",".","37","0","652"
"22","22","encoding","encoding","228","Generator.jpg","1",".","37","0","207"
"22","22","encoding","encoding","229","Cake_Wedding.jpg","3",".","37","0","579"
"22","22","encoding","encoding","230","Guitar_Acoustic.jpg","3",".","0","0","1000"
"22","22","encoding","encoding","231","Lock_Combination.jpg","3",".","37","0","940"
"22","22","encoding","encoding","232","PuppetTheatre_WhiteGold.jpg","1",".","0","0","1000"
"22","22","encoding","encoding","233","MonaLisa.jpg","3",".","37","0","800"
"22","22","encoding","encoding","234","Hourglass.jpg","1",".","37","0","919"
"22","22","encoding","encoding","235","Box_Jewellery.jpg","3",".","0","0","1000"
"22","22","encoding","encoding","236","Cantaloupe.jpg","3",".","0","0","1000"
"22","22","encoding","encoding","237","Candle_Blue.jpg","3",".","36","0","916"
"22","22","encoding","encoding","238","Lantern_TeaBox.jpg","3",".","37","0","727"
"22","22","encoding","encoding","239","Peppermill.jpg","3",".","37","0","728"
"22","22","encoding","encoding","240","WashRack.jpg","3",".","37","0","777"
"22","22","encoding","encoding","241","BottleOpener.jpg","3",".","37","0","818"
"22","22","encoding","encoding","242","Wheelbarrow_Green.jpg","3",".","37","0","869"
"22","22","encoding","encoding","243","FlashlightHeadBand.jpg","3",".","37","0","706"
"22","22","encoding","encoding","244","DoorBell.jpg","3",".","37","0","879"
"22","22","encoding","encoding","245","Nyala.jpg","1",".","0","0","1000"
"22","22","encoding","encoding","246","Almond.jpg","3",".","37","0","698"
"22","22","encoding","encoding","247","Toy_GasPump.jpg","1",".","36","0","0"
"22","22","encoding","encoding","248","Pipe_Drain.jpg","3",".","0","0","1000"
"22","22","encoding","encoding","249","Stove_Camping.jpg","1",".","0","0","1000"
"22","22","encoding","encoding","250","GasBurner.jpg","3",".","37","0","739"
"22","22","encoding","encoding","251","Saw.jpg","3",".","37","0","639"
"22","22","encoding","encoding","252","FireExtinguisher.jpg","3",".","37","0","704"
"22","22","encoding","encoding","253","Bathtub.jpg","3",".","37","0","810"
"22","22","encoding","encoding","254","BadgeSpecialAgent.jpg","1",".","37","0","823"
"22","22","encoding","encoding","255","Mat_Door.jpg","1",".","0","0","1000"
"22","22","encoding","encoding","256","BicycleHandleGrip.jpg","3",".","37","0","816"
"22","22","encoding","encoding","257","Light_Siren.jpg","3",".","37","0","911"
"22","22","encoding","encoding","258","Fruit_Cactus.jpg","3",".","0","0","1000"
"22","22","encoding","encoding","259","Goose_Canadian.jpg","1",".","0","0","1000"
"22","22","encoding","encoding","260","Leaf_Clover.jpg","3",".","36","0","974"
"22","22","encoding","encoding","261","CameoPortrait.jpg","3",".","0","0","1000"
"22","22","encoding","encoding","262","Pants_Jeans.jpg","3",".","0","0","1000"
"22","22","encoding","encoding","263","Saw.jpg","3",".","0","0","1000"
"22","22","encoding","encoding","265","Spoon_Wooden.jpg","1",".","0","0","1000"
"22","22","encoding","encoding","266","Leaf_Clover.jpg","3",".","36","0","973"
"22","22","encoding","encoding","267","IceCream_Chocolate.jpg","3",".","0","0","1000"
"22","22","encoding","encoding","268","Wheelbarrow_Green.jpg","3",".","0","0","1000"
"22","22","encoding","encoding","269","Chest.jpg","3",".","37","0","881"
"22","22","encoding","encoding","270","Notebook.jpg","3",".","37","0","835"
"22","22","encoding","encoding","271","DryRack_Dishes.jpg","1",".","0","0","1000"
"22","22","encoding","encoding","272","Blanket.jpg","3",".","37","0","950"
"22","22","encoding","encoding","273","MixingGlass.jpg","3",".","37","0","738"
"22","22","encoding","encoding","274","Tortilla.jpg","1",".","37","0","861"
"22","22","encoding","encoding","275","SculptureMetalFish.jpg","3",".","37","0","816"
"22","22","encoding","encoding","276","Mango.jpg","3",".","0","0","1000"
"22","22","encoding","encoding","277","Guitarcase.jpg","1",".","37","0","939"
"22","22","encoding","encoding","278","TinChristmas.jpg","3",".","0","0","1000"
"22","22","encoding","encoding","279","Lock_Combination.jpg","3",".","0","0","1000"
"22","22","encoding","encoding","280","Fortress.jpg","3",".","37","0","375"
"22","22","encoding","encoding","281","MixingGlass.jpg","3",".","37","0","836"
"22","22","encoding","encoding","282","Chest.jpg","3",".","37","0","924"
"22","22","encoding","encoding","283","Spoons_MeasuringDetached.jpg","3",".","0","0","1000"
"22","22","encoding","encoding","284","Bathtub.jpg","3",".","37","0","843"
"22","22","encoding","encoding","285","Pitcher.jpg","3",".","0","0","1000"
"22","22","encoding","encoding","286","Colander.jpg","3",".","37","0","89"
"22","22","encoding","encoding","287","CandyDispenser.jpg","3",".","37","0","797"
"22","22","encoding","encoding","288","Beater_Electric.jpg","1",".","37","0","815"
"22","22","encoding","encoding","289","Pants_Jeans.jpg","3",".","37","0","876"
"22","22","encoding","encoding","290","Lollipop_Grape.jpg","3",".","37","0","673"
"22","22","encoding","encoding","291","PaintBrushAndPallette.jpg","1",".","37","0","814"
"22","22","encoding","encoding","292","Sign_Parking.jpg","1",".","37","0","595"
"22","22","encoding","encoding","293","Spoons_MeasuringDetached.jpg","3",".","37","0","207"
"22","22","encoding","encoding","294","Dress_Party.jpg","3",".","37","0","483"
"22","22","encoding","encoding","295","FlashlightHeadBand.jpg","3",".","37","0","618"
"22","22","encoding","encoding","296","Dress_Party.jpg","3",".","37","0","750"
"22","22","encoding","encoding","297","Tripod.jpg","3",".","37","0","925"
"22","22","encoding","encoding","298","Helmet_Construction.jpg","3",".","37","0","782"
"22","22","encoding","encoding","299","Chair_MedicalToilet.jpg","3",".","37","0","641"
"22","22","encoding","encoding","300","TartStrawberry.jpg","1",".","37","0","561"
"22","22","encoding","encoding","301","DrinkingFountain.jpg","3",".","0","0","1000"
"22","22","encoding","encoding","302","Wheelbarrow_Green.jpg","3",".","0","0","1000"
"22","22","encoding","encoding","303","Cantaloupe.jpg","3",".","0","0","1000"
"22","22","encoding","encoding","304","Bathtub.jpg","3",".","0","0","1000"
"22","22","encoding","encoding","305","TeethMould.jpg","1",".","0","0","1000"
"22","22","encoding","encoding","306","Autocreeper.jpg","3",".","37","0","852"
"22","22","encoding","encoding","307","HairDryer.jpg","3",".","37","0","889"
"22","22","encoding","encoding","308","CookieCutter_Bell.jpg","3",".","37","0","916"
"22","22","encoding","encoding","309","fries.jpg","3",".","0","0","1000"
"22","22","encoding","encoding","310","Apple_RedAndGreen.jpg","3",".","37","0","696"
"22","22","encoding","encoding","311","FireExtinguisher.jpg","3",".","37","0","979"
"22","22","encoding","encoding","312","SculptureMetalFish.jpg","3",".","37","0","939"
"22","22","encoding","encoding","313","Box_Jewellery.jpg","3",".","37","0","740"
"22","22","encoding","encoding","314","Cake_Wedding.jpg","3",".","37","0","314"
"22","22","encoding","encoding","315","Mask_Happy.jpg","3",".","37","0","664"
"22","22","encoding","encoding","316","Pipe_Drain.jpg","3",".","37","0","788"
"22","22","encoding","encoding","317","FireExtinguisher.jpg","3",".","0","0","1000"
"22","22","encoding","encoding","318","ButterDish.jpg","3",".","37","0","894"
"22","22","encoding","encoding","319","Toy_RockingHorseBlack.jpg","3",".","37","0","713"
"22","22","encoding","encoding","320","GasBurner.jpg","3",".","0","0","1000"
"22","22","encoding","encoding","321","StringBean.jpg","1",".","0","0","1000"
"22","22","encoding","encoding","322","Pants_Jeans.jpg","3",".","0","0","1000"
"22","22","encoding","encoding","323","RemoteControl.jpg","1",".","37","0","830"
"22","22","encoding","encoding","324","Candle_Blue.jpg","3",".","37","0","659"
"22","22","encoding","encoding","325","Hippopotamus.jpg","",".","0","0","1000"
"22","22","retrieval","new_object","1","Bandage_Wrap.jpg",".",".","37","1","1695"
"22","22","retrieval","old_object","2","Car_Sedan.jpg",".","1","37","0","1270"
"22","22","retrieval","old_object","3","Lock_Combination.jpg",".","3","37","0","841"
"22","22","retrieval","old_object","4","Bottle_Blue.jpg",".","1","37","0","795"
"22","22","retrieval","new_object","5","Sock_Ankle.jpg",".",".","37","1","1087"
"22","22","retrieval","old_object","6","Bowl_Chinese.jpg",".","1","37","0","956"
"22","22","retrieval","old_object","7","Trumpet.jpg",".","1","37","0","842"
"22","22","retrieval","new_object","8","SundaeBanana.jpg",".",".","37","1","903"
"22","22","retrieval","old_object","9","Hook_Fish.jpg",".","1","37","0","722"
"22","22","retrieval","new_object","10","Can_OilSpout.jpg",".",".","37","1","940"
"22","22","retrieval","old_object","11","Toys_Lego.jpg",".","3","37","0","890"
"22","22","retrieval","old_object","12","Keg.jpg",".","3","37","0","1479"
"22","22","retrieval","new_object","13","Case_DVD.jpg",".",".","37","1","794"
"22","22","retrieval","new_object","14","Bench_Wooden.jpg",".",".","37","1","826"
"22","22","retrieval","new_object","15","TurkeyDinner.jpg",".",".","0","0","2000"
"22","22","retrieval","old_object","16","Flamingo_Cartoon.jpg",".","3","36","1","1007"
"22","22","retrieval","old_object","17","BadgeSpecialAgent.jpg",".","1","37","0","1059"
"22","22","retrieval","old_object","18","Hourglass.jpg",".","1","36","1","806"
"22","22","retrieval","new_object","19","Dress_Blue.jpg",".",".","37","1","1178"
"22","22","retrieval","old_object","20","Knee.jpg",".","1","37","0","1754"
"22","22","retrieval","new_object","21","Makeup_Foundation.jpg",".",".","37","1","1012"
"22","22","retrieval","new_object","22","Flower_Hibiscus.jpg",".",".","0","0","2000"
"22","22","retrieval","new_object","23","Brooch_Fish.jpg",".",".","0","0","2000"
"22","22","retrieval","new_object","24","Arch.jpg",".",".","37","1","1210"
"22","22","retrieval","old_object","25","Spoon_Wooden.jpg",".","1","37","0","167"
"22","22","retrieval","old_object","26","Bullet.jpg",".","1","37","0","296"
"22","22","retrieval","old_object","27","Lantern_TeaBox.jpg",".","3","36","1","541"
"22","22","retrieval","new_object","28","Tweezers.jpg",".",".","0","0","2000"
"22","22","retrieval","new_object","29","Cannister_Gas.jpg",".",".","37","1","216"
"22","22","retrieval","new_object","30","SaxophoneSoprano.jpg",".",".","37","1","908"
"22","22","retrieval","old_object","31","Apple_RedAndGreen.jpg",".","3","37","0","1287"
"22","22","retrieval","old_object","32","Guitarcase.jpg",".","1","37","0","1022"
"22","22","retrieval","old_object","33","Mug_Beer.jpg",".","3","0","0","2000"
"22","22","retrieval","old_object","34","Box_Jewellery.jpg",".","3","37","0","1823"
"22","22","retrieval","new_object","35","Pasta_Spaghetti.jpg",".",".","37","1","873"
"22","22","retrieval","old_object","36","Autocreeper.jpg",".","3","0","0","2000"
"22","22","retrieval","old_object","37","RemoteControl.jpg",".","1","0","0","2000"
"22","22","retrieval","new_object","38","MobilityScooter.jpg",".",".","37","1","1027"
"22","22","retrieval","new_object","39","Toy_PoliceCar.jpg",".",".","37","1","82"
"22","22","retrieval","new_object","40","Gorilla.jpg",".",".","37","1","188"
"22","22","retrieval","new_object","41","Playground.jpg",".",".","37","1","1059"
"22","22","retrieval","new_object","42","SafetyPin.jpg",".",".","37","1","917"
"22","22","retrieval","new_object","43","Toy_BearBlackPlastic.jpg",".",".","36","0","1281"
"22","22","retrieval","new_object","44","ReindeerHeadband.jpg",".",".","36","0","1370"
"22","22","retrieval","new_object","45","CookieCutter_Tree.jpg",".",".","0","0","2000"
"22","22","retrieval","new_object","46","Switch_LightWhite.jpg",".",".","37","1","1432"
"22","22","retrieval","old_object","47","Skates.jpg",".","1","0","0","2000"
"22","22","retrieval","new_object","48","Hoverboard.jpg",".",".","37","1","769"
"22","22","retrieval","new_object","49","Carbiner_Ascender.jpg",".",".","37","1","1304"
"22","22","retrieval","new_object","50","Hat_Baseball.jpg",".",".","37","1","1051"
"22","22","retrieval","new_object","51","Exercise_Machine.jpg",".",".","37","1","853"
"22","22","retrieval","new_object","52","ElasticBand.jpg",".",".","37","1","929"
"22","22","retrieval","new_object","53","Bell_Hand.jpg",".",".","37","1","804"
"22","22","retrieval","new_object","54","Toy_SeeSaw.jpg",".",".","0","0","2000"
"22","22","retrieval","new_object","55","Broom_Long.jpg",".",".","0","0","2000"
"22","22","retrieval","old_object","56","TartStrawberry.jpg",".","1","0","0","2000"
"22","22","retrieval","old_object","57","Spoons_MeasuringDetached.jpg",".","3","37","0","615"
"22","22","retrieval","new_object","58","Thermostat.jpg",".",".","37","1","918"
"22","22","retrieval","old_object","59","JukeboxAntique.jpg",".","1","0","0","2000"
"22","22","retrieval","new_object","60","Beaker.jpg",".",".","0","0","2000"
"22","22","retrieval","new_object","61","SkullDeer.jpg",".",".","37","1","1017"
"22","22","retrieval","new_object","62","Statue_SouthAmerican.jpg",".",".","37","1","905"
"22","22","retrieval","old_object","63","DryRack_Dishes.jpg",".","1","0","0","2000"
"22","22","retrieval","old_object","64","Chair_BeanBag.jpg",".","1","0","0","2000"
"22","22","retrieval","old_object","65","Tickets_Blank.jpg",".","1","0","0","2000"
"22","22","retrieval","new_object","67","Seashell_AlternateTellin.jpg",".",".","0","0","2000"
"22","22","retrieval","old_object","68","Table_Poker.jpg",".","3","37","0","848"
"22","22","retrieval","new_object","69","Tribunal_Wooden.jpg",".",".","37","1","74"
"22","22","retrieval","old_object","70","DoorKnob.jpg",".","1","37","0","214"
"22","22","retrieval","old_object","71","PotatoMasher_Zigzag.jpg",".","1","36","1","26"
"22","22","retrieval","new_object","72","Toy_Lighthouse.jpg",".",".","37","1","218"
"22","22","retrieval","new_object","73","Pajamas.jpg",".",".","0","0","2000"
"22","22","retrieval","old_object","74","DogTreat.jpg",".","3","37","0","716"
"22","22","retrieval","old_object","75","MonkeyPuppet.jpg",".","1","37","0","266"
"22","22","retrieval","new_object","76","Cross.jpg",".",".","37","1","146"
"22","22","retrieval","old_object","77","HairDryer.jpg",".","3","36","1","298"
"22","22","retrieval","old_object","78","TeethMould.jpg",".","1","36","1","58"
"22","22","retrieval","new_object","79","Tofu.jpg",".",".","37","1","408"
"22","22","retrieval","new_object","80","Loofa.jpg",".",".","0","0","2000"
"22","22","retrieval","new_object","81","OnionRed.jpg",".",".","36","0","1418"
"22","22","retrieval","old_object","82","Helmet_Construction.jpg",".","3","37","0","1083"
"22","22","retrieval","old_object","83","Ashtray_Empty.jpg",".","1","37","0","1022"
"22","22","retrieval","old_object","84","Shoes_DutchClogs.jpg",".","3","37","0","735"
"22","22","retrieval","new_object","85","Toy_DollOffice.jpg",".",".","37","1","1544"
"22","22","retrieval","new_object","86","SkiPoles.jpg",".",".","37","1","911"
"22","22","retrieval","new_object","87","Cage_Bird.jpg",".",".","37","1","511"
"22","22","retrieval","old_object","88","Leaf_Clover.jpg",".","3","37","0","867"
"22","22","retrieval","old_object","89","Flute_Wooden.jpg",".","3","0","0","2000"
"22","22","retrieval","new_object","90","Waffle.jpg",".",".","0","0","2000"
"22","22","retrieval","old_object","91","IceCream_Chocolate.jpg",".","3","37","0","1732"
"22","22","retrieval","old_object","92","Tortilla.jpg",".","1","36","1","1391"
"22","22","retrieval","new_object","93","Chopsticks.jpg",".",".","0","0","2000"
"22","22","retrieval","new_object","94","CrepeMaker.jpg",".",".","37","1","449"
"22","22","retrieval","old_object","95","DoorBell.jpg",".","3","37","0","837"
"22","22","retrieval","old_object","96","Golf_Bag.jpg",".","3","36","1","807"
"22","22","retrieval","new_object","97","Toy_TableSet.jpg",".",".","37","1","441"
"22","22","retrieval","old_object","98","CameoPortrait.jpg",".","3","37","0","60"
"22","22","retrieval","old_object","99","Glove_Rubber.jpg",".","1","37","0","839"
"22","22","retrieval","old_object","100","Beater_Electric.jpg",".","1","37","0","647"
"22","22","retrieval","new_object","101","Decoration_WallOrnament.jpg",".",".","37","1","161"
"22","22","retrieval","new_object","102","Helmet_Knight.jpg",".",".","0","0","2000"
"22","22","retrieval","old_object","103","Sign_Wetfloor.jpg",".","1","0","0","2000"
"22","22","retrieval","new_object","104","BicycleGear.jpg",".",".","0","0","2000"
"22","22","retrieval","old_object","105","Pitcher.jpg",".","3","37","0","859"
"22","22","retrieval","old_object","106","Cassette_Audio.jpg",".","1","37","0","1236"
"22","22","retrieval","old_object","107","MouthGuard.jpg",".","1","0","0","2000"
"22","22","retrieval","old_object","108","Candy_Chocolate.jpg",".","3","37","0","302"
"22","22","retrieval","old_object","109","WireStripper.jpg",".","3","37","0","94"
"22","22","retrieval","new_object","110","Hockey_Equipment.jpg",".",".","37","1","91"
"22","22","retrieval","old_object","111","Box_Floral.jpg",".","1","37","0","1701"
"22","22","retrieval","new_object","112","CartonEggs.jpg",".",".","37","1","455"
"22","22","retrieval","new_object","113","ShoppingCart.jpg",".",".","37","1","687"
"22","22","retrieval","new_object","114","PropellerFan.jpg",".",".","37","1","180"
"22","22","retrieval","old_object","115","Bathtub.jpg",".","3","37","0","104"
"22","22","retrieval","old_object","116","Thermostat_Digital.jpg",".","3","37","0","1829"
"22","22","retrieval","old_object","117","Cup_Styrofoam.jpg",".","1","0","0","2000"
"22","22","retrieval","old_object","118","Mop.jpg",".","3","37","0","969"
"22","22","retrieval","new_object","119","Hammer.jpg",".",".","37","1","533"
"22","22","retrieval","old_object","120","Mattress.jpg",".","1","36","1","189"
"22","22","retrieval","new_object","121","Bindings_Snowboard.jpg",".",".","37","1","118"
"22","22","retrieval","new_object","122","Sign_TrafficArrow.jpg",".",".","36","0","183"
"22","22","retrieval","old_object","123","Paratrooper.jpg",".","1","37","0","870"
"22","22","retrieval","new_object","124","Boxcutter.jpg",".",".","36","0","465"
"22","22","retrieval","new_object","125","Lighter_Yellow.jpg",".",".","37","1","371"
"22","22","retrieval","old_object","126","Fortress.jpg",".","3","0","0","2000"
"22","22","retrieval","new_object","127","PedestalGreek.jpg",".",".","0","0","2000"
"22","22","retrieval","new_object","128","BicycleChain.jpg",".",".","37","1","1508"
"22","22","retrieval","old_object","129","Shampoo.jpg",".","1","36","1","1"
"22","22","retrieval","new_object","130","Bugle.jpg",".",".","0","0","2000"
"22","22","retrieval","new_object","131","DrillBit.jpg",".",".","36","0","1564"
"22","22","retrieval","new_object","133","Caterpillar.jpg",".",".","37","1","326"
"22","22","retrieval","new_object","134","Screw.jpg",".",".","37","1","1288"
"22","22","retrieval","old_object","135","Mango.jpg",".","3","36","1","109"
"22","22","retrieval","old_object","136","Peppermill.jpg",".","3","36","1","191"
"22","22","retrieval","old_object","137","Candle_Blue.jpg",".","3","36","1","153"
"22","22","retrieval","old_object","138","Goose_Canadian.jpg",".","1","36","1","69"
"22","22","retrieval","new_object","139","DivingBoard.jpg",".",".","36","0","152"
"22","22","retrieval","new_object","140","Cabinet_Display.jpg",".",".","37","1","520"
"22","22","retrieval","old_object","141","Toy_StackingRing.jpg",".","1","37","0","201"
"22","22","retrieval","new_object","142","LampPost_OneBulb.jpg",".",".","36","0","62"
"22","22","retrieval","old_object","143","fries.jpg",".","3","36","1","235"
"22","22","retrieval","new_object","144","Toolbox_Old.jpg",".",".","37","1","65"
"22","22","retrieval","new_object","145","Strainer_Tea.jpg",".",".","37","1","426"
"22","22","retrieval","old_object","146","Sign_Parking.jpg",".","1","36","1","0"
"22","22","retrieval","new_object","147","Pen_Ballpoint.jpg",".",".","37","1","245"
"22","22","retrieval","new_object","148","AnsweringMachine.jpg",".",".","37","1","1397"
"22","22","retrieval","old_object","149","Toy_BlocksPlastic Colourful.jpg",".","3","37","0","533"
"22","22","retrieval","old_object","150","GasBurner.jpg",".","3","37","0","1"
"22","22","retrieval","old_object","151","PaintBrushAndPallette.jpg",".","1","37","0","152"
"22","22","retrieval","old_object","152","Bird_Cardinal.jpg",".","1","37","0","160"
"22","22","retrieval","old_object","153","Colander.jpg",".","3","37","0","90"
"22","22","retrieval","old_object","154","NintendoWii.jpg",".","1","37","0","286"
"22","22","retrieval","old_object","155","Sushi.jpg",".","3","37","0","40"
"22","22","retrieval","old_object","156","FlashlightHeadBand.jpg",".","3","37","0","53"
"22","22","retrieval","old_object","157","ButterDish.jpg",".","3","37","0","219"
"22","22","retrieval","new_object","158","CoffeeGrinder.jpg",".",".","37","1","63"
"22","22","retrieval","old_object","159","Hippopotamus.jpg",".","1","37","0","172"
"22","22","retrieval","new_object","160","Baster.jpg",".",".","37","1","514"
"22","22","retrieval","new_object","161","Wheel_Steering.jpg",".",".","37","1","780"
"22","22","retrieval","new_object","162","ChessPiece_Knight.jpg",".",".","37","1","730"
"22","22","retrieval","new_object","163","Tire_Hollow.jpg",".",".","37","1","1390"
"22","22","retrieval","old_object","164","GPS.jpg",".","1","37","0","66"
"22","22","retrieval","old_object","165","Desk_School.jpg",".","1","37","0","0"
"22","22","retrieval","new_object","166","BloodpPresureCuff.jpg",".",".","37","1","670"
"22","22","retrieval","old_object","167","Fuse.jpg",".","1","37","0","135"
"22","22","retrieval","old_object","168","Jar_JellyBeans.jpg",".","1","37","0","446"
"22","22","retrieval","old_object","169","PaintRollTray.jpg",".","1","37","0","777"
"22","22","retrieval","old_object","170","Saw.jpg",".","3","37","0","1099"
"22","22","retrieval","old_object","171","Bellows.jpg",".","1","37","0","159"
"22","22","retrieval","new_object","172","GranolaBar.jpg",".",".","37","1","83"
"22","22","retrieval","old_object","173","Pants_Jeans.jpg",".","3","36","1","0"
"22","22","retrieval","new_object","174","Dolphine.jpg",".",".","37","1","101"
"22","22","retrieval","new_object","175","Pig.jpg",".",".","0","0","2000"
"22","22","retrieval","old_object","176","Blanket.jpg",".","3","37","0","1399"
"22","22","retrieval","old_object","177","Wheelbarrow_Green.jpg",".","3","37","0","1361"
"22","22","retrieval","old_object","178","Toy_RockingHorseBlack.jpg",".","3","0","0","2000"
"22","22","retrieval","new_object","179","Fridge.jpg",".",".","37","1","102"
"22","22","retrieval","new_object","180","Comb.jpg",".",".","36","0","275"
"22","22","retrieval","old_object","181","SmokeDetector.jpg",".","3","36","1","73"
"22","22","retrieval","new_object","182","Syrup_Maple.jpg",".",".","37","1","177"
"22","22","retrieval","old_object","183","Toy_Shapesorter.jpg",".","3","0","0","2000"
"22","22","retrieval","old_object","184","Mask_Happy.jpg",".","3","0","0","2000"
"22","22","retrieval","old_object","185","BicycleHandleGrip.jpg",".","3","0","0","2000"
"22","22","retrieval","old_object","186","Teabag.jpg",".","1","0","0","2000"
"22","22","retrieval","old_object","187","Bottle_Wine.jpg",".","3","0","0","2000"
"22","22","retrieval","new_object","188","PanCooking.jpg",".",".","0","0","2000"
"22","22","retrieval","new_object","189","Icepick.jpg",".",".","0","0","2000"
"22","22","retrieval","old_object","190","Speaker_OnStand.jpg",".","1","37","0","617"
"22","22","retrieval","new_object","191","Spatula_1.jpg",".",".","36","0","158"
"22","22","retrieval","new_object","192","Pipe.jpg",".",".","36","0","36"
"22","22","retrieval","old_object","193","PassionFruit.jpg",".","1","37","0","132"
"22","22","retrieval","new_object","194","CuttingBoard.jpg",".",".","36","0","35"
"22","22","retrieval","new_object","195","Lamp_TableWhite.jpg",".",".","37","1","0"
"22","22","retrieval","old_object","196","Cantaloupe.jpg",".","3","37","0","40"
"22","22","retrieval","old_object","197","DrinkingFountain.jpg",".","3","36","1","142"
"22","22","retrieval","new_object","199","Truck_Dump.jpg",".",".","0","0","2000"
"22","22","retrieval","new_object","200","BoogieBoard.jpg",".",".","0","0","2000"
"22","22","retrieval","new_object","201","Bottle_BubbleBlower.jpg",".",".","0","0","2000"
"22","22","retrieval","new_object","202","Knife_Butter.jpg",".",".","0","0","2000"
"22","22","retrieval","old_object","203","Chest.jpg",".","3","0","0","2000"
"22","22","retrieval","old_object","204","Chest_Toys.jpg",".","1","0","0","2000"
"22","22","retrieval","new_object","205","Cabinet_Office.jpg",".",".","0","0","2000"
"22","22","retrieval","old_object","206","Candy_Heart.jpg",".","1","0","0","2000"
"22","22","retrieval","new_object","207","Jar_Cotton.jpg",".",".","0","0","2000"
"22","22","retrieval","new_object","208","Shield_Antique.jpg",".",".","0","0","2000"
"22","22","retrieval","new_object","209","Socks_Winter.jpg",".",".","0","0","2000"
"22","22","retrieval","old_object","210","MonaLisa.jpg",".","3","0","0","2000"
"22","22","retrieval","old_object","211","Pineapple.jpg",".","1","0","0","2000"
"22","22","retrieval","old_object","212","Helmet_Soldier.jpg",".","3","0","0","2000"
"22","22","retrieval","old_object","213","Nyala.jpg",".","1","0","0","2000"
"22","22","retrieval","old_object","214","FireExtinguisher.jpg",".","3","0","0","2000"
"22","22","retrieval","old_object","215","Knife_Hunting.jpg",".","1","0","0","2000"
"22","22","retrieval","old_object","216","BicyclePedal.jpg",".","1","0","0","2000"
"22","22","retrieval","old_object","217","Oyster.jpg",".","1","0","0","2000"
"22","22","retrieval","new_object","218","Bomb.jpg",".",".","0","0","2000"
"22","22","retrieval","old_object","219","Drink_Green.jpg",".","1","0","0","2000"
"22","22","retrieval","old_object","220","Light_Siren.jpg",".","3","0","0","2000"
"22","22","retrieval","new_object","221","Ball_Disco.jpg",".",".","0","0","2000"
"22","22","retrieval","old_object","222","Pipe_Drain.jpg",".","3","0","0","2000"
"22","22","retrieval","new_object","223","Boots_KneeHigh.jpg",".",".","0","0","2000"
"22","22","retrieval","new_object","224","House_Rural.jpg",".",".","0","0","2000"
"22","22","retrieval","old_object","225","Phone_Wireless.jpg",".","1","0","0","2000"
"22","22","retrieval","new_object","226","Thermos_MetalSleek.jpg",".",".","0","0","2000"
"22","22","retrieval","old_object","227","NailPolish.jpg",".","1","0","0","2000"
"22","22","retrieval","new_object","228","Statue_VirginMary.jpg",".",".","0","0","2000"
"22","22","retrieval","old_object","229","NeedlesAcupuncture.jpg",".","1","0","0","2000"
"22","22","retrieval","old_object","230","Cherry.jpg",".","1","0","0","2000"
"22","22","retrieval","new_object","231","FlipFlop_PairBlue.jpg",".",".","0","0","2000"
"22","22","retrieval","new_object","232","Glass_Martini.jpg",".",".","0","0","2000"
"22","22","retrieval","new_object","233","ShearsGarden.jpg",".",".","0","0","2000"
"22","22","retrieval","old_object","234","StringBean.jpg",".","1","0","0","2000"
"22","22","retrieval","old_object","235","SculptureMetalFish.jpg",".","3","0","0","2000"
"22","22","retrieval","new_object","236","Fencing_HelmetSwords.jpg",".",".","0","0","2000"
"22","22","retrieval","new_object","237","Currants.jpg",".",".","0","0","2000"
"22","22","retrieval","old_object","238","Chair_MedicalToilet.jpg",".","3","0","0","2000"
"22","22","retrieval","new_object","239","Crutches.jpg",".",".","0","0","2000"
"22","22","retrieval","old_object","240","CandyDispenser.jpg",".","3","0","0","2000"
"22","22","retrieval","new_object","241","BicycleOdometer.jpg",".",".","0","0","2000"
"22","22","retrieval","old_object","242","Almond.jpg",".","3","0","0","2000"
"22","22","retrieval","new_object","243","Crib_Basket.jpg",".",".","0","0","2000"
"22","22","retrieval","new_object","244","HumanSkeleton.jpg",".",".","0","0","2000"
"22","22","retrieval","new_object","245","PaperStack.jpg",".",".","0","0","2000"
"22","22","retrieval","new_object","246","Brace_Back.jpg",".",".","0","0","2000"
"22","22","retrieval","new_object","247","SewingMachine.jpg",".",".","0","0","2000"
"22","22","retrieval","old_object","248","DentistOverheadLight.jpg",".","3","0","0","2000"
"22","22","retrieval","old_object","249","CookieCutter_Bell.jpg",".","3","0","0","2000"
"22","22","retrieval","new_object","250","Boardgame_Checkers.jpg",".",".","0","0","2000"
"22","22","retrieval","new_object","251","Box_Present.jpg",".",".","0","0","2000"
"22","22","retrieval","new_object","252","Glass_Cup.jpg",".",".","0","0","2000"
"22","22","retrieval","new_object","253","Dart.jpg",".",".","0","0","2000"
"22","22","retrieval","new_object","254","Gun_Glue.jpg",".",".","0","0","2000"
"22","22","retrieval","new_object","255","KeyHook_Occupied.jpg",".",".","0","0","2000"
"22","22","retrieval","old_object","256","AmpMeter.jpg",".","1","0","0","2000"
"22","22","retrieval","old_object","257","Exercise_Stretch.jpg",".","3","0","0","2000"
"22","22","retrieval","old_object","258","Toy_GasPump.jpg",".","1","0","0","2000"
"22","22","retrieval","old_object","259","Hammer_Reflex.jpg",".","3","0","0","2000"
"22","22","retrieval","new_object","260","Pot_Cooking.jpg",".",".","0","0","2000"
"22","22","retrieval","old_object","261","Lilypad.jpg",".","1","37","0","1551"
"22","22","retrieval","new_object","262","Flower_Orchid.jpg",".",".","36","0","207"
"22","22","retrieval","old_object","263","PuppetTheatre_WhiteGold.jpg",".","1","36","1","147"
"22","22","retrieval","new_object","265","Radio_Vintage.jpg",".",".","37","1","1105"
"22","22","retrieval","new_object","266","Pickaxe.jpg",".",".","36","0","251"
"22","22","retrieval","old_object","267","Generator.jpg",".","1","36","1","234"
"22","22","retrieval","old_object","268","ShoulderPads.jpg",".","3","36","1","130"
"22","22","retrieval","old_object","269","Trophy.jpg",".","1","36","1","408"
"22","22","retrieval","new_object","270","Drum_Brazilan.jpg",".",".","36","0","662"
"22","22","retrieval","new_object","271","Outhouse.jpg",".",".","37","1","60"
"22","22","retrieval","old_object","272","WashRack.jpg",".","3","36","1","98"
"22","22","retrieval","old_object","273","Steeple.jpg",".","1","36","1","254"
"22","22","retrieval","old_object","274","TinChristmas.jpg",".","3","36","1","39"
"22","22","retrieval","new_object","275","Telescope.jpg",".",".","36","0","519"
"22","22","retrieval","new_object","276","ToothPaste.jpg",".",".","37","1","194"
"22","22","retrieval","new_object","277","TireRims.jpg",".",".","37","1","304"
"22","22","retrieval","old_object","278","LeatherPuncherTool.jpg",".","1","36","1","352"
"22","22","retrieval","old_object","279","Fish_Rockbass.jpg",".","3","37","0","187"
"22","22","retrieval","old_object","280","Stove_Camping.jpg",".","1","37","0","596"
"22","22","retrieval","new_object","281","Jug_Milk.jpg",".",".","36","0","496"
"22","22","retrieval","old_object","282","Lollipop_Grape.jpg",".","3","36","1","56"
"22","22","retrieval","new_object","283","RibbonSpool.jpg",".",".","36","0","95"
"22","22","retrieval","new_object","284","Microphone.jpg",".",".","37","1","178"
"22","22","retrieval","new_object","285","Shoe_Pink.jpg",".",".","36","0","1"
"22","22","retrieval","new_object","286","Clock_Radio.jpg",".",".","37","1","327"
"22","22","retrieval","old_object","287","MixingGlass.jpg",".","3","37","0","0"
"22","22","retrieval","old_object","288","WindowBlinds.jpg",".","1","37","0","1327"
"22","22","retrieval","new_object","289","ContactLens.jpg",".",".","37","1","170"
"22","22","retrieval","old_object","290","BusStop.jpg",".","3","37","0","108"
"22","22","retrieval","new_object","291","Kite_Rainbow.jpg",".",".","37","1","422"
"22","22","retrieval","old_object","292","Tripod.jpg",".","3","37","0","317"
"22","22","retrieval","new_object","293","Tape_Washi.jpg",".",".","37","1","41"
"22","22","retrieval","new_object","294","Iron_Antique.jpg",".",".","37","1","307"
"22","22","retrieval","new_object","295","Box_FirstAidOpen.jpg",".",".","37","1","94"
"22","22","retrieval","old_object","296","Clip_Paper.jpg",".","1","37","0","249"
"22","22","retrieval","new_object","297","Ball_8.jpg",".",".","37","1","55"
"22","22","retrieval","old_object","298","BicycleBrake.jpg",".","3","37","0","44"
"22","22","retrieval","new_object","299","Frame_Oval.jpg",".",".","37","1","242"
"22","22","retrieval","old_object","300","Dress_Party.jpg",".","3","37","0","822"
"22","22","retrieval","new_object","301","KitchenTools.jpg",".",".","37","1","727"
"22","22","retrieval","old_object","302","Fruit_Cactus.jpg",".","3","37","0","315"
"22","22","retrieval","old_object","303","Balalaika.jpg",".","1","36","1","163"
"22","22","retrieval","old_object","304","Cake_Wedding.jpg",".","3","37","0","644"
"22","22","retrieval","new_object","305","SmokingPipe.jpg",".",".","37","1","911"
"22","22","retrieval","old_object","306","Toy_Witch.jpg",".","1","37","0","971"
"22","22","retrieval","old_object","307","Mat_Door.jpg",".","1","37","0","858"
"22","22","retrieval","old_object","308","Notebook.jpg",".","3","37","0","657"
"22","22","retrieval","new_object","309","Chinchilla.jpg",".",".","36","0","938"
"22","22","retrieval","new_object","310","Chipmunk.jpg",".",".","36","0","1036"
"22","22","retrieval","new_object","311","Sink_Bathroom.jpg",".",".","37","1","1107"
"22","22","retrieval","new_object","312","Hawk.jpg",".",".","37","1","1970"
"22","22","retrieval","new_object","313","Hazelnut.jpg",".",".","36","0","1246"
"22","22","retrieval","new_object","314","Paddle_Beach.jpg",".",".","37","1","1269"
"22","22","retrieval","new_object","315","PaintRoller.jpg",".",".","37","1","890"
"22","22","retrieval","new_object","316","Toolbox_RedOpen.jpg",".",".","37","1","865"
"22","22","retrieval","new_object","317","Hottub.jpg",".",".","37","1","943"
"22","22","retrieval","old_object","318","Megaphone.jpg",".","1","37","0","1200"
"22","22","retrieval","old_object","319","Guitar_Acoustic.jpg",".","3","37","0","660"
"22","22","retrieval","old_object","320","Mitt_Oven.jpg",".","3","37","0","836"
"22","22","retrieval","old_object","321","IceCrusher.jpg",".","1","37","0","764"
"22","22","retrieval","new_object","322","Bottle_Specimen.jpg",".",".","37","1","824"
"22","22","retrieval","new_object","323","ToothPaste.jpg",".",".","37","1","737"
"22","22","retrieval","old_object","324","Toy_Moose.jpg",".","1","37","0","755"
"22","22","retrieval","old_object","325","BottleOpener.jpg",".","3","37","0","1226"
"22","22","demographics_block","gender","1",".",".",".","MALE","1","20716"
"22","22","demographics_block","age","1",".",".",".","45","1","20716"
"22","22","demographics_block","education","1",".",".",".","4","1","20716"
"22","22","demographics_block","left_right_handed","2",".",".",".","Right","1","8090"
"22","22","demographics_block","raceoption1","2",".",".",".","0","1","8090"
"22","22","demographics_block","raceoption2","2",".",".",".","","1","8090"
"22","22","demographics_block","raceoption3","2",".",".",".","","1","8090"
"22","22","demographics_block","raceoption4","2",".",".",".","","1","8090"
"22","22","demographics_block","raceoption5","2",".",".",".","","1","8090"
"22","22","demographics_block","raceoption6","2",".",".",".","","1","8090"
"22","22","demographics_block","raceoption7","2",".",".",".","","1","8090"
"22","22","demographics_block","raceoption8","2",".",".",".","","1","8090"
"22","22","demographics_block","raceoption9","2",".",".",".","","1","8090"
"22","22","demographics_block","raceother","2",".",".",".","","1","8090"
"22","22","demographics_block","raceother","2",".",".",".","","1","8090"
"22","22","demographics_block","english_language","2",".",".",".","Yes","1","8090"
"22","22","demographics_block","other","2",".",".",".","","1","8090"
"22","22","demographics_block","eyesight","3",".",".",".","Yes","1","5440"
"22","22","demographics_block","colorblind","3",".",".",".","Yes","1","5440"
