"group","subject","blockcode","trialcode","trialnum","stimulus","encoding_condition","old_object_condition","response","correct","latency"
"4","4","encoding","encoding","1","HairBand.jpg","3",".","37","0","52"
"4","4","encoding","encoding","2","Bus_DoubleDecker.jpg","3",".","37","0","194"
"4","4","encoding","encoding","3","Notepad.jpg","3",".","37","0","112"
"4","4","encoding","encoding","4","Suit_Women.jpg","1",".","36","0","69"
"4","4","encoding","encoding","5","Canister_Tea.jpg","3",".","36","0","13"
"4","4","encoding","encoding","6","Box_WoodCrate.jpg","3",".","36","0","42"
"4","4","encoding","encoding","7","ComputerKey_Escape.jpg","1",".","37","0","97"
"4","4","encoding","encoding","8","Toy_TrailerAirport.jpg","3",".","36","0","47"
"4","4","encoding","encoding","9","Tape_Dispenser.jpg","3",".","36","0","178"
"4","4","encoding","encoding","10","FuzzyDice.jpg","1",".","37","0","150"
"4","4","encoding","encoding","11","Pouch_Red.jpg","3",".","36","0","203"
"4","4","encoding","encoding","12","Sign_SlipperyRoad.jpg","3",".","37","0","13"
"4","4","encoding","encoding","13","FlintIgniter.jpg","3",".","36","0","135"
"4","4","encoding","encoding","14","Otoscope.jpg","3",".","37","0","18"
"4","4","encoding","encoding","15","Dragonfly.jpg","3",".","37","0","17"
"4","4","encoding","encoding","16","CDstack.jpg","1",".","36","0","37"
"4","4","encoding","encoding","17","Coral.jpg","3",".","36","0","151"
"4","4","encoding","encoding","18","Snowpea.jpg","1",".","36","0","0"
"4","4","encoding","encoding","19","Toy_Christmastree.jpg","3",".","36","0","1"
"4","4","encoding","encoding","20","TowelRack_Metal.jpg","3",".","36","0","163"
"4","4","encoding","encoding","21","Car_Buggy.jpg","1",".","37","0","141"
"4","4","encoding","encoding","22","Blueberry.jpg","3",".","37","0","122"
"4","4","encoding","encoding","23","MatchBook.jpg","3",".","37","0","177"
"4","4","encoding","encoding","24","Ginger.jpg","1",".","37","0","123"
"4","4","encoding","encoding","25","Carrot.jpg","3",".","36","0","0"
"4","4","encoding","encoding","26","Clippers_Glass.jpg","3",".","36","0","33"
"4","4","encoding","encoding","27","Coral.jpg","3",".","36","0","155"
"4","4","encoding","encoding","28","Bag_Toiletry.jpg","3",".","36","0","60"
"4","4","encoding","encoding","29","Boat_Colourful.jpg","3",".","36","0","16"
"4","4","encoding","encoding","30","Stool_Camping.jpg","1",".","36","0","234"
"4","4","encoding","encoding","31","Match.jpg","3",".","37","0","75"
"4","4","encoding","encoding","32","Toy_Firetruck.jpg","1",".","37","0","257"
"4","4","encoding","encoding","33","Toy_DonkeyFur.jpg","3",".","37","0","72"
"4","4","encoding","encoding","34","HairClipper.jpg","1",".","37","0","67"
"4","4","encoding","encoding","35","Case_CD.jpg","3",".","37","0","125"
"4","4","encoding","encoding","36","Stick_Stirring.jpg","3",".","37","0","94"
"4","4","encoding","encoding","37","Shoes_Mould.jpg","3",".","37","0","181"
"4","4","encoding","encoding","38","Ruler_Wooden.jpg","3",".","37","0","139"
"4","4","encoding","encoding","39","PersonWooden.jpg","1",".","36","0","186"
"4","4","encoding","encoding","40","Paddle_Ball.jpg","3",".","36","0","12"
"4","4","encoding","encoding","41","Mitt_Blue.jpg","1",".","36","0","324"
"4","4","encoding","encoding","42","TreeStump.jpg","3",".","36","0","11"
"4","4","encoding","encoding","43","Shoes_Mould.jpg","3",".","36","0","2"
"4","4","encoding","encoding","44","Ruler_Wooden.jpg","3",".","36","0","27"
"4","4","encoding","encoding","45","LintRemover.jpg","1",".","36","0","136"
"4","4","encoding","encoding","46","Bucket_WoodenLight.jpg","3",".","37","0","189"
"4","4","encoding","encoding","47","TowelRack_Metal.jpg","3",".","36","0","300"
"4","4","encoding","encoding","48","WalkieTalkie_Yellow.jpg","3",".","36","0","106"
"4","4","encoding","encoding","49","Neckrest.jpg","3",".","36","0","105"
"4","4","encoding","encoding","50","Cheeseburger.jpg","3",".","36","0","237"
"4","4","encoding","encoding","51","Shirt_Tshirt.jpg","3",".","36","0","9"
"4","4","encoding","encoding","52","Piano_Upright.jpg","1",".","36","0","82"
"4","4","encoding","encoding","53","Flashlight.jpg","3",".","37","0","34"
"4","4","encoding","encoding","54","Camera_Video.jpg","1",".","37","0","235"
"4","4","encoding","encoding","55","Paddle_Ball.jpg","3",".","37","0","20"
"4","4","encoding","encoding","56","Fan_Straw.jpg","1",".","37","0","24"
"4","4","encoding","encoding","57","Toy_TrailerAirport.jpg","3",".","37","0","483"
"4","4","encoding","encoding","58","Lynx.jpg","3",".","37","0","79"
"4","4","encoding","encoding","59","Decoration_ChristmasWhite.jpg","3",".","37","0","103"
"4","4","encoding","encoding","60","Glove_Baseball.jpg","1",".","36","0","157"
"4","4","encoding","encoding","61","PowderProtein.jpg","3",".","36","0","183"
"4","4","encoding","encoding","62","PowderProtein.jpg","3",".","36","0","76"
"4","4","encoding","encoding","63","ShinPads.jpg","3",".","37","0","91"
"4","4","encoding","encoding","64","Toy_BearBrownPlushie.jpg","3",".","37","0","170"
"4","4","encoding","encoding","65","Squash_Butternut.jpg","3",".","36","0","2"
"4","4","encoding","encoding","67","Ruler_Wooden.jpg","3",".","37","0","372"
"4","4","encoding","encoding","68","Notepad.jpg","3",".","37","0","110"
"4","4","encoding","encoding","69","Nail.jpg","1",".","37","0","116"
"4","4","encoding","encoding","70","Stick_Stirring.jpg","3",".","36","0","16"
"4","4","encoding","encoding","71","Helicopter.jpg","3",".","36","0","64"
"4","4","encoding","encoding","72","Toy_BeadMaze.jpg","3",".","37","0","105"
"4","4","encoding","encoding","73","BrainSagittal.jpg","3",".","36","0","159"
"4","4","encoding","encoding","74","Walkman.jpg","3",".","36","0","106"
"4","4","encoding","encoding","75","Jars_PetFood.jpg","3",".","36","0","107"
"4","4","encoding","encoding","76","Hat_Police.jpg","1",".","37","0","85"
"4","4","encoding","encoding","77","BrainSagittal.jpg","3",".","36","0","108"
"4","4","encoding","encoding","78","TelescopeSpacecraft.jpg","1",".","36","0","141"
"4","4","encoding","encoding","79","Coral.jpg","3",".","36","0","29"
"4","4","encoding","encoding","80","WaterCooler.jpg","3",".","36","0","0"
"4","4","encoding","encoding","81","Flashlight.jpg","3",".","36","0","8"
"4","4","encoding","encoding","82","Paddle_Canoe.jpg","3",".","36","0","50"
"4","4","encoding","encoding","83","Lynx.jpg","3",".","36","0","76"
"4","4","encoding","encoding","84","Paddle_Canoe.jpg","3",".","36","0","196"
"4","4","encoding","encoding","85","Card_Deck.jpg","1",".","36","0","167"
"4","4","encoding","encoding","86","ShoeLace_Flat.jpg","3",".","36","0","168"
"4","4","encoding","encoding","87","TowelRack_Brown.jpg","3",".","36","0","139"
"4","4","encoding","encoding","88","Toy_Ladybug.jpg","3",".","37","0","160"
"4","4","encoding","encoding","89","TowelRack_Metal.jpg","3",".","36","0","36"
"4","4","encoding","encoding","90","BrainSagittal.jpg","3",".","37","0","130"
"4","4","encoding","encoding","91","Celery.jpg","1",".","36","0","233"
"4","4","encoding","encoding","92","VinylRecord.jpg","1",".","36","0","430"
"4","4","encoding","encoding","93","Drum_Ramadan.jpg","1",".","36","0","100"
"4","4","encoding","encoding","94","Broccoli.jpg","3",".","36","0","126"
"4","4","encoding","encoding","95","Toy_Ladybug.jpg","3",".","36","0","372"
"4","4","encoding","encoding","96","Toy_Wooden rings.jpg","1",".","37","0","207"
"4","4","encoding","encoding","97","Helicopter.jpg","3",".","37","0","139"
"4","4","encoding","encoding","98","Squash_Butternut.jpg","3",".","36","0","39"
"4","4","encoding","encoding","99","BowlingPin.jpg","3",".","37","0","143"
"4","4","encoding","encoding","100","Stone_Spa.jpg","3",".","36","0","21"
"4","4","encoding","encoding","101","MatchBook.jpg","3",".","36","0","241"
"4","4","encoding","encoding","102","Toy_Bat.jpg","1",".","37","0","237"
"4","4","encoding","encoding","103","Coin.jpg","3",".","36","0","79"
"4","4","encoding","encoding","104","Desk_Office.jpg","3",".","36","0","62"
"4","4","encoding","encoding","105","Coin.jpg","3",".","36","0","230"
"4","4","encoding","encoding","106","DeepFryer.jpg","1",".","36","0","73"
"4","4","encoding","encoding","107","Pretzel_Sticks.jpg","1",".","36","0","164"
"4","4","encoding","encoding","108","GrillRack.jpg","1",".","37","0","117"
"4","4","encoding","encoding","109","Computer_ExpansionCard.jpg","3",".","37","0","77"
"4","4","encoding","encoding","110","Suitcase.jpg","3",".","37","0","12"
"4","4","encoding","encoding","111","ColoringSet.jpg","1",".","36","0","47"
"4","4","encoding","encoding","112","NailFiles.jpg","1",".","36","0","18"
"4","4","encoding","encoding","113","Puzzle_Animal.jpg","1",".","36","0","144"
"4","4","encoding","encoding","114","Bus_DoubleDecker.jpg","3",".","37","0","143"
"4","4","encoding","encoding","115","Box_Cutlery.jpg","1",".","36","0","14"
"4","4","encoding","encoding","116","BowlingPin.jpg","3",".","36","0","90"
"4","4","encoding","encoding","117","WaterCooler.jpg","3",".","36","0","78"
"4","4","encoding","encoding","118","Card_TwoSpade.jpg","1",".","36","0","347"
"4","4","encoding","encoding","119","Backhoe.jpg","3",".","37","0","29"
"4","4","encoding","encoding","120","Squash_Butternut.jpg","3",".","36","0","64"
"4","4","encoding","encoding","121","Toy_BeadMaze.jpg","3",".","36","0","59"
"4","4","encoding","encoding","122","Lynx.jpg","3",".","36","0","99"
"4","4","encoding","encoding","123","Speakers_Theatre.jpg","1",".","36","0","121"
"4","4","encoding","encoding","124","Dog_Bulldog.jpg","3",".","37","0","454"
"4","4","encoding","encoding","125","Decoration_ChristmasWhite.jpg","3",".","36","0","69"
"4","4","encoding","encoding","126","TreeStump.jpg","3",".","37","0","50"
"4","4","encoding","encoding","127","PowderProtein.jpg","3",".","36","0","169"
"4","4","encoding","encoding","128","Lobster.jpg","3",".","36","0","194"
"4","4","encoding","encoding","129","IroningBoard.jpg","1",".","36","0","218"
"4","4","encoding","encoding","130","Pouch_Red.jpg","3",".","36","0","135"
"4","4","encoding","encoding","131","Seeder.jpg","1",".","37","0","182"
"4","4","encoding","encoding","133","Snorkle.jpg","1",".","0","0","1000"
"4","4","encoding","encoding","134","ClothesDryingRack.jpg","1",".","36","0","226"
"4","4","encoding","encoding","135","ShoeLace_Flat.jpg","3",".","37","0","1"
"4","4","encoding","encoding","136","Heater_ElectricUpright.jpg","3",".","37","0","127"
"4","4","encoding","encoding","137","Match.jpg","3",".","36","0","167"
"4","4","encoding","encoding","138","Pyramid.jpg","3",".","36","0","131"
"4","4","encoding","encoding","139","Canister_Tea.jpg","3",".","36","0","80"
"4","4","encoding","encoding","140","Sphinx.jpg","3",".","36","0","184"
"4","4","encoding","encoding","141","Protractor.jpg","1",".","37","0","49"
"4","4","encoding","encoding","142","Bowl_Chopsticks.jpg","1",".","36","0","2"
"4","4","encoding","encoding","143","ShinPads.jpg","3",".","36","0","493"
"4","4","encoding","encoding","144","Ostrich.jpg","3",".","37","0","48"
"4","4","encoding","encoding","145","Coin.jpg","3",".","37","0","195"
"4","4","encoding","encoding","146","Sign_SlipperyRoad.jpg","3",".","36","0","8"
"4","4","encoding","encoding","147","Broccoli.jpg","3",".","37","0","134"
"4","4","encoding","encoding","148","Toy_Christmastree.jpg","3",".","37","0","267"
"4","4","encoding","encoding","149","Suitcase.jpg","3",".","37","0","89"
"4","4","encoding","encoding","150","Tray_Metal.jpg","3",".","36","0","91"
"4","4","encoding","encoding","151","Computer_ExpansionCard.jpg","3",".","37","0","103"
"4","4","encoding","encoding","152","Scorpion.jpg","3",".","36","0","162"
"4","4","encoding","encoding","153","Sphinx.jpg","3",".","37","0","159"
"4","4","encoding","encoding","154","Toy_BearBrownPlushie.jpg","3",".","37","0","12"
"4","4","encoding","encoding","155","Carrot.jpg","3",".","37","0","154"
"4","4","encoding","encoding","156","Pasta_Fettuccine.jpg","3",".","37","0","187"
"4","4","encoding","encoding","157","Sandwich_Ham.jpg","1",".","36","0","130"
"4","4","encoding","encoding","158","Canister_Tea.jpg","3",".","37","0","56"
"4","4","encoding","encoding","159","DonaldDuck_Toy.jpg","1",".","36","0","76"
"4","4","encoding","encoding","160","Backhoe.jpg","3",".","36","0","115"
"4","4","encoding","encoding","161","Dog_Bulldog.jpg","3",".","36","0","181"
"4","4","encoding","encoding","162","Pouch_Red.jpg","3",".","0","0","1000"
"4","4","encoding","encoding","163","Mat_Bamboo.jpg","3",".","36","0","42"
"4","4","encoding","encoding","164","Bucket_WoodenLight.jpg","3",".","37","0","26"
"4","4","encoding","encoding","165","Toy_BeadMaze.jpg","3",".","37","0","56"
"4","4","encoding","encoding","166","CarLighter.jpg","1",".","36","0","101"
"4","4","encoding","encoding","167","Stone_Spa.jpg","3",".","37","0","46"
"4","4","encoding","encoding","168","Toy_Ladybug.jpg","3",".","36","0","24"
"4","4","encoding","encoding","169","MortarPestle_WhiteMarble.jpg","1",".","36","0","115"
"4","4","encoding","encoding","170","Tape_Dispenser.jpg","3",".","36","0","150"
"4","4","encoding","encoding","171","SoapDish.jpg","1",".","36","0","13"
"4","4","encoding","encoding","172","Shirt_Tshirt.jpg","3",".","36","0","167"
"4","4","encoding","encoding","173","Mat_Bamboo.jpg","3",".","36","0","63"
"4","4","encoding","encoding","174","Shovel_Garden.jpg","3",".","36","0","11"
"4","4","encoding","encoding","175","Dropper.jpg","1",".","36","0","136"
"4","4","encoding","encoding","176","Heater_Outdoor.jpg","3",".","36","0","335"
"4","4","encoding","encoding","177","Heater_Outdoor.jpg","3",".","36","0","61"
"4","4","encoding","encoding","178","Toy_TrailerAirport.jpg","3",".","36","0","473"
"4","4","encoding","encoding","179","Balcony.jpg","3",".","0","0","1000"
"4","4","encoding","encoding","180","FlintIgniter.jpg","3",".","36","0","248"
"4","4","encoding","encoding","181","Toy_DonkeyFur.jpg","3",".","36","0","188"
"4","4","encoding","encoding","182","Otoscope.jpg","3",".","36","0","21"
"4","4","encoding","encoding","183","Scorpion.jpg","3",".","36","0","83"
"4","4","encoding","encoding","184","WaterHeater.jpg","3",".","36","0","149"
"4","4","encoding","encoding","185","Pasta_Fettuccine.jpg","3",".","37","0","146"
"4","4","encoding","encoding","186","TreeStump.jpg","3",".","36","0","116"
"4","4","encoding","encoding","187","TowelRack_Brown.jpg","3",".","37","0","46"
"4","4","encoding","encoding","188","Shirt_Tshirt.jpg","3",".","37","0","113"
"4","4","encoding","encoding","189","Clippers_Glass.jpg","3",".","37","0","8"
"4","4","encoding","encoding","190","Flashlight.jpg","3",".","37","0","116"
"4","4","encoding","encoding","191","MatchBook.jpg","3",".","36","0","4294967295"
"4","4","encoding","encoding","192","Sphinx.jpg","3",".","37","0","10"
"4","4","encoding","encoding","193","BowlingPin.jpg","3",".","36","0","102"
"4","4","encoding","encoding","194","Heater_ElectricUpright.jpg","3",".","36","0","36"
"4","4","encoding","encoding","195","SnowmanDecor.jpg","1",".","37","0","24"
"4","4","encoding","encoding","196","Notepad.jpg","3",".","36","0","163"
"4","4","encoding","encoding","197","Backhoe.jpg","3",".","36","0","869"
"4","4","encoding","encoding","199","Barrel_Wine.jpg","3",".","36","0","102"
"4","4","encoding","encoding","200","LeafBlower.jpg","3",".","36","0","139"
"4","4","encoding","encoding","201","Dragonfly.jpg","3",".","37","0","274"
"4","4","encoding","encoding","202","WaterCooler.jpg","3",".","37","0","7"
"4","4","encoding","encoding","203","Dice.jpg","1",".","36","0","611"
"4","4","encoding","encoding","204","Tray_Metal.jpg","3",".","37","0","261"
"4","4","encoding","encoding","205","Shovel_Garden.jpg","3",".","37","0","162"
"4","4","encoding","encoding","206","ShinPads.jpg","3",".","37","0","15"
"4","4","encoding","encoding","207","Neckrest.jpg","3",".","37","0","488"
"4","4","encoding","encoding","208","Bicycle_Kids.jpg","1",".","37","0","153"
"4","4","encoding","encoding","209","Box_WoodCrate.jpg","3",".","37","0","81"
"4","4","encoding","encoding","210","Puffin.jpg","3",".","36","0","109"
"4","4","encoding","encoding","211","Puffin.jpg","3",".","36","0","79"
"4","4","encoding","encoding","212","WaterHeater.jpg","3",".","37","0","32"
"4","4","encoding","encoding","213","Shoes_Mould.jpg","3",".","37","0","234"
"4","4","encoding","encoding","214","Helicopter.jpg","3",".","37","0","178"
"4","4","encoding","encoding","215","Boat_Colourful.jpg","3",".","36","0","104"
"4","4","encoding","encoding","216","TowelRack_Brown.jpg","3",".","37","0","70"
"4","4","encoding","encoding","217","Broccoli.jpg","3",".","36","0","401"
"4","4","encoding","encoding","218","Barrel_Wine.jpg","3",".","36","0","38"
"4","4","encoding","encoding","219","Box_WoodCrate.jpg","3",".","37","0","113"
"4","4","encoding","encoding","220","Heater_ElectricUpright.jpg","3",".","37","0","126"
"4","4","encoding","encoding","221","FlintIgniter.jpg","3",".","36","0","118"
"4","4","encoding","encoding","222","Suitcase.jpg","3",".","37","0","24"
"4","4","encoding","encoding","223","Computer_ExpansionCard.jpg","3",".","36","0","25"
"4","4","encoding","encoding","224","WaterHeater.jpg","3",".","37","0","133"
"4","4","encoding","encoding","225","Stick_Stirring.jpg","3",".","37","0","77"
"4","4","encoding","encoding","226","RadioactiveContainer.jpg","3",".","36","0","49"
"4","4","encoding","encoding","227","WalkieTalkie_Yellow.jpg","3",".","36","0","38"
"4","4","encoding","encoding","228","Tray_Medical.jpg","1",".","36","0","734"
"4","4","encoding","encoding","229","Pyramid.jpg","3",".","37","0","10"
"4","4","encoding","encoding","230","LeafBlower.jpg","3",".","37","0","93"
"4","4","encoding","encoding","231","PaperCutter.jpg","1",".","36","0","2"
"4","4","encoding","encoding","232","Blueberry.jpg","3",".","36","0","130"
"4","4","encoding","encoding","233","Pear_Green.jpg","3",".","36","0","166"
"4","4","encoding","encoding","234","Bus_DoubleDecker.jpg","3",".","37","0","341"
"4","4","encoding","encoding","235","Toy_DonkeyFur.jpg","3",".","36","0","100"
"4","4","encoding","encoding","236","Balcony.jpg","3",".","36","0","130"
"4","4","encoding","encoding","237","Tape_Dispenser.jpg","3",".","36","0","27"
"4","4","encoding","encoding","238","Compressor.jpg","3",".","36","0","89"
"4","4","encoding","encoding","239","Dragonfly.jpg","3",".","36","0","25"
"4","4","encoding","encoding","240","Clamp_Screw.jpg","1",".","36","0","51"
"4","4","encoding","encoding","241","Cheeseburger.jpg","3",".","36","0","35"
"4","4","encoding","encoding","242","Lobster.jpg","3",".","36","0","53"
"4","4","encoding","encoding","243","RadioactiveContainer.jpg","3",".","37","0","72"
"4","4","encoding","encoding","244","Mask_VenetianCat.jpg","1",".","37","0","75"
"4","4","encoding","encoding","245","Pyramid.jpg","3",".","36","0","32"
"4","4","encoding","encoding","246","Desk_Office.jpg","3",".","36","0","149"
"4","4","encoding","encoding","247","Lips_Wax.jpg","1",".","37","0","123"
"4","4","encoding","encoding","248","EyeChart.jpg","1",".","36","0","116"
"4","4","encoding","encoding","249","Golf_Club.jpg","1",".","36","0","10"
"4","4","encoding","encoding","250","Lobster.jpg","3",".","37","0","130"
"4","4","encoding","encoding","251","Walkman.jpg","3",".","37","0","8"
"4","4","encoding","encoding","252","Desk_Office.jpg","3",".","37","0","51"
"4","4","encoding","encoding","253","Bag_Toiletry.jpg","3",".","36","0","62"
"4","4","encoding","encoding","254","Decoration_ChristmasWhite.jpg","3",".","36","0","105"
"4","4","encoding","encoding","255","Puffin.jpg","3",".","36","0","84"
"4","4","encoding","encoding","256","WalkieTalkie_Yellow.jpg","3",".","36","0","130"
"4","4","encoding","encoding","257","Walkman.jpg","3",".","36","0","122"
"4","4","encoding","encoding","258","Candleholder_LampShaped.jpg","1",".","36","0","161"
"4","4","encoding","encoding","259","Hat_Feather.jpg","1",".","37","0","33"
"4","4","encoding","encoding","260","Tray_Metal.jpg","3",".","36","0","47"
"4","4","encoding","encoding","261","Jars_PetFood.jpg","3",".","37","0","121"
"4","4","encoding","encoding","262","Toy_Rooster.jpg","1",".","36","0","54"
"4","4","encoding","encoding","263","Airplane_Small.jpg","1",".","37","0","290"
"4","4","encoding","encoding","265","Pear_Green.jpg","3",".","37","0","0"
"4","4","encoding","encoding","266","Balcony.jpg","3",".","36","0","110"
"4","4","encoding","encoding","267","Cloud.jpg","1",".","36","0","106"
"4","4","encoding","encoding","268","IceCubes.jpg","1",".","36","0","171"
"4","4","encoding","encoding","269","Bag_Toiletry.jpg","3",".","36","0","71"
"4","4","encoding","encoding","270","Neckrest.jpg","3",".","36","0","112"
"4","4","encoding","encoding","271","Pear_Green.jpg","3",".","36","0","115"
"4","4","encoding","encoding","272","HairBand.jpg","3",".","36","0","8"
"4","4","encoding","encoding","273","Barrel_Wine.jpg","3",".","36","0","133"
"4","4","encoding","encoding","274","PumpBreast.jpg","1",".","37","0","46"
"4","4","encoding","encoding","275","Dog_Bulldog.jpg","3",".","36","0","6"
"4","4","encoding","encoding","276","Jars_PetFood.jpg","3",".","36","0","51"
"4","4","encoding","encoding","277","Cheeseburger.jpg","3",".","37","0","239"
"4","4","encoding","encoding","278","Shovel_Garden.jpg","3",".","37","0","159"
"4","4","encoding","encoding","279","RecorderInstrument.jpg","1",".","37","0","204"
"4","4","encoding","encoding","280","Clippers_Glass.jpg","3",".","36","0","718"
"4","4","encoding","encoding","281","Glasses_Sun.jpg","1",".","37","0","175"
"4","4","encoding","encoding","282","Compressor.jpg","3",".","36","0","7"
"4","4","encoding","encoding","283","Garlic_Clove.jpg","1",".","37","0","46"
"4","4","encoding","encoding","284","RadioactiveContainer.jpg","3",".","36","0","18"
"4","4","encoding","encoding","285","PaperTowel_Brown.jpg","1",".","36","0","3"
"4","4","encoding","encoding","286","SaladCaesar.jpg","1",".","36","0","372"
"4","4","encoding","encoding","287","Paddle_Ball.jpg","3",".","37","0","244"
"4","4","encoding","encoding","288","Sign_SlipperyRoad.jpg","3",".","37","0","13"
"4","4","encoding","encoding","289","Match.jpg","3",".","37","0","221"
"4","4","encoding","encoding","290","Pasta_Fettuccine.jpg","3",".","37","0","195"
"4","4","encoding","encoding","291","Blueberry.jpg","3",".","36","0","606"
"4","4","encoding","encoding","292","HairBand.jpg","3",".","36","0","150"
"4","4","encoding","encoding","293","Toy_BearBrownPlushie.jpg","3",".","36","0","37"
"4","4","encoding","encoding","294","Compressor.jpg","3",".","36","0","63"
"4","4","encoding","encoding","295","ShoeLace_Flat.jpg","3",".","37","0","154"
"4","4","encoding","encoding","296","Stone_Spa.jpg","3",".","36","0","99"
"4","4","encoding","encoding","297","Case_CD.jpg","3",".","36","0","151"
"4","4","encoding","encoding","298","Level.jpg","1",".","37","0","155"
"4","4","encoding","encoding","299","Sink_Kitchen.jpg","1",".","37","0","21"
"4","4","encoding","encoding","300","Makeup_Bag.jpg","1",".","36","0","32"
"4","4","encoding","encoding","301","Boar.jpg","3",".","36","0","6"
"4","4","encoding","encoding","302","Scorpion.jpg","3",".","36","0","36"
"4","4","encoding","encoding","303","Boar.jpg","3",".","0","0","1000"
"4","4","encoding","encoding","304","LeafBlower.jpg","3",".","36","0","351"
"4","4","encoding","encoding","305","Ostrich.jpg","3",".","36","0","21"
"4","4","encoding","encoding","306","Boat_Colourful.jpg","3",".","36","0","157"
"4","4","encoding","encoding","307","Ostrich.jpg","3",".","36","0","7"
"4","4","encoding","encoding","308","OperaGlasses.jpg","1",".","36","0","116"
"4","4","encoding","encoding","309","Toy_Taxi.jpg","1",".","37","0","111"
"4","4","encoding","encoding","310","Case_CD.jpg","3",".","37","0","10"
"4","4","encoding","encoding","311","Mat_Bamboo.jpg","3",".","37","0","109"
"4","4","encoding","encoding","312","Bucket_WoodenLight.jpg","3",".","37","0","127"
"4","4","encoding","encoding","313","Cologne.jpg","1",".","36","0","161"
"4","4","encoding","encoding","314","Carrot.jpg","3",".","36","0","241"
"4","4","encoding","encoding","315","Shrimp.jpg","1",".","37","0","10"
"4","4","encoding","encoding","316","Paddle_Canoe.jpg","3",".","37","0","135"
"4","4","encoding","encoding","317","Boar.jpg","3",".","37","0","90"
"4","4","encoding","encoding","318","Stick_IceHockey.jpg","1",".","37","0","39"
"4","4","encoding","encoding","319","Toy_Christmastree.jpg","3",".","37","0","28"
"4","4","encoding","encoding","320","Toy_Dog.jpg","1",".","37","0","41"
"4","4","encoding","encoding","321","Heater_Outdoor.jpg","3",".","37","0","188"
"4","4","encoding","encoding","322","Bagpipes.jpg","1",".","36","0","37"
"4","4","encoding","encoding","323","Otoscope.jpg","3",".","36","0","18"
"4","4","encoding","encoding","324","VacuumHose.jpg","1",".","36","0","160"
"4","4","encoding","encoding","325","HairBand.jpg","",".","36","0","104"
"4","4","retrieval","new_object","1","Hanger.jpg",".",".","36","0","108"
"4","4","retrieval","old_object","2","Bag_Toiletry.jpg",".","3","36","1","91"
"4","4","retrieval","old_object","3","Lips_Wax.jpg",".","1","37","0","89"
"4","4","retrieval","old_object","4","Card_TwoSpade.jpg",".","1","37","0","158"
"4","4","retrieval","new_object","5","Branch.jpg",".",".","36","0","56"
"4","4","retrieval","new_object","6","TortillaChip.jpg",".",".","36","0","116"
"4","4","retrieval","new_object","7","Carousel.jpg",".",".","36","0","38"
"4","4","retrieval","old_object","8","Hat_Feather.jpg",".","1","36","1","42"
"4","4","retrieval","new_object","9","Garlic_Whole.jpg",".",".","36","0","127"
"4","4","retrieval","old_object","10","Toy_Dog.jpg",".","1","36","1","1272"
"4","4","retrieval","old_object","11","OperaGlasses.jpg",".","1","37","0","465"
"4","4","retrieval","old_object","12","Bucket_WoodenLight.jpg",".","3","36","1","428"
"4","4","retrieval","new_object","13","Heelpad.jpg",".",".","37","1","121"
"4","4","retrieval","new_object","14","AirCompressor.jpg",".",".","37","1","612"
"4","4","retrieval","new_object","15","Chair_Office.jpg",".",".","36","0","24"
"4","4","retrieval","new_object","16","Bread_Melon.jpg",".",".","36","0","804"
"4","4","retrieval","new_object","17","Van.jpg",".",".","37","1","1622"
"4","4","retrieval","new_object","18","Amp.jpg",".",".","37","1","93"
"4","4","retrieval","new_object","19","Fork_Regular.jpg",".",".","37","1","31"
"4","4","retrieval","old_object","20","Drum_Ramadan.jpg",".","1","37","0","390"
"4","4","retrieval","old_object","21","Bus_DoubleDecker.jpg",".","3","37","0","550"
"4","4","retrieval","new_object","22","WateringCan_Antique.jpg",".",".","37","1","41"
"4","4","retrieval","new_object","23","House_Wooden.jpg",".",".","37","1","582"
"4","4","retrieval","new_object","24","Umbrella_Classic.jpg",".",".","37","1","36"
"4","4","retrieval","old_object","25","Compressor.jpg",".","3","36","1","371"
"4","4","retrieval","new_object","26","Helmet_Football.jpg",".",".","37","1","54"
"4","4","retrieval","old_object","27","LintRemover.jpg",".","1","37","0","81"
"4","4","retrieval","old_object","28","Toy_BeadMaze.jpg",".","3","37","0","17"
"4","4","retrieval","old_object","29","RadioactiveContainer.jpg",".","3","37","0","334"
"4","4","retrieval","new_object","30","HoseNozzle.jpg",".",".","37","1","1073"
"4","4","retrieval","old_object","31","Jars_PetFood.jpg",".","3","37","0","376"
"4","4","retrieval","old_object","32","TreeStump.jpg",".","3","37","0","469"
"4","4","retrieval","old_object","33","SaladCaesar.jpg",".","1","37","0","133"
"4","4","retrieval","new_object","34","Jar_Honey.jpg",".",".","37","1","584"
"4","4","retrieval","new_object","35","Bread_Roll.jpg",".",".","37","1","560"
"4","4","retrieval","new_object","36","Binder.jpg",".",".","36","0","146"
"4","4","retrieval","new_object","37","Tube_Paint.jpg",".",".","36","0","92"
"4","4","retrieval","new_object","38","PulleyWooden.jpg",".",".","37","1","94"
"4","4","retrieval","old_object","39","Toy_BearBrownPlushie.jpg",".","3","36","1","301"
"4","4","retrieval","new_object","40","Backpack_Suitcase.jpg",".",".","36","0","55"
"4","4","retrieval","new_object","41","Toolbox_BlackOpen.jpg",".",".","36","0","206"
"4","4","retrieval","new_object","42","Bread_Loaf.jpg",".",".","36","0","510"
"4","4","retrieval","new_object","43","Statue_Man.jpg",".",".","36","0","20"
"4","4","retrieval","new_object","44","Bus_School.jpg",".",".","37","1","46"
"4","4","retrieval","old_object","45","Balcony.jpg",".","3","37","0","52"
"4","4","retrieval","old_object","46","Broccoli.jpg",".","3","36","1","17"
"4","4","retrieval","old_object","47","Ginger.jpg",".","1","36","1","299"
"4","4","retrieval","old_object","48","Stool_Camping.jpg",".","1","36","1","114"
"4","4","retrieval","new_object","49","Aquarium.jpg",".",".","36","0","393"
"4","4","retrieval","new_object","50","Clock_Interior.jpg",".",".","36","0","213"
"4","4","retrieval","old_object","51","Mitt_Blue.jpg",".","1","36","1","603"
"4","4","retrieval","old_object","52","Match.jpg",".","3","36","1","190"
"4","4","retrieval","new_object","53","Gecko.jpg",".",".","36","0","366"
"4","4","retrieval","old_object","54","RecorderInstrument.jpg",".","1","36","1","211"
"4","4","retrieval","old_object","55","Protractor.jpg",".","1","36","1","1062"
"4","4","retrieval","new_object","56","Mug_Travel.jpg",".",".","36","0","231"
"4","4","retrieval","old_object","57","Makeup_Bag.jpg",".","1","36","1","60"
"4","4","retrieval","new_object","58","BumperCar.jpg",".",".","36","0","228"
"4","4","retrieval","old_object","59","Scorpion.jpg",".","3","36","1","303"
"4","4","retrieval","old_object","60","Dropper.jpg",".","1","37","0","225"
"4","4","retrieval","new_object","61","ProjectorScreen.jpg",".",".","36","0","185"
"4","4","retrieval","new_object","62","sign_traffic.jpg",".",".","36","0","396"
"4","4","retrieval","old_object","63","PersonWooden.jpg",".","1","36","1","185"
"4","4","retrieval","new_object","64","HairCurler.jpg",".",".","36","0","709"
"4","4","retrieval","new_object","65","Bowl_Glass.jpg",".",".","36","0","518"
"4","4","retrieval","old_object","67","Hat_Police.jpg",".","1","36","1","1406"
"4","4","retrieval","old_object","68","TelescopeSpacecraft.jpg",".","1","36","1","558"
"4","4","retrieval","new_object","69","Hubcap.jpg",".",".","36","0","21"
"4","4","retrieval","old_object","70","Ruler_Wooden.jpg",".","3","37","0","292"
"4","4","retrieval","old_object","71","Clamp_Screw.jpg",".","1","37","0","142"
"4","4","retrieval","old_object","72","Toy_Bat.jpg",".","1","37","0","942"
"4","4","retrieval","old_object","73","Flashlight.jpg",".","3","37","0","23"
"4","4","retrieval","old_object","74","Pretzel_Sticks.jpg",".","1","37","0","153"
"4","4","retrieval","old_object","75","Seeder.jpg",".","1","37","0","87"
"4","4","retrieval","old_object","76","ComputerKey_Escape.jpg",".","1","36","1","91"
"4","4","retrieval","new_object","77","Platter_Vegetables.jpg",".",".","36","0","228"
"4","4","retrieval","new_object","78","MemoPaperSpike.jpg",".",".","36","0","192"
"4","4","retrieval","old_object","79","Celery.jpg",".","1","36","1","225"
"4","4","retrieval","new_object","80","Lantern_Chinese.jpg",".",".","36","0","123"
"4","4","retrieval","old_object","81","Decoration_ChristmasWhite.jpg",".","3","36","1","69"
"4","4","retrieval","new_object","82","Briefcase_Silver.jpg",".",".","36","0","136"
"4","4","retrieval","new_object","83","Case_Pencil.jpg",".",".","37","1","45"
"4","4","retrieval","new_object","84","Hockey_Puck.jpg",".",".","37","1","230"
"4","4","retrieval","old_object","85","Snorkle.jpg",".","1","37","0","107"
"4","4","retrieval","old_object","86","Card_Deck.jpg",".","1","37","0","26"
"4","4","retrieval","new_object","87","Stone_AncientWriting.jpg",".",".","37","1","125"
"4","4","retrieval","new_object","88","SatelliteDish.jpg",".",".","37","1","35"
"4","4","retrieval","new_object","89","Lighter_Black.jpg",".",".","37","1","16"
"4","4","retrieval","old_object","90","TowelRack_Metal.jpg",".","3","37","0","94"
"4","4","retrieval","new_object","91","Compact_Mirror.jpg",".",".","36","0","268"
"4","4","retrieval","old_object","92","Puzzle_Animal.jpg",".","1","36","1","97"
"4","4","retrieval","new_object","93","TailLight.jpg",".",".","36","0","20"
"4","4","retrieval","new_object","94","Cart_Janitor.jpg",".",".","36","0","3"
"4","4","retrieval","old_object","95","Toy_Wooden rings.jpg",".","1","36","1","379"
"4","4","retrieval","new_object","96","Wontons.jpg",".",".","36","0","515"
"4","4","retrieval","new_object","97","SewingPin_Cushion.jpg",".",".","36","0","554"
"4","4","retrieval","new_object","98","GasStation.jpg",".",".","36","0","455"
"4","4","retrieval","old_object","99","Toy_Christmastree.jpg",".","3","36","1","142"
"4","4","retrieval","new_object","100","Nuts_Pecan.jpg",".",".","36","0","12"
"4","4","retrieval","new_object","101","Toy_PandaPlushie.jpg",".",".","36","0","121"
"4","4","retrieval","old_object","102","Stick_Stirring.jpg",".","3","36","1","466"
"4","4","retrieval","new_object","103","Radish.jpg",".",".","37","1","307"
"4","4","retrieval","old_object","104","Speakers_Theatre.jpg",".","1","37","0","38"
"4","4","retrieval","old_object","105","Candleholder_LampShaped.jpg",".","1","37","0","302"
"4","4","retrieval","new_object","106","Mailbox_Antique.jpg",".",".","0","0","2000"
"4","4","retrieval","old_object","107","WalkieTalkie_Yellow.jpg",".","3","0","0","2000"
"4","4","retrieval","old_object","108","Sandwich_Ham.jpg",".","1","0","0","2000"
"4","4","retrieval","new_object","109","SolderingIron.jpg",".",".","37","1","195"
"4","4","retrieval","old_object","110","Carrot.jpg",".","3","0","0","2000"
"4","4","retrieval","new_object","111","Statue_Horse.jpg",".",".","0","0","2000"
"4","4","retrieval","old_object","112","PaperCutter.jpg",".","1","0","0","2000"
"4","4","retrieval","new_object","113","Television.jpg",".",".","0","0","2000"
"4","4","retrieval","new_object","114","Bandage_Adhesive.jpg",".",".","0","0","2000"
"4","4","retrieval","old_object","115","ColoringSet.jpg",".","1","0","0","2000"
"4","4","retrieval","old_object","116","Level.jpg",".","1","0","0","2000"
"4","4","retrieval","new_object","117","Clave.jpg",".",".","37","1","1169"
"4","4","retrieval","new_object","118","Handbag.jpg",".",".","37","1","175"
"4","4","retrieval","old_object","119","ShinPads.jpg",".","3","37","0","644"
"4","4","retrieval","new_object","120","Microwave.jpg",".",".","36","0","89"
"4","4","retrieval","new_object","121","MechanicalSpring.jpg",".",".","36","0","34"
"4","4","retrieval","new_object","122","Taco.jpg",".",".","36","0","118"
"4","4","retrieval","old_object","123","Toy_Taxi.jpg",".","1","36","1","92"
"4","4","retrieval","old_object","124","Bowl_Chopsticks.jpg",".","1","37","0","107"
"4","4","retrieval","old_object","125","Dragonfly.jpg",".","3","36","1","60"
"4","4","retrieval","new_object","126","Table_Saw.jpg",".",".","36","0","11"
"4","4","retrieval","new_object","127","LicensePlate.jpg",".",".","36","0","219"
"4","4","retrieval","old_object","128","DeepFryer.jpg",".","1","36","1","11"
"4","4","retrieval","new_object","129","Arch_Triomphe.jpg",".",".","36","0","142"
"4","4","retrieval","old_object","130","BrainSagittal.jpg",".","3","37","0","10"
"4","4","retrieval","new_object","131","Makeup_Compact.jpg",".",".","36","0","45"
"4","4","retrieval","old_object","133","Paddle_Canoe.jpg",".","3","36","1","125"
"4","4","retrieval","old_object","134","Pear_Green.jpg",".","3","36","1","41"
"4","4","retrieval","new_object","135","RAMchip.jpg",".",".","36","0","151"
"4","4","retrieval","old_object","136","Ostrich.jpg",".","3","36","1","4"
"4","4","retrieval","new_object","137","PagodaModel.jpg",".",".","36","0","152"
"4","4","retrieval","old_object","138","VinylRecord.jpg",".","1","36","1","193"
"4","4","retrieval","new_object","139","Cake_Cheese.jpg",".",".","36","0","4294967295"
"4","4","retrieval","new_object","140","Walker_Blue.jpg",".",".","36","0","228"
"4","4","retrieval","new_object","141","Lens_Camera.jpg",".",".","36","0","363"
"4","4","retrieval","new_object","142","Bread_Carrot.jpg",".",".","36","0","256"
"4","4","retrieval","old_object","143","Sign_SlipperyRoad.jpg",".","3","36","1","13"
"4","4","retrieval","old_object","144","Dice.jpg",".","1","37","0","458"
"4","4","retrieval","old_object","145","Lobster.jpg",".","3","36","1","201"
"4","4","retrieval","old_object","146","Canister_Tea.jpg",".","3","36","1","131"
"4","4","retrieval","new_object","147","Bottle_Beer.jpg",".",".","36","0","133"
"4","4","retrieval","old_object","148","Neckrest.jpg",".","3","36","1","339"
"4","4","retrieval","new_object","149","Scythe.jpg",".",".","36","0","32"
"4","4","retrieval","old_object","150","Shoes_Mould.jpg",".","3","36","1","106"
"4","4","retrieval","old_object","151","Suitcase.jpg",".","3","36","1","1"
"4","4","retrieval","old_object","152","Case_CD.jpg",".","3","36","1","19"
"4","4","retrieval","new_object","153","Canister_Oil.jpg",".",".","36","0","110"
"4","4","retrieval","new_object","154","Toy_MerryGoRound.jpg",".",".","36","0","180"
"4","4","retrieval","old_object","155","Clippers_Glass.jpg",".","3","36","1","112"
"4","4","retrieval","old_object","156","ClothesDryingRack.jpg",".","1","36","1","25"
"4","4","retrieval","new_object","157","Light_Studio.jpg",".",".","37","1","777"
"4","4","retrieval","new_object","158","Earring_Hoop.jpg",".",".","37","1","49"
"4","4","retrieval","old_object","159","Tape_Dispenser.jpg",".","3","37","0","127"
"4","4","retrieval","old_object","160","Shirt_Tshirt.jpg",".","3","37","0","375"
"4","4","retrieval","new_object","161","Candy_Lozenge.jpg",".",".","37","1","78"
"4","4","retrieval","new_object","162","MousepadAndMouse.jpg",".",".","37","1","345"
"4","4","retrieval","old_object","163","MatchBook.jpg",".","3","37","0","153"
"4","4","retrieval","old_object","164","Cloud.jpg",".","1","36","1","99"
"4","4","retrieval","new_object","165","WaterWell.jpg",".",".","36","0","55"
"4","4","retrieval","old_object","166","Tray_Metal.jpg",".","3","36","1","185"
"4","4","retrieval","new_object","167","Toy_LambPlushie.jpg",".",".","36","0","335"
"4","4","retrieval","new_object","168","Castle_Sand.jpg",".",".","36","0","9"
"4","4","retrieval","new_object","169","Tube_Glue.jpg",".",".","37","1","346"
"4","4","retrieval","new_object","170","Helmet_Motorcycle.jpg",".",".","37","1","348"
"4","4","retrieval","new_object","171","Box_FirstAid.jpg",".",".","37","1","166"
"4","4","retrieval","old_object","172","PaperTowel_Brown.jpg",".","1","37","0","249"
"4","4","retrieval","old_object","173","HairClipper.jpg",".","1","37","0","433"
"4","4","retrieval","new_object","174","PencilCase.jpg",".",".","37","1","80"
"4","4","retrieval","new_object","175","Bucket_Halloween.jpg",".",".","37","1","211"
"4","4","retrieval","new_object","176","CarSuspension.jpg",".",".","37","1","210"
"4","4","retrieval","new_object","177","Toy_Lizard.jpg",".",".","37","1","133"
"4","4","retrieval","new_object","178","AirPump.jpg",".",".","37","1","264"
"4","4","retrieval","old_object","179","Heater_ElectricUpright.jpg",".","3","37","0","28"
"4","4","retrieval","new_object","180","Bleachers.jpg",".",".","37","1","99"
"4","4","retrieval","old_object","181","HairBand.jpg",".","3","37","0","632"
"4","4","retrieval","new_object","182","Carabiner_Orange.jpg",".",".","36","0","224"
"4","4","retrieval","new_object","183","Barometer_Wood.jpg",".",".","37","1","1086"
"4","4","retrieval","old_object","184","Toy_Rooster.jpg",".","1","37","0","131"
"4","4","retrieval","new_object","185","SofaAntique.jpg",".",".","37","1","61"
"4","4","retrieval","new_object","186","DoubleBass.jpg",".",".","37","1","70"
"4","4","retrieval","old_object","187","ShoeLace_Flat.jpg",".","3","37","0","821"
"4","4","retrieval","new_object","188","Light_Halogen.jpg",".",".","37","1","92"
"4","4","retrieval","old_object","189","Boat_Colourful.jpg",".","3","36","1","304"
"4","4","retrieval","new_object","190","Mask_HockeyGoalie.jpg",".",".","36","0","246"
"4","4","retrieval","old_object","191","Shovel_Garden.jpg",".","3","36","1","133"
"4","4","retrieval","new_object","192","Cable_JumpStart.jpg",".",".","36","0","221"
"4","4","retrieval","old_object","193","Cologne.jpg",".","1","36","1","187"
"4","4","retrieval","old_object","194","SoapDish.jpg",".","1","36","1","43"
"4","4","retrieval","old_object","195","Stick_IceHockey.jpg",".","1","36","1","91"
"4","4","retrieval","new_object","196","Mask_Ski.jpg",".",".","36","0","23"
"4","4","retrieval","new_object","197","Toy_Truck.jpg",".",".","36","0","345"
"4","4","retrieval","new_object","199","Trash_Medical.jpg",".",".","37","1","106"
"4","4","retrieval","old_object","200","Coral.jpg",".","3","37","0","174"
"4","4","retrieval","old_object","201","Otoscope.jpg",".","3","37","0","82"
"4","4","retrieval","new_object","202","Bird_Duck.jpg",".",".","37","1","53"
"4","4","retrieval","new_object","203","DartBoard.jpg",".",".","37","1","1588"
"4","4","retrieval","new_object","204","FireAlarm.jpg",".",".","37","1","497"
"4","4","retrieval","old_object","205","FlintIgniter.jpg",".","3","37","0","253"
"4","4","retrieval","new_object","206","Corkboard.jpg",".",".","37","1","34"
"4","4","retrieval","new_object","207","Barbecue_Charcoal.jpg",".",".","37","1","411"
"4","4","retrieval","old_object","208","Boar.jpg",".","3","37","0","120"
"4","4","retrieval","old_object","209","Computer_ExpansionCard.jpg",".","3","37","0","171"
"4","4","retrieval","old_object","210","Bicycle_Kids.jpg",".","1","37","0","267"
"4","4","retrieval","old_object","211","DonaldDuck_Toy.jpg",".","1","36","1","70"
"4","4","retrieval","new_object","212","Bark.jpg",".",".","36","0","337"
"4","4","retrieval","old_object","213","Paddle_Ball.jpg",".","3","36","1","12"
"4","4","retrieval","new_object","214","Mailbox_Community.jpg",".",".","36","0","557"
"4","4","retrieval","old_object","215","Car_Buggy.jpg",".","1","37","0","49"
"4","4","retrieval","old_object","216","Glove_Baseball.jpg",".","1","36","1","128"
"4","4","retrieval","old_object","217","Pyramid.jpg",".","3","36","1","599"
"4","4","retrieval","new_object","218","CoffeeLid.jpg",".",".","36","0","138"
"4","4","retrieval","old_object","219","Pouch_Red.jpg",".","3","36","1","21"
"4","4","retrieval","new_object","220","SelfieStick.jpg",".",".","36","0","70"
"4","4","retrieval","new_object","221","Milkshake_Strawberry.jpg",".",".","36","0","74"
"4","4","retrieval","new_object","222","Bat_Cricket.jpg",".",".","37","1","214"
"4","4","retrieval","old_object","223","CarLighter.jpg",".","1","37","0","51"
"4","4","retrieval","new_object","224","MetalDetector.jpg",".",".","37","1","15"
"4","4","retrieval","old_object","225","Bagpipes.jpg",".","1","37","0","1045"
"4","4","retrieval","new_object","226","Crab.jpg",".",".","37","1","113"
"4","4","retrieval","new_object","227","DogSled.jpg",".",".","37","1","42"
"4","4","retrieval","new_object","228","Oars.jpg",".",".","37","1","422"
"4","4","retrieval","old_object","229","Camera_Video.jpg",".","1","37","0","46"
"4","4","retrieval","new_object","230","Light_Fixtures.jpg",".",".","36","0","98"
"4","4","retrieval","old_object","231","WaterCooler.jpg",".","3","36","1","21"
"4","4","retrieval","new_object","232","Sign_Construction.jpg",".",".","36","0","142"
"4","4","retrieval","old_object","233","Glasses_Sun.jpg",".","1","36","1","230"
"4","4","retrieval","old_object","234","Blueberry.jpg",".","3","37","0","61"
"4","4","retrieval","new_object","235","Spear.jpg",".",".","37","1","80"
"4","4","retrieval","new_object","236","Flags_CheckeredRacing.jpg",".",".","37","1","223"
"4","4","retrieval","old_object","237","Cheeseburger.jpg",".","3","37","0","199"
"4","4","retrieval","old_object","238","CDstack.jpg",".","1","37","0","8"
"4","4","retrieval","new_object","239","Barometer.jpg",".",".","37","1","21"
"4","4","retrieval","old_object","240","EyeChart.jpg",".","1","37","0","305"
"4","4","retrieval","old_object","241","Airplane_Small.jpg",".","1","37","0","238"
"4","4","retrieval","new_object","242","CodeDoorLock.jpg",".",".","37","1","9"
"4","4","retrieval","old_object","243","SnowmanDecor.jpg",".","1","37","0","14"
"4","4","retrieval","old_object","244","Coin.jpg",".","3","37","0","102"
"4","4","retrieval","new_object","245","Desk_White.jpg",".",".","37","1","326"
"4","4","retrieval","old_object","246","Toy_TrailerAirport.jpg",".","3","37","0","16"
"4","4","retrieval","new_object","247","Brush_Light.jpg",".",".","37","1","233"
"4","4","retrieval","new_object","248","Hedgehog.jpg",".",".","37","1","184"
"4","4","retrieval","old_object","249","IceCubes.jpg",".","1","37","0","92"
"4","4","retrieval","old_object","250","Nail.jpg",".","1","37","0","74"
"4","4","retrieval","new_object","251","Cinnamonroll.jpg",".",".","37","1","126"
"4","4","retrieval","old_object","252","Snowpea.jpg",".","1","37","0","482"
"4","4","retrieval","new_object","253","Bone.jpg",".",".","37","1","84"
"4","4","retrieval","old_object","254","LeafBlower.jpg",".","3","37","0","181"
"4","4","retrieval","old_object","255","Mask_VenetianCat.jpg",".","1","37","0","127"
"4","4","retrieval","new_object","256","PocketKnife.jpg",".",".","36","0","132"
"4","4","retrieval","old_object","257","Puffin.jpg",".","3","36","1","70"
"4","4","retrieval","old_object","258","Lynx.jpg",".","3","36","1","174"
"4","4","retrieval","old_object","259","NailFiles.jpg",".","1","36","1","667"
"4","4","retrieval","old_object","260","Walkman.jpg",".","3","36","1","42"
"4","4","retrieval","new_object","261","Weathervane.jpg",".",".","36","0","79"
"4","4","retrieval","new_object","262","Stove_WithOven.jpg",".",".","36","0","47"
"4","4","retrieval","new_object","263","Cassette_Video.jpg",".",".","37","1","423"
"4","4","retrieval","old_object","265","Notepad.jpg",".","3","37","0","55"
"4","4","retrieval","old_object","266","Desk_Office.jpg",".","3","37","0","22"
"4","4","retrieval","new_object","267","Lollipop_Rainbow.jpg",".",".","37","1","7"
"4","4","retrieval","new_object","268","Glass_Beer.jpg",".",".","37","1","132"
"4","4","retrieval","new_object","269","Spatula.jpg",".",".","37","1","47"
"4","4","retrieval","old_object","270","Garlic_Clove.jpg",".","1","37","0","417"
"4","4","retrieval","old_object","271","PumpBreast.jpg",".","1","37","0","14"
"4","4","retrieval","old_object","272","Backhoe.jpg",".","3","37","0","529"
"4","4","retrieval","new_object","273","Hat_Colonial.jpg",".",".","36","0","1239"
"4","4","retrieval","old_object","274","Toy_Ladybug.jpg",".","3","37","0","221"
"4","4","retrieval","old_object","275","Barrel_Wine.jpg",".","3","37","0","117"
"4","4","retrieval","old_object","276","Tray_Medical.jpg",".","1","36","1","754"
"4","4","retrieval","old_object","277","Toy_Firetruck.jpg",".","1","36","1","205"
"4","4","retrieval","old_object","278","Piano_Upright.jpg",".","1","36","1","367"
"4","4","retrieval","old_object","279","WaterHeater.jpg",".","3","36","1","113"
"4","4","retrieval","new_object","280","Envelope_Manila.jpg",".",".","36","0","355"
"4","4","retrieval","new_object","281","Tree_Fir.jpg",".",".","36","0","88"
"4","4","retrieval","new_object","282","PumiceStone.jpg",".",".","36","0","4"
"4","4","retrieval","new_object","283","LifeJacket_Orangejpg.jpg",".",".","36","0","439"
"4","4","retrieval","old_object","284","Sink_Kitchen.jpg",".","1","36","1","0"
"4","4","retrieval","old_object","285","Sphinx.jpg",".","3","36","1","864"
"4","4","retrieval","new_object","286","Bag_Diaper.jpg",".",".","36","0","137"
"4","4","retrieval","new_object","287","Thermometer_Room.jpg",".",".","36","0","23"
"4","4","retrieval","old_object","288","Squash_Butternut.jpg",".","3","37","0","101"
"4","4","retrieval","new_object","289","Cup_Bathroom.jpg",".",".","37","1","1109"
"4","4","retrieval","new_object","290","ManholeCover.jpg",".",".","37","1","89"
"4","4","retrieval","old_object","291","Pasta_Fettuccine.jpg",".","3","37","0","125"
"4","4","retrieval","old_object","292","Shrimp.jpg",".","1","37","0","81"
"4","4","retrieval","old_object","293","VacuumHose.jpg",".","1","37","0","228"
"4","4","retrieval","new_object","294","Ship_Cruise.jpg",".",".","37","1","66"
"4","4","retrieval","new_object","295","Candy_Toffee.jpg",".",".","36","0","837"
"4","4","retrieval","old_object","296","Toy_DonkeyFur.jpg",".","3","37","0","117"
"4","4","retrieval","new_object","297","IceCream_Popsicle.jpg",".",".","37","1","31"
"4","4","retrieval","new_object","298","Cannon.jpg",".",".","37","1","31"
"4","4","retrieval","old_object","299","Mat_Bamboo.jpg",".","3","37","0","41"
"4","4","retrieval","old_object","300","Golf_Club.jpg",".","1","37","0","127"
"4","4","retrieval","old_object","301","GrillRack.jpg",".","1","37","0","1218"
"4","4","retrieval","new_object","302","Bible.jpg",".",".","36","0","275"
"4","4","retrieval","old_object","303","Box_Cutlery.jpg",".","1","36","1","204"
"4","4","retrieval","old_object","304","PowderProtein.jpg",".","3","36","1","137"
"4","4","retrieval","new_object","305","Acorn.jpg",".",".","36","0","139"
"4","4","retrieval","old_object","306","MortarPestle_WhiteMarble.jpg",".","1","37","0","64"
"4","4","retrieval","old_object","307","BowlingPin.jpg",".","3","37","0","54"
"4","4","retrieval","new_object","308","Wire_ElectricalSingle.jpg",".",".","37","1","211"
"4","4","retrieval","new_object","309","Ladybug.jpg",".",".","37","1","4294967295"
"4","4","retrieval","new_object","310","Cymbals.jpg",".",".","37","1","191"
"4","4","retrieval","new_object","311","Can_Oblong.jpg",".",".","37","1","49"
"4","4","retrieval","old_object","312","Fan_Straw.jpg",".","1","37","0","16"
"4","4","retrieval","new_object","313","PyramidWooden.jpg",".",".","37","1","173"
"4","4","retrieval","old_object","314","Suit_Women.jpg",".","1","37","0","440"
"4","4","retrieval","old_object","315","Heater_Outdoor.jpg",".","3","37","0","189"
"4","4","retrieval","old_object","316","FuzzyDice.jpg",".","1","37","0","107"
"4","4","retrieval","old_object","317","TowelRack_Brown.jpg",".","3","36","1","31"
"4","4","retrieval","old_object","318","IroningBoard.jpg",".","1","36","1","34"
"4","4","retrieval","old_object","319","Dog_Bulldog.jpg",".","3","36","1","722"
"4","4","retrieval","old_object","320","Stone_Spa.jpg",".","3","36","1","354"
"4","4","retrieval","new_object","321","SolderingWire.jpg",".",".","36","0","270"
"4","4","retrieval","old_object","322","Helicopter.jpg",".","3","36","1","401"
"4","4","retrieval","new_object","323","Stool_Metal.jpg",".",".","37","1","126"
"4","4","retrieval","old_object","324","Box_WoodCrate.jpg",".","3","37","0","0"
"4","4","retrieval","old_object","325","Bag_Toiletry.jpg",".","","37","0","44"
"4","4","demographics_block","gender","1",".",".",".","male","1","15875"
"4","4","demographics_block","age","1",".",".",".","30","1","15875"
"4","4","demographics_block","education","1",".",".",".","15","1","15875"
"4","4","demographics_block","left_right_handed","2",".",".",".","Right","1","5068"
"4","4","demographics_block","raceoption1","2",".",".",".","","1","5068"
"4","4","demographics_block","raceoption2","2",".",".",".","","1","5068"
"4","4","demographics_block","raceoption3","2",".",".",".","","1","5068"
"4","4","demographics_block","raceoption4","2",".",".",".","3","1","5068"
"4","4","demographics_block","raceoption5","2",".",".",".","","1","5068"
"4","4","demographics_block","raceoption6","2",".",".",".","","1","5068"
"4","4","demographics_block","raceoption7","2",".",".",".","","1","5068"
"4","4","demographics_block","raceoption8","2",".",".",".","","1","5068"
"4","4","demographics_block","raceoption9","2",".",".",".","","1","5068"
"4","4","demographics_block","raceother","2",".",".",".","","1","5068"
"4","4","demographics_block","raceother","2",".",".",".","","1","5068"
"4","4","demographics_block","english_language","2",".",".",".","Yes","1","5068"
"4","4","demographics_block","other","2",".",".",".","","1","5068"
"4","4","demographics_block","eyesight","3",".",".",".","Yes","1","4829"
"4","4","demographics_block","colorblind","3",".",".",".","No","1","4829"
"8","8","encoding","encoding","1","HairBand.jpg","3",".","0","0","1000"
"8","8","encoding","encoding","2","Bus_DoubleDecker.jpg","3",".","0","0","1000"
"8","8","encoding","encoding","3","Notepad.jpg","3",".","0","0","1000"
"8","8","encoding","encoding","4","Suit_Women.jpg","1",".","0","0","1000"
"8","8","encoding","encoding","5","Canister_Tea.jpg","3",".","0","0","1000"
"8","8","encoding","encoding","6","Box_WoodCrate.jpg","3",".","0","0","1000"
"8","8","encoding","encoding","7","ComputerKey_Escape.jpg","1",".","0","0","1000"
"8","8","encoding","encoding","8","Toy_TrailerAirport.jpg","3",".","37","0","162"
"8","8","encoding","encoding","9","Tape_Dispenser.jpg","3",".","0","0","1000"
"8","8","encoding","encoding","10","FuzzyDice.jpg","1",".","0","0","1000"
"8","8","encoding","encoding","11","Pouch_Red.jpg","3",".","0","0","1000"
"8","8","encoding","encoding","12","Sign_SlipperyRoad.jpg","3",".","0","0","1000"
"8","8","encoding","encoding","13","FlintIgniter.jpg","3",".","0","0","1000"
"8","8","encoding","encoding","14","Otoscope.jpg","3",".","0","0","1000"
"8","8","encoding","encoding","15","Dragonfly.jpg","3",".","0","0","1000"
"8","8","encoding","encoding","16","CDstack.jpg","1",".","0","0","1000"
"8","8","encoding","encoding","17","Coral.jpg","3",".","0","0","1000"
"8","8","encoding","encoding","18","Snowpea.jpg","1",".","36","0","91"
"8","8","encoding","encoding","19","Toy_Christmastree.jpg","3",".","0","0","1000"
"8","8","encoding","encoding","20","TowelRack_Metal.jpg","3",".","36","0","864"
"8","8","encoding","encoding","21","Car_Buggy.jpg","1",".","0","0","1000"
"8","8","encoding","encoding","22","Blueberry.jpg","3",".","36","0","20"
"8","8","encoding","encoding","23","MatchBook.jpg","3",".","0","0","1000"
"8","8","encoding","encoding","24","Ginger.jpg","1",".","0","0","1000"
"8","8","encoding","encoding","25","Carrot.jpg","3",".","36","0","943"
"8","8","encoding","encoding","26","Clippers_Glass.jpg","3",".","0","0","1000"
"8","8","encoding","encoding","27","Coral.jpg","3",".","0","0","1000"
"8","8","encoding","encoding","28","Bag_Toiletry.jpg","3",".","0","0","1000"
"8","8","encoding","encoding","29","Boat_Colourful.jpg","3",".","0","0","1000"
"8","8","encoding","encoding","30","Stool_Camping.jpg","1",".","0","0","1000"
"8","8","encoding","encoding","31","Match.jpg","3",".","0","0","1000"
"8","8","encoding","encoding","32","Toy_Firetruck.jpg","1",".","0","0","1000"
"8","8","encoding","encoding","33","Toy_DonkeyFur.jpg","3",".","0","0","1000"
"8","8","encoding","encoding","34","HairClipper.jpg","1",".","0","0","1000"
"8","8","encoding","encoding","35","Case_CD.jpg","3",".","0","0","1000"
"8","8","encoding","encoding","36","Stick_Stirring.jpg","3",".","0","0","1000"
"8","8","encoding","encoding","37","Shoes_Mould.jpg","3",".","0","0","1000"
"8","8","encoding","encoding","38","Ruler_Wooden.jpg","3",".","0","0","1000"
"8","8","encoding","encoding","39","PersonWooden.jpg","1",".","0","0","1000"
"8","8","encoding","encoding","40","Paddle_Ball.jpg","3",".","0","0","1000"
"8","8","encoding","encoding","41","Mitt_Blue.jpg","1",".","0","0","1000"
"8","8","encoding","encoding","42","TreeStump.jpg","3",".","37","0","915"
"8","8","encoding","encoding","43","Shoes_Mould.jpg","3",".","0","0","1000"
"8","8","encoding","encoding","44","Ruler_Wooden.jpg","3",".","37","0","914"
"8","8","encoding","encoding","45","LintRemover.jpg","1",".","37","0","941"
"8","8","encoding","encoding","46","Bucket_WoodenLight.jpg","3",".","0","0","1000"
"8","8","encoding","encoding","47","TowelRack_Metal.jpg","3",".","37","0","946"
"8","8","encoding","encoding","48","WalkieTalkie_Yellow.jpg","3",".","0","0","1000"
"8","8","encoding","encoding","49","Neckrest.jpg","3",".","0","0","1000"
"8","8","encoding","encoding","50","Cheeseburger.jpg","3",".","0","0","1000"
"8","8","encoding","encoding","51","Shirt_Tshirt.jpg","3",".","0","0","1000"
"8","8","encoding","encoding","52","Piano_Upright.jpg","1",".","0","0","1000"
"8","8","encoding","encoding","53","Flashlight.jpg","3",".","0","0","1000"
"8","8","encoding","encoding","54","Camera_Video.jpg","1",".","37","0","938"
"8","8","encoding","encoding","55","Paddle_Ball.jpg","3",".","0","0","1000"
"8","8","encoding","encoding","56","Fan_Straw.jpg","1",".","36","0","952"
"8","8","encoding","encoding","57","Toy_TrailerAirport.jpg","3",".","0","0","1000"
"8","8","encoding","encoding","58","Lynx.jpg","3",".","36","0","939"
"8","8","encoding","encoding","59","Decoration_ChristmasWhite.jpg","3",".","0","0","1000"
"8","8","encoding","encoding","60","Glove_Baseball.jpg","1",".","0","0","1000"
"8","8","encoding","encoding","61","PowderProtein.jpg","3",".","0","0","1000"
"8","8","encoding","encoding","62","PowderProtein.jpg","3",".","36","0","861"
"8","8","encoding","encoding","63","ShinPads.jpg","3",".","0","0","1000"
"8","8","encoding","encoding","64","Toy_BearBrownPlushie.jpg","3",".","0","0","1000"
"8","8","encoding","encoding","65","Squash_Butternut.jpg","3",".","0","0","1000"
"8","8","encoding","encoding","67","Ruler_Wooden.jpg","3",".","0","0","1000"
"8","8","encoding","encoding","68","Notepad.jpg","3",".","0","0","1000"
"8","8","encoding","encoding","69","Nail.jpg","1",".","0","0","1000"
"8","8","encoding","encoding","70","Stick_Stirring.jpg","3",".","0","0","1000"
"8","8","encoding","encoding","71","Helicopter.jpg","3",".","0","0","1000"
"8","8","encoding","encoding","72","Toy_BeadMaze.jpg","3",".","0","0","1000"
"8","8","encoding","encoding","73","BrainSagittal.jpg","3",".","0","0","1000"
"8","8","encoding","encoding","74","Walkman.jpg","3",".","0","0","1000"
"8","8","encoding","encoding","75","Jars_PetFood.jpg","3",".","0","0","1000"
"8","8","encoding","encoding","76","Hat_Police.jpg","1",".","37","0","425"
"8","8","encoding","encoding","77","BrainSagittal.jpg","3",".","0","0","1000"
"8","8","encoding","encoding","78","TelescopeSpacecraft.jpg","1",".","0","0","1000"
"8","8","encoding","encoding","79","Coral.jpg","3",".","0","0","1000"
"8","8","encoding","encoding","80","WaterCooler.jpg","3",".","0","0","1000"
"8","8","encoding","encoding","81","Flashlight.jpg","3",".","37","0","872"
"8","8","encoding","encoding","82","Paddle_Canoe.jpg","3",".","37","0","910"
"8","8","encoding","encoding","83","Lynx.jpg","3",".","0","0","1000"
"8","8","encoding","encoding","84","Paddle_Canoe.jpg","3",".","0","0","1000"
"8","8","encoding","encoding","85","Card_Deck.jpg","1",".","0","0","1000"
"8","8","encoding","encoding","86","ShoeLace_Flat.jpg","3",".","0","0","1000"
"8","8","encoding","encoding","87","TowelRack_Brown.jpg","3",".","0","0","1000"
"8","8","encoding","encoding","88","Toy_Ladybug.jpg","3",".","0","0","1000"
"8","8","encoding","encoding","89","TowelRack_Metal.jpg","3",".","36","0","832"
"8","8","encoding","encoding","90","BrainSagittal.jpg","3",".","0","0","1000"
"8","8","encoding","encoding","91","Celery.jpg","1",".","0","0","1000"
"8","8","encoding","encoding","92","VinylRecord.jpg","1",".","0","0","1000"
"8","8","encoding","encoding","93","Drum_Ramadan.jpg","1",".","0","0","1000"
"8","8","encoding","encoding","94","Broccoli.jpg","3",".","0","0","1000"
"8","8","encoding","encoding","95","Toy_Ladybug.jpg","3",".","0","0","1000"
"8","8","encoding","encoding","96","Toy_Wooden rings.jpg","1",".","0","0","1000"
"8","8","encoding","encoding","97","Helicopter.jpg","3",".","37","0","984"
"8","8","encoding","encoding","98","Squash_Butternut.jpg","3",".","0","0","1000"
"8","8","encoding","encoding","99","BowlingPin.jpg","3",".","37","0","949"
"8","8","encoding","encoding","100","Stone_Spa.jpg","3",".","0","0","1000"
"8","8","encoding","encoding","101","MatchBook.jpg","3",".","0","0","1000"
"8","8","encoding","encoding","102","Toy_Bat.jpg","1",".","0","0","1000"
"8","8","encoding","encoding","103","Coin.jpg","3",".","0","0","1000"
"8","8","encoding","encoding","104","Desk_Office.jpg","3",".","37","0","187"
"8","8","encoding","encoding","105","Coin.jpg","3",".","37","0","903"
"8","8","encoding","encoding","106","DeepFryer.jpg","1",".","37","0","939"
"8","8","encoding","encoding","107","Pretzel_Sticks.jpg","1",".","0","0","1000"
"8","8","encoding","encoding","108","GrillRack.jpg","1",".","0","0","1000"
"8","8","encoding","encoding","109","Computer_ExpansionCard.jpg","3",".","37","0","66"
"8","8","encoding","encoding","110","Suitcase.jpg","3",".","36","0","496"
"8","8","encoding","encoding","111","ColoringSet.jpg","1",".","0","0","1000"
"8","8","encoding","encoding","112","NailFiles.jpg","1",".","37","0","945"
"8","8","encoding","encoding","113","Puzzle_Animal.jpg","1",".","0","0","1000"
"8","8","encoding","encoding","114","Bus_DoubleDecker.jpg","3",".","0","0","1000"
"8","8","encoding","encoding","115","Box_Cutlery.jpg","1",".","0","0","1000"
"8","8","encoding","encoding","116","BowlingPin.jpg","3",".","0","0","1000"
"8","8","encoding","encoding","117","WaterCooler.jpg","3",".","37","0","624"
"8","8","encoding","encoding","118","Card_TwoSpade.jpg","1",".","0","0","1000"
"8","8","encoding","encoding","119","Backhoe.jpg","3",".","0","0","1000"
"8","8","encoding","encoding","120","Squash_Butternut.jpg","3",".","37","0","302"
"8","8","encoding","encoding","121","Toy_BeadMaze.jpg","3",".","37","0","478"
"8","8","encoding","encoding","122","Lynx.jpg","3",".","37","0","241"
"8","8","encoding","encoding","123","Speakers_Theatre.jpg","1",".","37","0","53"
"8","8","encoding","encoding","124","Dog_Bulldog.jpg","3",".","37","0","863"
"8","8","encoding","encoding","125","Decoration_ChristmasWhite.jpg","3",".","37","0","983"
"8","8","encoding","encoding","126","TreeStump.jpg","3",".","0","0","1000"
"8","8","encoding","encoding","127","PowderProtein.jpg","3",".","37","0","951"
"8","8","encoding","encoding","128","Lobster.jpg","3",".","0","0","1000"
"8","8","encoding","encoding","129","IroningBoard.jpg","1",".","37","0","925"
"8","8","encoding","encoding","130","Pouch_Red.jpg","3",".","0","0","1000"
"8","8","encoding","encoding","131","Seeder.jpg","1",".","37","0","824"
"8","8","encoding","encoding","133","Snorkle.jpg","1",".","0","0","1000"
"8","8","encoding","encoding","134","ClothesDryingRack.jpg","1",".","37","0","871"
"8","8","encoding","encoding","135","ShoeLace_Flat.jpg","3",".","37","0","575"
"8","8","encoding","encoding","136","Heater_ElectricUpright.jpg","3",".","37","0","825"
"8","8","encoding","encoding","137","Match.jpg","3",".","0","0","1000"
"8","8","encoding","encoding","138","Pyramid.jpg","3",".","0","0","1000"
"8","8","encoding","encoding","139","Canister_Tea.jpg","3",".","0","0","1000"
"8","8","encoding","encoding","140","Sphinx.jpg","3",".","0","0","1000"
"8","8","encoding","encoding","141","Protractor.jpg","1",".","0","0","1000"
"8","8","encoding","encoding","142","Bowl_Chopsticks.jpg","1",".","0","0","1000"
"8","8","encoding","encoding","143","ShinPads.jpg","3",".","0","0","1000"
"8","8","encoding","encoding","144","Ostrich.jpg","3",".","36","0","984"
"8","8","encoding","encoding","145","Coin.jpg","3",".","0","0","1000"
"8","8","encoding","encoding","146","Sign_SlipperyRoad.jpg","3",".","0","0","1000"
"8","8","encoding","encoding","147","Broccoli.jpg","3",".","36","0","898"
"8","8","encoding","encoding","148","Toy_Christmastree.jpg","3",".","36","0","847"
"8","8","encoding","encoding","149","Suitcase.jpg","3",".","0","0","1000"
"8","8","encoding","encoding","150","Tray_Metal.jpg","3",".","37","0","985"
"8","8","encoding","encoding","151","Computer_ExpansionCard.jpg","3",".","0","0","1000"
"8","8","encoding","encoding","152","Scorpion.jpg","3",".","36","0","945"
"8","8","encoding","encoding","153","Sphinx.jpg","3",".","0","0","1000"
"8","8","encoding","encoding","154","Toy_BearBrownPlushie.jpg","3",".","0","0","1000"
"8","8","encoding","encoding","155","Carrot.jpg","3",".","36","0","889"
"8","8","encoding","encoding","156","Pasta_Fettuccine.jpg","3",".","36","0","881"
"8","8","encoding","encoding","157","Sandwich_Ham.jpg","1",".","0","0","1000"
"8","8","encoding","encoding","158","Canister_Tea.jpg","3",".","36","0","359"
"8","8","encoding","encoding","159","DonaldDuck_Toy.jpg","1",".","0","0","1000"
"8","8","encoding","encoding","160","Backhoe.jpg","3",".","37","0","932"
"8","8","encoding","encoding","161","Dog_Bulldog.jpg","3",".","36","0","985"
"8","8","encoding","encoding","162","Pouch_Red.jpg","3",".","37","0","907"
"8","8","encoding","encoding","163","Mat_Bamboo.jpg","3",".","36","0","878"
"8","8","encoding","encoding","164","Bucket_WoodenLight.jpg","3",".","37","0","819"
"8","8","encoding","encoding","165","Toy_BeadMaze.jpg","3",".","37","0","809"
"8","8","encoding","encoding","166","CarLighter.jpg","1",".","37","0","851"
"8","8","encoding","encoding","167","Stone_Spa.jpg","3",".","37","0","901"
"8","8","encoding","encoding","168","Toy_Ladybug.jpg","3",".","36","0","872"
"8","8","encoding","encoding","169","MortarPestle_WhiteMarble.jpg","1",".","0","0","1000"
"8","8","encoding","encoding","170","Tape_Dispenser.jpg","3",".","0","0","1000"
"8","8","encoding","encoding","171","SoapDish.jpg","1",".","36","0","907"
"8","8","encoding","encoding","172","Shirt_Tshirt.jpg","3",".","37","0","841"
"8","8","encoding","encoding","173","Mat_Bamboo.jpg","3",".","0","0","1000"
"8","8","encoding","encoding","174","Shovel_Garden.jpg","3",".","0","0","1000"
"8","8","encoding","encoding","175","Dropper.jpg","1",".","37","0","805"
"8","8","encoding","encoding","176","Heater_Outdoor.jpg","3",".","36","0","746"
"8","8","encoding","encoding","177","Heater_Outdoor.jpg","3",".","37","0","644"
"8","8","encoding","encoding","178","Toy_TrailerAirport.jpg","3",".","37","0","273"
"8","8","encoding","encoding","179","Balcony.jpg","3",".","37","0","273"
"8","8","encoding","encoding","180","FlintIgniter.jpg","3",".","36","0","335"
"8","8","encoding","encoding","181","Toy_DonkeyFur.jpg","3",".","37","0","478"
"8","8","encoding","encoding","182","Otoscope.jpg","3",".","0","0","1000"
"8","8","encoding","encoding","183","Scorpion.jpg","3",".","36","0","913"
"8","8","encoding","encoding","184","WaterHeater.jpg","3",".","0","0","1000"
"8","8","encoding","encoding","185","Pasta_Fettuccine.jpg","3",".","0","0","1000"
"8","8","encoding","encoding","186","TreeStump.jpg","3",".","0","0","1000"
"8","8","encoding","encoding","187","TowelRack_Brown.jpg","3",".","0","0","1000"
"8","8","encoding","encoding","188","Shirt_Tshirt.jpg","3",".","37","0","954"
"8","8","encoding","encoding","189","Clippers_Glass.jpg","3",".","0","0","1000"
"8","8","encoding","encoding","190","Flashlight.jpg","3",".","37","0","896"
"8","8","encoding","encoding","191","MatchBook.jpg","3",".","0","0","1000"
"8","8","encoding","encoding","192","Sphinx.jpg","3",".","36","0","859"
"8","8","encoding","encoding","193","BowlingPin.jpg","3",".","37","0","925"
"8","8","encoding","encoding","194","Heater_ElectricUpright.jpg","3",".","37","0","921"
"8","8","encoding","encoding","195","SnowmanDecor.jpg","1",".","36","0","960"
"8","8","encoding","encoding","196","Notepad.jpg","3",".","37","0","964"
"8","8","encoding","encoding","197","Backhoe.jpg","3",".","37","0","863"
"8","8","encoding","encoding","199","Barrel_Wine.jpg","3",".","37","0","908"
"8","8","encoding","encoding","200","LeafBlower.jpg","3",".","37","0","849"
"8","8","encoding","encoding","201","Dragonfly.jpg","3",".","36","0","846"
"8","8","encoding","encoding","202","WaterCooler.jpg","3",".","0","0","1000"
"8","8","encoding","encoding","203","Dice.jpg","1",".","0","0","1000"
"8","8","encoding","encoding","204","Tray_Metal.jpg","3",".","37","0","134"
"8","8","encoding","encoding","205","Shovel_Garden.jpg","3",".","37","0","797"
"8","8","encoding","encoding","206","ShinPads.jpg","3",".","37","0","870"
"8","8","encoding","encoding","207","Neckrest.jpg","3",".","36","0","830"
"8","8","encoding","encoding","208","Bicycle_Kids.jpg","1",".","0","0","1000"
"8","8","encoding","encoding","209","Box_WoodCrate.jpg","3",".","37","0","986"
"8","8","encoding","encoding","210","Puffin.jpg","3",".","36","0","839"
"8","8","encoding","encoding","211","Puffin.jpg","3",".","36","0","876"
"8","8","encoding","encoding","212","WaterHeater.jpg","3",".","0","0","1000"
"8","8","encoding","encoding","213","Shoes_Mould.jpg","3",".","36","0","861"
"8","8","encoding","encoding","214","Helicopter.jpg","3",".","37","0","888"
"8","8","encoding","encoding","215","Boat_Colourful.jpg","3",".","37","0","985"
"8","8","encoding","encoding","216","TowelRack_Brown.jpg","3",".","37","0","909"
"8","8","encoding","encoding","217","Broccoli.jpg","3",".","36","0","885"
"8","8","encoding","encoding","218","Barrel_Wine.jpg","3",".","0","0","1000"
"8","8","encoding","encoding","219","Box_WoodCrate.jpg","3",".","37","0","794"
"8","8","encoding","encoding","220","Heater_ElectricUpright.jpg","3",".","37","0","807"
"8","8","encoding","encoding","221","FlintIgniter.jpg","3",".","37","0","865"
"8","8","encoding","encoding","222","Suitcase.jpg","3",".","37","0","918"
"8","8","encoding","encoding","223","Computer_ExpansionCard.jpg","3",".","0","0","1000"
"8","8","encoding","encoding","224","WaterHeater.jpg","3",".","37","0","859"
"8","8","encoding","encoding","225","Stick_Stirring.jpg","3",".","37","0","922"
"8","8","encoding","encoding","226","RadioactiveContainer.jpg","3",".","0","0","1000"
"8","8","encoding","encoding","227","WalkieTalkie_Yellow.jpg","3",".","0","0","1000"
"8","8","encoding","encoding","228","Tray_Medical.jpg","1",".","37","0","925"
"8","8","encoding","encoding","229","Pyramid.jpg","3",".","36","0","986"
"8","8","encoding","encoding","230","LeafBlower.jpg","3",".","36","0","921"
"8","8","encoding","encoding","231","PaperCutter.jpg","1",".","36","0","859"
"8","8","encoding","encoding","232","Blueberry.jpg","3",".","37","0","642"
"8","8","encoding","encoding","233","Pear_Green.jpg","3",".","37","0","612"
"8","8","encoding","encoding","234","Bus_DoubleDecker.jpg","3",".","37","0","820"
"8","8","encoding","encoding","235","Toy_DonkeyFur.jpg","3",".","36","0","859"
"8","8","encoding","encoding","236","Balcony.jpg","3",".","37","0","884"
"8","8","encoding","encoding","237","Tape_Dispenser.jpg","3",".","36","0","648"
"8","8","encoding","encoding","238","Compressor.jpg","3",".","37","0","199"
"8","8","encoding","encoding","239","Dragonfly.jpg","3",".","37","0","862"
"8","8","encoding","encoding","240","Clamp_Screw.jpg","1",".","0","0","1000"
"8","8","encoding","encoding","241","Cheeseburger.jpg","3",".","37","0","107"
"8","8","encoding","encoding","242","Lobster.jpg","3",".","36","0","66"
"8","8","encoding","encoding","243","RadioactiveContainer.jpg","3",".","0","0","1000"
"8","8","encoding","encoding","244","Mask_VenetianCat.jpg","1",".","36","0","795"
"8","8","encoding","encoding","245","Pyramid.jpg","3",".","37","0","152"
"8","8","encoding","encoding","246","Desk_Office.jpg","3",".","37","0","742"
"8","8","encoding","encoding","247","Lips_Wax.jpg","1",".","0","0","1000"
"8","8","encoding","encoding","248","EyeChart.jpg","1",".","0","0","1000"
"8","8","encoding","encoding","249","Golf_Club.jpg","1",".","37","0","45"
"8","8","encoding","encoding","250","Lobster.jpg","3",".","36","0","930"
"8","8","encoding","encoding","251","Walkman.jpg","3",".","0","0","1000"
"8","8","encoding","encoding","252","Desk_Office.jpg","3",".","37","0","879"
"8","8","encoding","encoding","253","Bag_Toiletry.jpg","3",".","0","0","1000"
"8","8","encoding","encoding","254","Decoration_ChristmasWhite.jpg","3",".","37","0","909"
"8","8","encoding","encoding","255","Puffin.jpg","3",".","36","0","834"
"8","8","encoding","encoding","256","WalkieTalkie_Yellow.jpg","3",".","0","0","1000"
"8","8","encoding","encoding","257","Walkman.jpg","3",".","37","0","924"
"8","8","encoding","encoding","258","Candleholder_LampShaped.jpg","1",".","36","0","813"
"8","8","encoding","encoding","259","Hat_Feather.jpg","1",".","0","0","1000"
"8","8","encoding","encoding","260","Tray_Metal.jpg","3",".","0","0","1000"
"8","8","encoding","encoding","261","Jars_PetFood.jpg","3",".","0","0","1000"
"8","8","encoding","encoding","262","Toy_Rooster.jpg","1",".","0","0","1000"
"8","8","encoding","encoding","263","Airplane_Small.jpg","1",".","0","0","1000"
"8","8","encoding","encoding","265","Pear_Green.jpg","3",".","0","0","1000"
"8","8","encoding","encoding","266","Balcony.jpg","3",".","37","0","886"
"8","8","encoding","encoding","267","Cloud.jpg","1",".","0","0","1000"
"8","8","encoding","encoding","268","IceCubes.jpg","1",".","0","0","1000"
"8","8","encoding","encoding","269","Bag_Toiletry.jpg","3",".","37","0","170"
"8","8","encoding","encoding","270","Neckrest.jpg","3",".","36","0","949"
"8","8","encoding","encoding","271","Pear_Green.jpg","3",".","36","0","813"
"8","8","encoding","encoding","272","HairBand.jpg","3",".","0","0","1000"
"8","8","encoding","encoding","273","Barrel_Wine.jpg","3",".","0","0","1000"
"8","8","encoding","encoding","274","PumpBreast.jpg","1",".","0","0","1000"
"8","8","encoding","encoding","275","Dog_Bulldog.jpg","3",".","36","0","843"
"8","8","encoding","encoding","276","Jars_PetFood.jpg","3",".","37","0","827"
"8","8","encoding","encoding","277","Cheeseburger.jpg","3",".","0","0","1000"
"8","8","encoding","encoding","278","Shovel_Garden.jpg","3",".","37","0","813"
"8","8","encoding","encoding","279","RecorderInstrument.jpg","1",".","0","0","1000"
"8","8","encoding","encoding","280","Clippers_Glass.jpg","3",".","37","0","932"
"8","8","encoding","encoding","281","Glasses_Sun.jpg","1",".","0","0","1000"
"8","8","encoding","encoding","282","Compressor.jpg","3",".","0","0","1000"
"8","8","encoding","encoding","283","Garlic_Clove.jpg","1",".","0","0","1000"
"8","8","encoding","encoding","284","RadioactiveContainer.jpg","3",".","37","0","938"
"8","8","encoding","encoding","285","PaperTowel_Brown.jpg","1",".","0","0","1000"
"8","8","encoding","encoding","286","SaladCaesar.jpg","1",".","37","0","77"
"8","8","encoding","encoding","287","Paddle_Ball.jpg","3",".","37","0","968"
"8","8","encoding","encoding","288","Sign_SlipperyRoad.jpg","3",".","0","0","1000"
"8","8","encoding","encoding","289","Match.jpg","3",".","37","0","849"
"8","8","encoding","encoding","290","Pasta_Fettuccine.jpg","3",".","37","0","813"
"8","8","encoding","encoding","291","Blueberry.jpg","3",".","37","0","989"
"8","8","encoding","encoding","292","HairBand.jpg","3",".","0","0","1000"
"8","8","encoding","encoding","293","Toy_BearBrownPlushie.jpg","3",".","0","0","1000"
"8","8","encoding","encoding","294","Compressor.jpg","3",".","37","0","857"
"8","8","encoding","encoding","295","ShoeLace_Flat.jpg","3",".","36","0","811"
"8","8","encoding","encoding","296","Stone_Spa.jpg","3",".","37","0","865"
"8","8","encoding","encoding","297","Case_CD.jpg","3",".","37","0","881"
"8","8","encoding","encoding","298","Level.jpg","1",".","36","0","765"
"8","8","encoding","encoding","299","Sink_Kitchen.jpg","1",".","37","0","964"
"8","8","encoding","encoding","300","Makeup_Bag.jpg","1",".","0","0","1000"
"8","8","encoding","encoding","301","Boar.jpg","3",".","0","0","1000"
"8","8","encoding","encoding","302","Scorpion.jpg","3",".","36","0","830"
"8","8","encoding","encoding","303","Boar.jpg","3",".","36","0","766"
"8","8","encoding","encoding","304","LeafBlower.jpg","3",".","0","0","1000"
"8","8","encoding","encoding","305","Ostrich.jpg","3",".","36","0","877"
"8","8","encoding","encoding","306","Boat_Colourful.jpg","3",".","37","0","938"
"8","8","encoding","encoding","307","Ostrich.jpg","3",".","37","0","766"
"8","8","encoding","encoding","308","OperaGlasses.jpg","1",".","0","0","1000"
"8","8","encoding","encoding","309","Toy_Taxi.jpg","1",".","37","0","946"
"8","8","encoding","encoding","310","Case_CD.jpg","3",".","36","0","925"
"8","8","encoding","encoding","311","Mat_Bamboo.jpg","3",".","37","0","823"
"8","8","encoding","encoding","312","Bucket_WoodenLight.jpg","3",".","0","0","1000"
"8","8","encoding","encoding","313","Cologne.jpg","1",".","37","0","954"
"8","8","encoding","encoding","314","Carrot.jpg","3",".","36","0","932"
"8","8","encoding","encoding","315","Shrimp.jpg","1",".","0","0","1000"
"8","8","encoding","encoding","316","Paddle_Canoe.jpg","3",".","37","0","897"
"8","8","encoding","encoding","317","Boar.jpg","3",".","36","0","826"
"8","8","encoding","encoding","318","Stick_IceHockey.jpg","1",".","37","0","791"
"8","8","encoding","encoding","319","Toy_Christmastree.jpg","3",".","36","0","818"
"8","8","encoding","encoding","320","Toy_Dog.jpg","1",".","0","0","1000"
"8","8","encoding","encoding","321","Heater_Outdoor.jpg","3",".","37","0","807"
"8","8","encoding","encoding","322","Bagpipes.jpg","1",".","0","0","1000"
"8","8","encoding","encoding","323","Otoscope.jpg","3",".","37","0","966"
"8","8","encoding","encoding","324","VacuumHose.jpg","1",".","37","0","791"
"8","8","encoding","encoding","325","HairBand.jpg","",".","37","0","942"
"8","8","retrieval","new_object","1","Hanger.jpg",".",".","37","1","1354"
"8","8","retrieval","new_object","2","Stone_AncientWriting.jpg",".",".","0","0","2000"
"8","8","retrieval","new_object","3","ProjectorScreen.jpg",".",".","37","1","1272"
"8","8","retrieval","old_object","4","Bag_Toiletry.jpg",".","3","36","1","1853"
"8","8","retrieval","new_object","5","FireAlarm.jpg",".",".","0","0","2000"
"8","8","retrieval","old_object","6","Lips_Wax.jpg",".","1","0","0","2000"
"8","8","retrieval","new_object","7","PumiceStone.jpg",".",".","0","0","2000"
"8","8","retrieval","old_object","8","Card_TwoSpade.jpg",".","1","0","0","2000"
"8","8","retrieval","old_object","9","Hat_Feather.jpg",".","1","0","0","2000"
"8","8","retrieval","old_object","10","Toy_Dog.jpg",".","1","0","0","2000"
"8","8","retrieval","old_object","11","OperaGlasses.jpg",".","1","36","1","359"
"8","8","retrieval","old_object","12","Bucket_WoodenLight.jpg",".","3","0","0","2000"
"8","8","retrieval","new_object","13","Bread_Melon.jpg",".",".","37","1","816"
"8","8","retrieval","new_object","14","Can_Oblong.jpg",".",".","36","0","162"
"8","8","retrieval","new_object","15","Thermometer_Room.jpg",".",".","36","0","1881"
"8","8","retrieval","new_object","16","Bread_Loaf.jpg",".",".","0","0","2000"
"8","8","retrieval","old_object","17","Drum_Ramadan.jpg",".","1","0","0","2000"
"8","8","retrieval","new_object","18","Hat_Colonial.jpg",".",".","37","1","303"
"8","8","retrieval","old_object","19","Bus_DoubleDecker.jpg",".","3","36","1","1811"
"8","8","retrieval","old_object","20","Compressor.jpg",".","3","0","0","2000"
"8","8","retrieval","old_object","21","LintRemover.jpg",".","1","36","1","1751"
"8","8","retrieval","old_object","22","Toy_BeadMaze.jpg",".","3","36","1","1920"
"8","8","retrieval","new_object","23","Box_FirstAid.jpg",".",".","37","1","1605"
"8","8","retrieval","new_object","24","Toy_Truck.jpg",".",".","37","1","1652"
"8","8","retrieval","new_object","25","Oars.jpg",".",".","36","0","1518"
"8","8","retrieval","new_object","26","Crab.jpg",".",".","37","1","1351"
"8","8","retrieval","new_object","27","PagodaModel.jpg",".",".","0","0","2000"
"8","8","retrieval","new_object","28","Toy_MerryGoRound.jpg",".",".","36","0","1573"
"8","8","retrieval","old_object","29","RadioactiveContainer.jpg",".","3","36","1","1472"
"8","8","retrieval","new_object","30","Arch_Triomphe.jpg",".",".","36","0","1968"
"8","8","retrieval","old_object","31","Jars_PetFood.jpg",".","3","36","1","1328"
"8","8","retrieval","new_object","32","Toolbox_BlackOpen.jpg",".",".","0","0","2000"
"8","8","retrieval","old_object","33","TreeStump.jpg",".","3","36","1","1883"
"8","8","retrieval","new_object","34","Nuts_Pecan.jpg",".",".","37","1","1808"
"8","8","retrieval","new_object","35","Helmet_Motorcycle.jpg",".",".","37","1","1770"
"8","8","retrieval","old_object","36","SaladCaesar.jpg",".","1","0","0","2000"
"8","8","retrieval","old_object","37","Toy_BearBrownPlushie.jpg",".","3","0","0","2000"
"8","8","retrieval","old_object","38","Balcony.jpg",".","3","37","0","845"
"8","8","retrieval","old_object","39","Broccoli.jpg",".","3","36","1","1320"
"8","8","retrieval","new_object","40","Branch.jpg",".",".","36","0","1445"
"8","8","retrieval","old_object","41","Ginger.jpg",".","1","0","0","2000"
"8","8","retrieval","old_object","42","Stool_Camping.jpg",".","1","37","0","1686"
"8","8","retrieval","new_object","43","HairCurler.jpg",".",".","37","1","1534"
"8","8","retrieval","old_object","44","Mitt_Blue.jpg",".","1","37","0","1728"
"8","8","retrieval","new_object","45","Bottle_Beer.jpg",".",".","36","0","1322"
"8","8","retrieval","new_object","46","Bandage_Adhesive.jpg",".",".","37","1","1442"
"8","8","retrieval","new_object","47","Tube_Paint.jpg",".",".","36","0","1705"
"8","8","retrieval","old_object","48","Match.jpg",".","3","36","1","1122"
"8","8","retrieval","old_object","49","RecorderInstrument.jpg",".","1","37","0","1777"
"8","8","retrieval","old_object","50","Protractor.jpg",".","1","36","1","1491"
"8","8","retrieval","old_object","51","Makeup_Bag.jpg",".","1","0","0","2000"
"8","8","retrieval","new_object","52","PulleyWooden.jpg",".",".","0","0","2000"
"8","8","retrieval","new_object","53","Chair_Office.jpg",".",".","0","0","2000"
"8","8","retrieval","new_object","54","Brush_Light.jpg",".",".","0","0","2000"
"8","8","retrieval","new_object","55","Toy_PandaPlushie.jpg",".",".","0","0","2000"
"8","8","retrieval","new_object","56","BumperCar.jpg",".",".","37","1","1583"
"8","8","retrieval","new_object","57","Walker_Blue.jpg",".",".","37","1","1637"
"8","8","retrieval","old_object","58","Scorpion.jpg",".","3","36","1","981"
"8","8","retrieval","new_object","59","Bible.jpg",".",".","0","0","2000"
"8","8","retrieval","old_object","60","Dropper.jpg",".","1","36","1","1715"
"8","8","retrieval","new_object","61","Gecko.jpg",".",".","36","0","1767"
"8","8","retrieval","new_object","62","Lollipop_Rainbow.jpg",".",".","0","0","2000"
"8","8","retrieval","old_object","63","PersonWooden.jpg",".","1","37","0","1324"
"8","8","retrieval","old_object","64","Hat_Police.jpg",".","1","36","1","1812"
"8","8","retrieval","old_object","65","TelescopeSpacecraft.jpg",".","1","0","0","2000"
"8","8","retrieval","old_object","67","Ruler_Wooden.jpg",".","3","36","1","1801"
"8","8","retrieval","old_object","68","Clamp_Screw.jpg",".","1","0","0","2000"
"8","8","retrieval","new_object","69","Garlic_Whole.jpg",".",".","0","0","2000"
"8","8","retrieval","old_object","70","Toy_Bat.jpg",".","1","36","1","1961"
"8","8","retrieval","old_object","71","Flashlight.jpg",".","3","0","0","2000"
"8","8","retrieval","new_object","72","Aquarium.jpg",".",".","0","0","2000"
"8","8","retrieval","new_object","73","Corkboard.jpg",".",".","0","0","2000"
"8","8","retrieval","old_object","74","Pretzel_Sticks.jpg",".","1","37","0","297"
"8","8","retrieval","new_object","75","Cannon.jpg",".",".","0","0","2000"
"8","8","retrieval","old_object","76","Seeder.jpg",".","1","37","0","1650"
"8","8","retrieval","new_object","77","Stool_Metal.jpg",".",".","37","1","1256"
"8","8","retrieval","new_object","78","Bowl_Glass.jpg",".",".","37","1","996"
"8","8","retrieval","new_object","79","WateringCan_Antique.jpg",".",".","37","1","1917"
"8","8","retrieval","old_object","80","ComputerKey_Escape.jpg",".","1","0","0","2000"
"8","8","retrieval","old_object","81","Celery.jpg",".","1","37","0","1505"
"8","8","retrieval","old_object","82","Decoration_ChristmasWhite.jpg",".","3","37","0","1195"
"8","8","retrieval","old_object","83","Snorkle.jpg",".","1","37","0","1346"
"8","8","retrieval","new_object","84","Hedgehog.jpg",".",".","36","0","1930"
"8","8","retrieval","old_object","85","Card_Deck.jpg",".","1","37","0","1686"
"8","8","retrieval","new_object","86","Jar_Honey.jpg",".",".","0","0","2000"
"8","8","retrieval","old_object","87","TowelRack_Metal.jpg",".","3","37","0","287"
"8","8","retrieval","new_object","88","DoubleBass.jpg",".",".","37","1","1198"
"8","8","retrieval","old_object","89","Puzzle_Animal.jpg",".","1","37","0","1501"
"8","8","retrieval","new_object","90","sign_traffic.jpg",".",".","0","0","2000"
"8","8","retrieval","new_object","91","Flags_CheckeredRacing.jpg",".",".","36","0","1527"
"8","8","retrieval","new_object","92","Bone.jpg",".",".","36","0","1336"
"8","8","retrieval","new_object","93","DartBoard.jpg",".",".","0","0","2000"
"8","8","retrieval","old_object","94","Toy_Wooden rings.jpg",".","1","37","0","1411"
"8","8","retrieval","new_object","95","Glass_Beer.jpg",".",".","37","1","1800"
"8","8","retrieval","old_object","96","Toy_Christmastree.jpg",".","3","36","1","1113"
"8","8","retrieval","new_object","97","PocketKnife.jpg",".",".","37","1","1422"
"8","8","retrieval","old_object","98","Stick_Stirring.jpg",".","3","37","0","914"
"8","8","retrieval","new_object","99","Statue_Horse.jpg",".",".","36","0","1631"
"8","8","retrieval","new_object","100","TortillaChip.jpg",".",".","36","0","1826"
"8","8","retrieval","new_object","101","Binder.jpg",".",".","36","0","1592"
"8","8","retrieval","old_object","102","Speakers_Theatre.jpg",".","1","36","1","1339"
"8","8","retrieval","old_object","103","Candleholder_LampShaped.jpg",".","1","37","0","1620"
"8","8","retrieval","old_object","104","WalkieTalkie_Yellow.jpg",".","3","37","0","1057"
"8","8","retrieval","new_object","105","Ladybug.jpg",".",".","36","0","1280"
"8","8","retrieval","old_object","106","Sandwich_Ham.jpg",".","1","0","0","2000"
"8","8","retrieval","old_object","107","Carrot.jpg",".","3","36","1","893"
"8","8","retrieval","old_object","108","PaperCutter.jpg",".","1","37","0","1181"
"8","8","retrieval","new_object","109","Bag_Diaper.jpg",".",".","0","0","2000"
"8","8","retrieval","new_object","110","PencilCase.jpg",".",".","37","1","1656"
"8","8","retrieval","new_object","111","Desk_White.jpg",".",".","37","1","1535"
"8","8","retrieval","old_object","112","ColoringSet.jpg",".","1","37","0","1598"
"8","8","retrieval","new_object","113","Castle_Sand.jpg",".",".","36","0","1758"
"8","8","retrieval","new_object","114","Compact_Mirror.jpg",".",".","37","1","1389"
"8","8","retrieval","old_object","115","Level.jpg",".","1","37","0","899"
"8","8","retrieval","old_object","116","ShinPads.jpg",".","3","37","0","1704"
"8","8","retrieval","new_object","117","Lens_Camera.jpg",".",".","37","1","1747"
"8","8","retrieval","old_object","118","Toy_Taxi.jpg",".","1","37","0","1324"
"8","8","retrieval","old_object","119","Bowl_Chopsticks.jpg",".","1","36","1","111"
"8","8","retrieval","new_object","120","Fork_Regular.jpg",".",".","37","1","1105"
"8","8","retrieval","new_object","121","SolderingIron.jpg",".",".","37","1","1408"
"8","8","retrieval","old_object","122","Dragonfly.jpg",".","3","36","1","1195"
"8","8","retrieval","old_object","123","DeepFryer.jpg",".","1","37","0","1207"
"8","8","retrieval","old_object","124","BrainSagittal.jpg",".","3","0","0","2000"
"8","8","retrieval","new_object","125","RAMchip.jpg",".",".","37","1","1396"
"8","8","retrieval","old_object","126","Paddle_Canoe.jpg",".","3","37","0","1066"
"8","8","retrieval","new_object","127","Cassette_Video.jpg",".",".","37","1","1150"
"8","8","retrieval","new_object","128","Candy_Toffee.jpg",".",".","36","0","1341"
"8","8","retrieval","old_object","129","Pear_Green.jpg",".","3","36","1","1410"
"8","8","retrieval","new_object","130","Mailbox_Antique.jpg",".",".","0","0","2000"
"8","8","retrieval","new_object","131","Carousel.jpg",".",".","37","1","1761"
"8","8","retrieval","new_object","133","Canister_Oil.jpg",".",".","0","0","2000"
"8","8","retrieval","old_object","134","Ostrich.jpg",".","3","36","1","1007"
"8","8","retrieval","new_object","135","SewingPin_Cushion.jpg",".",".","36","0","1744"
"8","8","retrieval","new_object","136","AirPump.jpg",".",".","37","1","872"
"8","8","retrieval","old_object","137","VinylRecord.jpg",".","1","37","0","1591"
"8","8","retrieval","new_object","138","Wire_ElectricalSingle.jpg",".",".","36","0","1628"
"8","8","retrieval","old_object","139","Sign_SlipperyRoad.jpg",".","3","36","1","1039"
"8","8","retrieval","new_object","140","Stove_WithOven.jpg",".",".","36","0","1739"
"8","8","retrieval","old_object","141","Dice.jpg",".","1","0","0","2000"
"8","8","retrieval","old_object","142","Lobster.jpg",".","3","37","0","88"
"8","8","retrieval","new_object","143","Mug_Travel.jpg",".",".","37","1","148"
"8","8","retrieval","new_object","144","Cart_Janitor.jpg",".",".","37","1","1287"
"8","8","retrieval","new_object","145","Hubcap.jpg",".",".","36","0","1064"
"8","8","retrieval","new_object","146","House_Wooden.jpg",".",".","36","0","1682"
"8","8","retrieval","old_object","147","Canister_Tea.jpg",".","3","0","0","2000"
"8","8","retrieval","old_object","148","Neckrest.jpg",".","3","36","1","920"
"8","8","retrieval","old_object","149","Shoes_Mould.jpg",".","3","36","1","997"
"8","8","retrieval","new_object","150","Backpack_Suitcase.jpg",".",".","37","1","1003"
"8","8","retrieval","old_object","151","Suitcase.jpg",".","3","37","0","855"
"8","8","retrieval","old_object","152","Case_CD.jpg",".","3","37","0","1056"
"8","8","retrieval","old_object","153","Clippers_Glass.jpg",".","3","36","1","1041"
"8","8","retrieval","new_object","154","Barometer_Wood.jpg",".",".","37","1","1327"
"8","8","retrieval","new_object","155","Amp.jpg",".",".","36","0","1623"
"8","8","retrieval","old_object","156","ClothesDryingRack.jpg",".","1","37","0","1289"
"8","8","retrieval","new_object","157","Spatula.jpg",".",".","37","1","1672"
"8","8","retrieval","old_object","158","Tape_Dispenser.jpg",".","3","37","0","960"
"8","8","retrieval","new_object","159","Clave.jpg",".",".","0","0","2000"
"8","8","retrieval","old_object","160","Shirt_Tshirt.jpg",".","3","36","1","1396"
"8","8","retrieval","old_object","161","MatchBook.jpg",".","3","36","1","1219"
"8","8","retrieval","new_object","162","Weathervane.jpg",".",".","37","1","1134"
"8","8","retrieval","old_object","163","Cloud.jpg",".","1","36","1","1275"
"8","8","retrieval","old_object","164","Tray_Metal.jpg",".","3","37","0","1326"
"8","8","retrieval","new_object","165","Tree_Fir.jpg",".",".","0","0","2000"
"8","8","retrieval","old_object","166","PaperTowel_Brown.jpg",".","1","36","1","138"
"8","8","retrieval","old_object","167","HairClipper.jpg",".","1","37","0","1183"
"8","8","retrieval","old_object","168","Heater_ElectricUpright.jpg",".","3","37","0","948"
"8","8","retrieval","new_object","169","SofaAntique.jpg",".",".","37","1","864"
"8","8","retrieval","old_object","170","HairBand.jpg",".","3","37","0","801"
"8","8","retrieval","new_object","171","TailLight.jpg",".",".","37","1","1267"
"8","8","retrieval","old_object","172","Toy_Rooster.jpg",".","1","36","1","1214"
"8","8","retrieval","new_object","173","CarSuspension.jpg",".",".","37","1","983"
"8","8","retrieval","old_object","174","ShoeLace_Flat.jpg",".","3","36","1","1017"
"8","8","retrieval","old_object","175","Boat_Colourful.jpg",".","3","37","0","815"
"8","8","retrieval","new_object","176","Heelpad.jpg",".",".","37","1","1086"
"8","8","retrieval","old_object","177","Shovel_Garden.jpg",".","3","37","0","931"
"8","8","retrieval","new_object","178","MechanicalSpring.jpg",".",".","37","1","1123"
"8","8","retrieval","old_object","179","Cologne.jpg",".","1","37","0","906"
"8","8","retrieval","old_object","180","SoapDish.jpg",".","1","36","1","1042"
"8","8","retrieval","old_object","181","Stick_IceHockey.jpg",".","1","37","0","1001"
"8","8","retrieval","new_object","182","Light_Fixtures.jpg",".",".","37","1","861"
"8","8","retrieval","new_object","183","Umbrella_Classic.jpg",".",".","36","0","1111"
"8","8","retrieval","old_object","184","Coral.jpg",".","3","36","1","1742"
"8","8","retrieval","old_object","185","Otoscope.jpg",".","3","37","0","1911"
"8","8","retrieval","new_object","186","Spear.jpg",".",".","37","1","1235"
"8","8","retrieval","old_object","187","FlintIgniter.jpg",".","3","36","1","1188"
"8","8","retrieval","old_object","188","Boar.jpg",".","3","36","1","1431"
"8","8","retrieval","old_object","189","Computer_ExpansionCard.jpg",".","3","37","0","1691"
"8","8","retrieval","new_object","190","Table_Saw.jpg",".",".","36","0","832"
"8","8","retrieval","old_object","191","Bicycle_Kids.jpg",".","1","37","0","637"
"8","8","retrieval","old_object","192","DonaldDuck_Toy.jpg",".","1","36","1","1514"
"8","8","retrieval","new_object","193","Carabiner_Orange.jpg",".",".","37","1","1182"
"8","8","retrieval","new_object","194","Radish.jpg",".",".","36","0","1403"
"8","8","retrieval","old_object","195","Paddle_Ball.jpg",".","3","37","0","887"
"8","8","retrieval","old_object","196","Car_Buggy.jpg",".","1","37","0","1111"
"8","8","retrieval","old_object","197","Glove_Baseball.jpg",".","1","37","0","1198"
"8","8","retrieval","old_object","199","Pyramid.jpg",".","3","36","1","1199"
"8","8","retrieval","old_object","200","Pouch_Red.jpg",".","3","37","0","1207"
"8","8","retrieval","new_object","201","Bat_Cricket.jpg",".",".","37","1","899"
"8","8","retrieval","old_object","202","CarLighter.jpg",".","1","37","0","1156"
"8","8","retrieval","new_object","203","Bucket_Halloween.jpg",".",".","37","1","1118"
"8","8","retrieval","old_object","204","Bagpipes.jpg",".","1","37","0","1406"
"8","8","retrieval","new_object","205","ManholeCover.jpg",".",".","36","0","1176"
"8","8","retrieval","new_object","206","Mask_Ski.jpg",".",".","37","1","1452"
"8","8","retrieval","new_object","207","Light_Studio.jpg",".",".","37","1","990"
"8","8","retrieval","old_object","208","Camera_Video.jpg",".","1","37","0","927"
"8","8","retrieval","old_object","209","WaterCooler.jpg",".","3","36","1","1323"
"8","8","retrieval","new_object","210","SolderingWire.jpg",".",".","36","0","1513"
"8","8","retrieval","new_object","211","Cinnamonroll.jpg",".",".","36","0","1270"
"8","8","retrieval","new_object","212","Van.jpg",".",".","37","1","1150"
"8","8","retrieval","new_object","213","Television.jpg",".",".","36","0","1802"
"8","8","retrieval","old_object","214","Glasses_Sun.jpg",".","1","37","0","1326"
"8","8","retrieval","old_object","215","Blueberry.jpg",".","3","36","1","1258"
"8","8","retrieval","new_object","216","Bird_Duck.jpg",".",".","36","0","1184"
"8","8","retrieval","new_object","217","Clock_Interior.jpg",".",".","37","1","1220"
"8","8","retrieval","new_object","218","Bread_Roll.jpg",".",".","36","0","246"
"8","8","retrieval","old_object","219","Cheeseburger.jpg",".","3","37","0","1344"
"8","8","retrieval","new_object","220","Toy_LambPlushie.jpg",".",".","37","1","1502"
"8","8","retrieval","new_object","221","Hockey_Puck.jpg",".",".","37","1","1350"
"8","8","retrieval","new_object","222","Cymbals.jpg",".",".","37","1","1404"
"8","8","retrieval","old_object","223","CDstack.jpg",".","1","37","0","1257"
"8","8","retrieval","old_object","224","EyeChart.jpg",".","1","37","0","1463"
"8","8","retrieval","old_object","225","Airplane_Small.jpg",".","1","37","0","888"
"8","8","retrieval","old_object","226","SnowmanDecor.jpg",".","1","37","0","919"
"8","8","retrieval","old_object","227","Coin.jpg",".","3","37","0","1127"
"8","8","retrieval","old_object","228","Toy_TrailerAirport.jpg",".","3","37","0","1158"
"8","8","retrieval","old_object","229","IceCubes.jpg",".","1","36","1","1163"
"8","8","retrieval","new_object","230","Bread_Carrot.jpg",".",".","37","1","1583"
"8","8","retrieval","old_object","231","Nail.jpg",".","1","36","1","1300"
"8","8","retrieval","new_object","232","Barbecue_Charcoal.jpg",".",".","37","1","1480"
"8","8","retrieval","old_object","233","Snowpea.jpg",".","1","36","1","1175"
"8","8","retrieval","old_object","234","LeafBlower.jpg",".","3","37","0","926"
"8","8","retrieval","old_object","235","Mask_VenetianCat.jpg",".","1","37","0","1695"
"8","8","retrieval","new_object","236","PyramidWooden.jpg",".",".","36","0","887"
"8","8","retrieval","new_object","237","Bleachers.jpg",".",".","37","1","1071"
"8","8","retrieval","new_object","238","Cable_JumpStart.jpg",".",".","37","1","1701"
"8","8","retrieval","old_object","239","Puffin.jpg",".","3","0","0","2000"
"8","8","retrieval","new_object","240","IceCream_Popsicle.jpg",".",".","36","0","114"
"8","8","retrieval","old_object","241","Lynx.jpg",".","3","36","1","1474"
"8","8","retrieval","old_object","242","NailFiles.jpg",".","1","37","0","1258"
"8","8","retrieval","new_object","243","Lantern_Chinese.jpg",".",".","37","1","964"
"8","8","retrieval","old_object","244","Walkman.jpg",".","3","37","0","872"
"8","8","retrieval","new_object","245","Envelope_Manila.jpg",".",".","37","1","1532"
"8","8","retrieval","old_object","246","Notepad.jpg",".","3","36","1","1119"
"8","8","retrieval","new_object","247","Bark.jpg",".",".","36","0","1223"
"8","8","retrieval","new_object","248","Barometer.jpg",".",".","36","0","1439"
"8","8","retrieval","new_object","249","Helmet_Football.jpg",".",".","37","1","1159"
"8","8","retrieval","new_object","250","Handbag.jpg",".",".","37","1","1145"
"8","8","retrieval","new_object","251","Candy_Lozenge.jpg",".",".","37","1","792"
"8","8","retrieval","old_object","252","Desk_Office.jpg",".","3","37","0","790"
"8","8","retrieval","new_object","253","LicensePlate.jpg",".",".","36","0","1401"
"8","8","retrieval","new_object","254","MousepadAndMouse.jpg",".",".","37","1","1044"
"8","8","retrieval","new_object","255","Makeup_Compact.jpg",".",".","37","1","919"
"8","8","retrieval","old_object","256","Garlic_Clove.jpg",".","1","36","1","943"
"8","8","retrieval","old_object","257","PumpBreast.jpg",".","1","37","0","1196"
"8","8","retrieval","old_object","258","Backhoe.jpg",".","3","37","0","1123"
"8","8","retrieval","old_object","259","Toy_Ladybug.jpg",".","3","36","1","1026"
"8","8","retrieval","old_object","260","Barrel_Wine.jpg",".","3","36","1","1050"
"8","8","retrieval","old_object","261","Tray_Medical.jpg",".","1","36","1","1494"
"8","8","retrieval","new_object","262","Trash_Medical.jpg",".",".","37","1","1295"
"8","8","retrieval","new_object","263","Cup_Bathroom.jpg",".",".","37","1","954"
"8","8","retrieval","new_object","265","WaterWell.jpg",".",".","36","0","1398"
"8","8","retrieval","new_object","266","Wontons.jpg",".",".","37","1","1023"
"8","8","retrieval","old_object","267","Toy_Firetruck.jpg",".","1","37","0","1134"
"8","8","retrieval","old_object","268","Piano_Upright.jpg",".","1","37","0","1216"
"8","8","retrieval","old_object","269","WaterHeater.jpg",".","3","36","1","1198"
"8","8","retrieval","new_object","270","SelfieStick.jpg",".",".","36","0","1211"
"8","8","retrieval","new_object","271","CoffeeLid.jpg",".",".","37","1","1139"
"8","8","retrieval","new_object","272","Statue_Man.jpg",".",".","36","0","1223"
"8","8","retrieval","old_object","273","Sink_Kitchen.jpg",".","1","37","0","1063"
"8","8","retrieval","old_object","274","Sphinx.jpg",".","3","36","1","1211"
"8","8","retrieval","new_object","275","DogSled.jpg",".",".","37","1","1413"
"8","8","retrieval","new_object","276","Mailbox_Community.jpg",".",".","37","1","1435"
"8","8","retrieval","new_object","277","CodeDoorLock.jpg",".",".","37","1","1447"
"8","8","retrieval","new_object","278","Tube_Glue.jpg",".",".","37","1","1107"
"8","8","retrieval","new_object","279","Light_Halogen.jpg",".",".","37","1","1253"
"8","8","retrieval","new_object","280","Briefcase_Silver.jpg",".",".","37","1","882"
"8","8","retrieval","old_object","281","Squash_Butternut.jpg",".","3","36","1","1070"
"8","8","retrieval","new_object","282","Milkshake_Strawberry.jpg",".",".","37","1","1055"
"8","8","retrieval","new_object","283","Toy_Lizard.jpg",".",".","36","0","1161"
