"group","subject","blockcode","trialcode","trialnum","stimulus","encoding_condition","old_object_condition","response","correct","latency"
"3","3","encoding","encoding","1","ReindeerHeadband.jpg","3",".","37","0","843"
"3","3","encoding","encoding","2","Outhouse.jpg","1",".","37","0","723"
"3","3","encoding","encoding","3","Thermos_MetalSleek.jpg","3",".","37","0","530"
"3","3","encoding","encoding","4","Flower_Hibiscus.jpg","3",".","36","0","594"
"3","3","encoding","encoding","5","Caterpillar.jpg","3",".","0","0","994"
"3","3","encoding","encoding","6","CuttingBoard.jpg","1",".","37","0","545"
"3","3","encoding","encoding","7","Strainer_Tea.jpg","3",".","37","0","617"
"3","3","encoding","encoding","8","Fencing_HelmetSwords.jpg","3",".","37","0","544"
"3","3","encoding","encoding","9","Toy_Lighthouse.jpg","3",".","37","0","488"
"3","3","encoding","encoding","10","Flower_Hibiscus.jpg","3",".","36","0","520"
"3","3","encoding","encoding","11","Glass_Cup.jpg","3",".","37","0","535"
"3","3","encoding","encoding","12","Thermos_MetalSleek.jpg","3",".","37","0","447"
"3","3","encoding","encoding","13","Currants.jpg","1",".","36","0","519"
"3","3","encoding","encoding","14","Boxcutter.jpg","3",".","37","0","470"
"3","3","encoding","encoding","15","Cabinet_Office.jpg","3",".","37","0","486"
"3","3","encoding","encoding","16","Loofa.jpg","3",".","36","0","606"
"3","3","encoding","encoding","17","Hammer.jpg","3",".","37","0","485"
"3","3","encoding","encoding","18","Bindings_Snowboard.jpg","3",".","37","0","485"
"3","3","encoding","encoding","19","Hockey_Equipment.jpg","1",".","37","0","420"
"3","3","encoding","encoding","20","SewingMachine.jpg","3",".","37","0","476"
"3","3","encoding","encoding","21","TurkeyDinner.jpg","3",".","37","0","964"
"3","3","encoding","encoding","22","Waffle.jpg","3",".","37","0","763"
"3","3","encoding","encoding","23","Fridge.jpg","3",".","37","0","443"
"3","3","encoding","encoding","24","Hazelnut.jpg","3",".","36","0","643"
"3","3","encoding","encoding","25","Radio_Vintage.jpg","3",".","37","0","490"
"3","3","encoding","encoding","26","KeyHook_Occupied.jpg","3",".","37","0","474"
"3","3","encoding","encoding","27","Hottub.jpg","3",".","37","0","521"
"3","3","encoding","encoding","28","CartonEggs.jpg","3",".","37","0","609"
"3","3","encoding","encoding","29","PaintRoller.jpg","3",".","37","0","617"
"3","3","encoding","encoding","30","Wheel_Steering.jpg","3",".","37","0","552"
"3","3","encoding","encoding","31","Cannister_Gas.jpg","1",".","37","0","512"
"3","3","encoding","encoding","32","Cage_Bird.jpg","3",".","37","0","488"
"3","3","encoding","encoding","33","Brooch_Fish.jpg","3",".","37","0","551"
"3","3","encoding","encoding","34","Loofa.jpg","3",".","36","0","535"
"3","3","encoding","encoding","35","Clock_Radio.jpg","1",".","37","0","447"
"3","3","encoding","encoding","36","Flower_Orchid.jpg","3",".","36","0","526"
"3","3","encoding","encoding","37","CartonEggs.jpg","3",".","36","0","630"
"3","3","encoding","encoding","38","Can_OilSpout.jpg","3",".","37","0","758"
"3","3","encoding","encoding","39","BoogieBoard.jpg","1",".","37","0","605"
"3","3","encoding","encoding","40","Wheel_Steering.jpg","3",".","37","0","469"
"3","3","encoding","encoding","41","Chinchilla.jpg","3",".","36","0","564"
"3","3","encoding","encoding","42","Microphone.jpg","3",".","37","0","460"
"3","3","encoding","encoding","43","Boxcutter.jpg","3",".","37","0","452"
"3","3","encoding","encoding","44","Sink_Bathroom.jpg","1",".","37","0","443"
"3","3","encoding","encoding","45","Chopsticks.jpg","3",".","37","0","619"
"3","3","encoding","encoding","46","Kite_Rainbow.jpg","1",".","37","0","499"
"3","3","encoding","encoding","47","SafetyPin.jpg","3",".","37","0","466"
"3","3","encoding","encoding","48","PedestalGreek.jpg","1",".","37","0","490"
"3","3","encoding","encoding","49","Bench_Wooden.jpg","3",".","37","0","490"
"3","3","encoding","encoding","50","KeyHook_Occupied.jpg","3",".","37","0","465"
"3","3","encoding","encoding","51","Dress_Blue.jpg","1",".","37","0","513"
"3","3","encoding","encoding","52","Bugle.jpg","3",".","37","0","512"
"3","3","encoding","encoding","53","RibbonSpool.jpg","3",".","37","0","808"
"3","3","encoding","encoding","54","Bottle_BubbleBlower.jpg","1",".","37","0","504"
"3","3","encoding","encoding","55","PropellerFan.jpg","1",".","37","0","471"
"3","3","encoding","encoding","56","HumanSkeleton.jpg","3",".","36","0","775"
"3","3","encoding","encoding","57","Case_DVD.jpg","3",".","37","0","495"
"3","3","encoding","encoding","58","Bottle_Specimen.jpg","3",".","37","0","518"
"3","3","encoding","encoding","59","SmokingPipe.jpg","3",".","37","0","638"
"3","3","encoding","encoding","60","TurkeyDinner.jpg","3",".","37","0","918"
"3","3","encoding","encoding","61","SkullDeer.jpg","3",".","37","0","605"
"3","3","encoding","encoding","62","Brace_Back.jpg","3",".","37","0","653"
"3","3","encoding","encoding","63","Tweezers.jpg","3",".","37","0","549"
"3","3","encoding","encoding","64","Glass_Cup.jpg","3",".","37","0","524"
"3","3","encoding","encoding","65","Chopsticks.jpg","3",".","37","0","548"
"3","3","encoding","encoding","67","SkullDeer.jpg","3",".","36","0","566"
"3","3","encoding","encoding","68","ShoppingCart.jpg","1",".","37","0","501"
"3","3","encoding","encoding","69","Bomb.jpg","3",".","37","0","613"
"3","3","encoding","encoding","70","Arch.jpg","3",".","37","0","460"
"3","3","encoding","encoding","71","ShearsGarden.jpg","1",".","37","0","460"
"3","3","encoding","encoding","72","Broom_Long.jpg","3",".","37","0","604"
"3","3","encoding","encoding","73","AnsweringMachine.jpg","3",".","37","0","555"
"3","3","encoding","encoding","74","Arch.jpg","3",".","37","0","539"
"3","3","encoding","encoding","75","Thermos_MetalSleek.jpg","3",".","37","0","459"
"3","3","encoding","encoding","76","Brace_Back.jpg","3",".","37","0","634"
"3","3","encoding","encoding","77","Pot_Cooking.jpg","1",".","37","0","418"
"3","3","encoding","encoding","78","Paddle_Beach.jpg","1",".","37","0","538"
"3","3","encoding","encoding","79","Pen_Ballpoint.jpg","1",".","37","0","473"
"3","3","encoding","encoding","80","TireRims.jpg","1",".","37","0","417"
"3","3","encoding","encoding","81","Tape_Washi.jpg","3",".","37","0","520"
"3","3","encoding","encoding","82","Spatula_1.jpg","3",".","37","0","472"
"3","3","encoding","encoding","83","Bindings_Snowboard.jpg","3",".","37","0","408"
"3","3","encoding","encoding","84","Caterpillar.jpg","3",".","36","0","591"
"3","3","encoding","encoding","85","Drum_Brazilan.jpg","3",".","37","0","479"
"3","3","encoding","encoding","86","Tribunal_Wooden.jpg","3",".","37","0","423"
"3","3","encoding","encoding","87","Syrup_Maple.jpg","3",".","37","0","486"
"3","3","encoding","encoding","88","Knife_Butter.jpg","3",".","37","0","454"
"3","3","encoding","encoding","89","Cabinet_Display.jpg","3",".","37","0","430"
"3","3","encoding","encoding","90","Telescope.jpg","1",".","37","0","445"
"3","3","encoding","encoding","91","Radio_Vintage.jpg","3",".","37","0","421"
"3","3","encoding","encoding","92","BicycleGear.jpg","3",".","37","0","404"
"3","3","encoding","encoding","93","Brooch_Fish.jpg","3",".","37","0","428"
"3","3","encoding","encoding","94","Drum_Brazilan.jpg","3",".","37","0","460"
"3","3","encoding","encoding","95","Seashell_AlternateTellin.jpg","1",".","37","0","427"
"3","3","encoding","encoding","96","AnsweringMachine.jpg","3",".","37","0","443"
"3","3","encoding","encoding","97","Tribunal_Wooden.jpg","3",".","37","0","451"
"3","3","encoding","encoding","98","Lighter_Yellow.jpg","1",".","37","0","554"
"3","3","encoding","encoding","99","Cabinet_Display.jpg","3",".","37","0","418"
"3","3","encoding","encoding","100","Playground.jpg","3",".","37","0","442"
"3","3","encoding","encoding","101","Tofu.jpg","1",".","36","0","769"
"3","3","encoding","encoding","102","Cabinet_Office.jpg","3",".","37","0","473"
"3","3","encoding","encoding","103","Pipe.jpg","3",".","37","0","424"
"3","3","encoding","encoding","104","Toy_TableSet.jpg","1",".","37","0","568"
"3","3","encoding","encoding","105","Broom_Long.jpg","3",".","37","0","544"
"3","3","encoding","encoding","106","Waffle.jpg","3",".","37","0","767"
"3","3","encoding","encoding","107","Ball_8.jpg","3",".","37","0","495"
"3","3","encoding","encoding","108","House_Rural.jpg","1",".","37","0","751"
"3","3","encoding","encoding","109","Bindings_Snowboard.jpg","3",".","37","0","462"
"3","3","encoding","encoding","110","CookieCutter_Tree.jpg","1",".","37","0","670"
"3","3","encoding","encoding","111","Iron_Antique.jpg","3",".","37","0","550"
"3","3","encoding","encoding","112","Jug_Milk.jpg","1",".","37","0","469"
"3","3","encoding","encoding","113","MobilityScooter.jpg","1",".","37","0","477"
"3","3","encoding","encoding","114","Shoe_Pink.jpg","1",".","37","0","524"
"3","3","encoding","encoding","115","Tweezers.jpg","3",".","37","0","476"
"3","3","encoding","encoding","116","Toolbox_Old.jpg","1",".","37","0","740"
"3","3","encoding","encoding","117","ToothPaste.jpg","3",".","37","0","643"
"3","3","encoding","encoding","118","Statue_VirginMary.jpg","3",".","37","0","659"
"3","3","encoding","encoding","119","Hat_Baseball.jpg","1",".","37","0","571"
"3","3","encoding","encoding","120","Knife_Butter.jpg","3",".","37","0","418"
"3","3","encoding","encoding","121","Fridge.jpg","3",".","37","0","370"
"3","3","encoding","encoding","122","Can_OilSpout.jpg","3",".","37","0","474"
"3","3","encoding","encoding","123","Bomb.jpg","3",".","37","0","361"
"3","3","encoding","encoding","124","Drum_Brazilan.jpg","3",".","37","0","449"
"3","3","encoding","encoding","125","Chinchilla.jpg","3",".","36","0","537"
"3","3","encoding","encoding","126","OnionRed.jpg","3",".","36","0","624"
"3","3","encoding","encoding","127","AnsweringMachine.jpg","3",".","37","0","424"
"3","3","encoding","encoding","128","Baster.jpg","1",".","37","0","447"
"3","3","encoding","encoding","129","SkullDeer.jpg","3",".","36","0","519"
"3","3","encoding","encoding","130","Cabinet_Office.jpg","3",".","37","0","383"
"3","3","encoding","encoding","131","Dolphine.jpg","3",".","36","0","494"
"3","3","encoding","encoding","133","Spatula_1.jpg","3",".","37","0","454"
"3","3","encoding","encoding","134","Toolbox_RedOpen.jpg","1",".","37","0","445"
"3","3","encoding","encoding","135","Spatula_1.jpg","3",".","37","0","437"
"3","3","encoding","encoding","136","Screw.jpg","1",".","37","0","493"
"3","3","encoding","encoding","137","Gorilla.jpg","1",".","36","0","436"
"3","3","encoding","encoding","138","Shield_Antique.jpg","3",".","37","0","428"
"3","3","encoding","encoding","139","PanCooking.jpg","1",".","37","0","387"
"3","3","encoding","encoding","140","Statue_SouthAmerican.jpg","3",".","37","0","475"
"3","3","encoding","encoding","141","Tweezers.jpg","3",".","37","0","459"
"3","3","encoding","encoding","142","Toy_BearBlackPlastic.jpg","1",".","36","0","442"
"3","3","encoding","encoding","143","Truck_Dump.jpg","1",".","37","0","434"
"3","3","encoding","encoding","144","Chipmunk.jpg","3",".","36","0","618"
"3","3","encoding","encoding","145","Ball_Disco.jpg","3",".","37","0","417"
"3","3","encoding","encoding","146","PaintRoller.jpg","3",".","37","0","401"
"3","3","encoding","encoding","147","Shield_Antique.jpg","3",".","37","0","377"
"3","3","encoding","encoding","148","ToothPaste.jpg","3",".","37","0","400"
"3","3","encoding","encoding","149","Hazelnut.jpg","3",".","36","0","488"
"3","3","encoding","encoding","150","Can_OilSpout.jpg","3",".","37","0","472"
"3","3","encoding","encoding","151","Pickaxe.jpg","1",".","37","0","455"
"3","3","encoding","encoding","152","Dolphine.jpg","3",".","36","0","447"
"3","3","encoding","encoding","153","Bench_Wooden.jpg","3",".","37","0","415"
"3","3","encoding","encoding","154","Statue_SouthAmerican.jpg","3",".","37","0","446"
"3","3","encoding","encoding","155","SafetyPin.jpg","3",".","37","0","430"
"3","3","encoding","encoding","156","OnionRed.jpg","3",".","36","0","445"
"3","3","encoding","encoding","157","Dolphine.jpg","3",".","36","0","493"
"3","3","encoding","encoding","158","Pig.jpg","3",".","36","0","445"
"3","3","encoding","encoding","159","Lamp_TableWhite.jpg","1",".","37","0","412"
"3","3","encoding","encoding","160","Pasta_Spaghetti.jpg","3",".","36","0","684"
"3","3","encoding","encoding","161","ElasticBand.jpg","3",".","37","0","756"
"3","3","encoding","encoding","162","Caterpillar.jpg","3",".","36","0","459"
"3","3","encoding","encoding","163","Thermostat.jpg","3",".","37","0","435"
"3","3","encoding","encoding","164","Toy_SeeSaw.jpg","1",".","37","0","443"
"3","3","encoding","encoding","165","Loofa.jpg","3",".","36","0","458"
"3","3","encoding","encoding","166","Carbiner_Ascender.jpg","1",".","37","0","426"
"3","3","encoding","encoding","167","Ball_8.jpg","3",".","37","0","505"
"3","3","encoding","encoding","168","Fridge.jpg","3",".","37","0","417"
"3","3","encoding","encoding","169","Hammer.jpg","3",".","37","0","385"
"3","3","encoding","encoding","170","Boardgame_Checkers.jpg","3",".","37","0","520"
"3","3","encoding","encoding","171","Iron_Antique.jpg","3",".","37","0","400"
"3","3","encoding","encoding","172","RibbonSpool.jpg","3",".","37","0","376"
"3","3","encoding","encoding","173","TurkeyDinner.jpg","3",".","37","0","719"
"3","3","encoding","encoding","174","Glass_Cup.jpg","3",".","37","0","439"
"3","3","encoding","encoding","175","Jar_Cotton.jpg","1",".","37","0","447"
"3","3","encoding","encoding","176","Wheel_Steering.jpg","3",".","37","0","406"
"3","3","encoding","encoding","177","Bench_Wooden.jpg","3",".","37","0","462"
"3","3","encoding","encoding","178","Flower_Orchid.jpg","3",".","36","0","581"
"3","3","encoding","encoding","179","Pipe.jpg","3",".","37","0","461"
"3","3","encoding","encoding","180","Tribunal_Wooden.jpg","3",".","37","0","501"
"3","3","encoding","encoding","181","Box_Present.jpg","1",".","37","0","428"
"3","3","encoding","encoding","182","PaperStack.jpg","1",".","37","0","444"
"3","3","encoding","encoding","183","BloodpPresureCuff.jpg","1",".","37","0","508"
"3","3","encoding","encoding","184","Hottub.jpg","3",".","37","0","499"
"3","3","encoding","encoding","185","Fencing_HelmetSwords.jpg","3",".","37","0","468"
"3","3","encoding","encoding","186","Tape_Washi.jpg","3",".","37","0","475"
"3","3","encoding","encoding","187","Sign_TrafficArrow.jpg","1",".","37","0","386"
"3","3","encoding","encoding","188","SewingMachine.jpg","3",".","37","0","410"
"3","3","encoding","encoding","189","OnionRed.jpg","3",".","36","0","465"
"3","3","encoding","encoding","190","Beaker.jpg","3",".","37","0","417"
"3","3","encoding","encoding","191","BicycleChain.jpg","1",".","37","0","393"
"3","3","encoding","encoding","192","Tape_Washi.jpg","3",".","37","0","480"
"3","3","encoding","encoding","193","Decoration_WallOrnament.jpg","1",".","36","0","488"
"3","3","encoding","encoding","194","SundaeBanana.jpg","1",".","37","0","752"
"3","3","encoding","encoding","195","Thermostat.jpg","3",".","37","0","527"
"3","3","encoding","encoding","196","Fencing_HelmetSwords.jpg","3",".","37","0","407"
"3","3","encoding","encoding","197","Hammer.jpg","3",".","37","0","374"
"3","3","encoding","encoding","199","Dart.jpg","1",".","37","0","430"
"3","3","encoding","encoding","200","Shield_Antique.jpg","3",".","37","0","406"
"3","3","encoding","encoding","201","Thermostat.jpg","3",".","37","0","453"
"3","3","encoding","encoding","202","PaintRoller.jpg","3",".","37","0","373"
"3","3","encoding","encoding","203","Broom_Long.jpg","3",".","37","0","492"
"3","3","encoding","encoding","204","Bell_Hand.jpg","1",".","37","0","420"
"3","3","encoding","encoding","205","Brooch_Fish.jpg","3",".","37","0","452"
"3","3","encoding","encoding","206","Arch.jpg","3",".","37","0","379"
"3","3","encoding","encoding","207","Pajamas.jpg","3",".","37","0","515"
"3","3","encoding","encoding","208","ElasticBand.jpg","3",".","37","0","483"
"3","3","encoding","encoding","209","DivingBoard.jpg","1",".","37","0","378"
"3","3","encoding","encoding","210","Syrup_Maple.jpg","3",".","37","0","434"
"3","3","encoding","encoding","211","Makeup_Foundation.jpg","3",".","37","0","370"
"3","3","encoding","encoding","212","Chipmunk.jpg","3",".","36","0","489"
"3","3","encoding","encoding","213","Icepick.jpg","3",".","37","0","489"
"3","3","encoding","encoding","214","ElasticBand.jpg","3",".","37","0","441"
"3","3","encoding","encoding","215","Waffle.jpg","3",".","37","0","464"
"3","3","encoding","encoding","216","Syrup_Maple.jpg","3",".","37","0","392"
"3","3","encoding","encoding","217","BicycleGear.jpg","3",".","37","0","367"
"3","3","encoding","encoding","218","Frame_Oval.jpg","3",".","37","0","423"
"3","3","encoding","encoding","219","Hazelnut.jpg","3",".","36","0","463"
"3","3","encoding","encoding","220","Bottle_Specimen.jpg","3",".","37","0","375"
"3","3","encoding","encoding","221","CoffeeGrinder.jpg","1",".","37","0","390"
"3","3","encoding","encoding","222","ChessPiece_Knight.jpg","3",".","37","0","462"
"3","3","encoding","encoding","223","DrillBit.jpg","1",".","37","0","389"
"3","3","encoding","encoding","224","LampPost_OneBulb.jpg","1",".","37","0","413"
"3","3","encoding","encoding","225","Hawk.jpg","1",".","37","0","452"
"3","3","encoding","encoding","226","Hoverboard.jpg","3",".","37","0","436"
"3","3","encoding","encoding","227","SmokingPipe.jpg","3",".","37","0","444"
"3","3","encoding","encoding","228","Strainer_Tea.jpg","3",".","37","0","411"
"3","3","encoding","encoding","229","Flower_Hibiscus.jpg","3",".","36","0","523"
"3","3","encoding","encoding","230","Statue_SouthAmerican.jpg","3",".","37","0","411"
"3","3","encoding","encoding","231","Icepick.jpg","3",".","37","0","394"
"3","3","encoding","encoding","232","Playground.jpg","3",".","37","0","394"
"3","3","encoding","encoding","233","ContactLens.jpg","1",".","37","0","394"
"3","3","encoding","encoding","234","GranolaBar.jpg","1",".","37","0","465"
"3","3","encoding","encoding","235","Toy_Lighthouse.jpg","3",".","37","0","401"
"3","3","encoding","encoding","236","Switch_LightWhite.jpg","1",".","37","0","401"
"3","3","encoding","encoding","237","Makeup_Foundation.jpg","3",".","37","0","400"
"3","3","encoding","encoding","238","Box_FirstAidOpen.jpg","3",".","37","0","504"
"3","3","encoding","encoding","239","Comb.jpg","1",".","37","0","391"
"3","3","encoding","encoding","240","Statue_VirginMary.jpg","3",".","37","0","519"
"3","3","encoding","encoding","241","Pasta_Spaghetti.jpg","3",".","37","0","695"
"3","3","encoding","encoding","242","HumanSkeleton.jpg","3",".","36","0","582"
"3","3","encoding","encoding","243","Boots_KneeHigh.jpg","1",".","37","0","414"
"3","3","encoding","encoding","244","Pajamas.jpg","3",".","37","0","398"
"3","3","encoding","encoding","245","Hoverboard.jpg","3",".","37","0","397"
"3","3","encoding","encoding","246","Case_DVD.jpg","3",".","37","0","389"
"3","3","encoding","encoding","247","SmokingPipe.jpg","3",".","37","0","365"
"3","3","encoding","encoding","248","Hoverboard.jpg","3",".","37","0","380"
"3","3","encoding","encoding","249","Statue_VirginMary.jpg","3",".","37","0","364"
"3","3","encoding","encoding","250","KeyHook_Occupied.jpg","3",".","37","0","403"
"3","3","encoding","encoding","251","BicycleOdometer.jpg","1",".","37","0","363"
"3","3","encoding","encoding","252","Sock_Ankle.jpg","1",".","37","0","411"
"3","3","encoding","encoding","253","ToothPaste.jpg","3",".","37","0","402"
"3","3","encoding","encoding","254","SaxophoneSoprano.jpg","1",".","37","0","442"
"3","3","encoding","encoding","255","Gun_Glue.jpg","1",".","37","0","402"
"3","3","encoding","encoding","256","SkiPoles.jpg","1",".","37","0","409"
"3","3","encoding","encoding","257","FlipFlop_PairBlue.jpg","1",".","37","0","369"
"3","3","encoding","encoding","258","Socks_Winter.jpg","1",".","37","0","329"
"3","3","encoding","encoding","259","Pasta_Spaghetti.jpg","3",".","37","0","424"
"3","3","encoding","encoding","260","Glass_Martini.jpg","1",".","37","0","400"
"3","3","encoding","encoding","261","Icepick.jpg","3",".","37","0","424"
"3","3","encoding","encoding","262","KitchenTools.jpg","1",".","37","0","495"
"3","3","encoding","encoding","263","Bandage_Wrap.jpg","3",".","37","0","663"
"3","3","encoding","encoding","265","Microphone.jpg","3",".","37","0","500"
"3","3","encoding","encoding","266","BicycleGear.jpg","3",".","37","0","355"
"3","3","encoding","encoding","267","Frame_Oval.jpg","3",".","37","0","411"
"3","3","encoding","encoding","268","Toy_Lighthouse.jpg","3",".","37","0","386"
"3","3","encoding","encoding","269","Cross.jpg","1",".","37","0","338"
"3","3","encoding","encoding","270","Pig.jpg","3",".","36","0","426"
"3","3","encoding","encoding","271","Bandage_Wrap.jpg","3",".","37","0","457"
"3","3","encoding","encoding","272","Bandage_Wrap.jpg","3",".","37","0","409"
"3","3","encoding","encoding","273","Radio_Vintage.jpg","3",".","37","0","401"
"3","3","encoding","encoding","274","Flower_Orchid.jpg","3",".","36","0","536"
"3","3","encoding","encoding","275","Boardgame_Checkers.jpg","3",".","37","0","360"
"3","3","encoding","encoding","276","ReindeerHeadband.jpg","3",".","37","0","408"
"3","3","encoding","encoding","277","Ball_Disco.jpg","3",".","37","0","415"
"3","3","encoding","encoding","278","Exercise_Machine.jpg","1",".","37","0","399"
"3","3","encoding","encoding","279","Box_FirstAidOpen.jpg","3",".","37","0","462"
"3","3","encoding","encoding","280","Cage_Bird.jpg","3",".","37","0","366"
"3","3","encoding","encoding","281","Cage_Bird.jpg","3",".","37","0","326"
"3","3","encoding","encoding","282","Crutches.jpg","1",".","37","0","437"
"3","3","encoding","encoding","283","Chipmunk.jpg","3",".","36","0","421"
"3","3","encoding","encoding","284","Playground.jpg","3",".","37","0","261"
"3","3","encoding","encoding","285","Crib_Basket.jpg","1",".","37","0","412"
"3","3","encoding","encoding","286","SafetyPin.jpg","3",".","37","0","412"
"3","3","encoding","encoding","287","Brace_Back.jpg","3",".","37","0","420"
"3","3","encoding","encoding","288","Pajamas.jpg","3",".","37","0","347"
"3","3","encoding","encoding","289","CartonEggs.jpg","3",".","36","0","507"
"3","3","encoding","encoding","290","Frame_Oval.jpg","3",".","37","0","370"
"3","3","encoding","encoding","291","ChessPiece_Knight.jpg","3",".","37","0","450"
"3","3","encoding","encoding","292","Beaker.jpg","3",".","37","0","370"
"3","3","encoding","encoding","293","Hottub.jpg","3",".","37","0","401"
"3","3","encoding","encoding","294","Toy_PoliceCar.jpg","1",".","37","0","337"
"3","3","encoding","encoding","295","Ball_Disco.jpg","3",".","37","0","361"
"3","3","encoding","encoding","296","Strainer_Tea.jpg","3",".","37","0","360"
"3","3","encoding","encoding","297","Bugle.jpg","3",".","37","0","416"
"3","3","encoding","encoding","298","Ball_8.jpg","3",".","37","0","392"
"3","3","encoding","encoding","299","Helmet_Knight.jpg","1",".","37","0","439"
"3","3","encoding","encoding","300","Boardgame_Checkers.jpg","3",".","37","0","383"
"3","3","encoding","encoding","301","Box_FirstAidOpen.jpg","3",".","37","0","398"
"3","3","encoding","encoding","302","Chopsticks.jpg","3",".","37","0","670"
"3","3","encoding","encoding","303","Toy_DollOffice.jpg","1",".","37","0","438"
"3","3","encoding","encoding","304","SewingMachine.jpg","3",".","37","0","365"
"3","3","encoding","encoding","305","Iron_Antique.jpg","3",".","37","0","397"
"3","3","encoding","encoding","306","Chinchilla.jpg","3",".","36","0","413"
"3","3","encoding","encoding","307","Boxcutter.jpg","3",".","37","0","396"
"3","3","encoding","encoding","308","Pipe.jpg","3",".","37","0","396"
"3","3","encoding","encoding","309","CrepeMaker.jpg","1",".","37","0","364"
"3","3","encoding","encoding","310","ChessPiece_Knight.jpg","3",".","37","0","459"
"3","3","encoding","encoding","311","Pig.jpg","3",".","36","0","435"
"3","3","encoding","encoding","312","Tire_Hollow.jpg","1",".","37","0","275"
"3","3","encoding","encoding","313","HumanSkeleton.jpg","3",".","36","0","466"
"3","3","encoding","encoding","314","Makeup_Foundation.jpg","3",".","37","0","346"
"3","3","encoding","encoding","315","Beaker.jpg","3",".","37","0","313"
"3","3","encoding","encoding","316","Cabinet_Display.jpg","3",".","37","0","441"
"3","3","encoding","encoding","317","Knife_Butter.jpg","3",".","37","0","505"
"3","3","encoding","encoding","318","RibbonSpool.jpg","3",".","37","0","384"
"3","3","encoding","encoding","319","Bugle.jpg","3",".","37","0","368"
"3","3","encoding","encoding","320","Microphone.jpg","3",".","37","0","392"
"3","3","encoding","encoding","321","ReindeerHeadband.jpg","3",".","37","0","343"
"3","3","encoding","encoding","322","Case_DVD.jpg","3",".","37","0","399"
"3","3","encoding","encoding","323","Bottle_Specimen.jpg","3",".","37","0","407"
"3","3","encoding","encoding","324","Bomb.jpg","3",".","37","0","382"
"3","3","encoding","encoding","325","ReindeerHeadband.jpg","",".","37","0","382"
"3","3","retrieval","old_object","1","Pickaxe.jpg",".","1","37","0","932"
"3","3","retrieval","new_object","2","Toy_StackingRing.jpg",".",".","37","1","891"
"3","3","retrieval","old_object","3","Hoverboard.jpg",".","3","36","1","843"
"3","3","retrieval","new_object","4","Sign_Wetfloor.jpg",".",".","37","1","770"
"3","3","retrieval","new_object","5","LeatherPuncherTool.jpg",".",".","37","1","1298"
"3","3","retrieval","old_object","6","Thermostat.jpg",".","3","37","0","929"
"3","3","retrieval","new_object","7","Fish_Rockbass.jpg",".",".","37","1","816"
"3","3","retrieval","new_object","8","Phone_Wireless.jpg",".",".","37","1","824"
"3","3","retrieval","old_object","9","Toy_SeeSaw.jpg",".","1","36","1","1143"
"3","3","retrieval","old_object","10","TurkeyDinner.jpg",".","3","36","1","999"
"3","3","retrieval","old_object","11","SewingMachine.jpg",".","3","36","1","646"
"3","3","retrieval","old_object","12","Toy_Lighthouse.jpg",".","3","36","1","757"
"3","3","retrieval","old_object","13","CuttingBoard.jpg",".","1","37","0","893"
"3","3","retrieval","old_object","14","Pot_Cooking.jpg",".","1","37","0","1516"
"3","3","retrieval","old_object","15","TireRims.jpg",".","1","36","1","788"
"3","3","retrieval","old_object","16","Currants.jpg",".","1","37","0","1619"
"3","3","retrieval","old_object","17","Telescope.jpg",".","1","36","1","1218"
"3","3","retrieval","new_object","18","Generator.jpg",".",".","37","1","1074"
"3","3","retrieval","new_object","19","FireExtinguisher.jpg",".",".","36","0","1329"
"3","3","retrieval","new_object","20","Trophy.jpg",".",".","37","1","1545"
"3","3","retrieval","old_object","21","OnionRed.jpg",".","3","36","1","1192"
"3","3","retrieval","old_object","22","Hockey_Equipment.jpg",".","1","36","1","1271"
"3","3","retrieval","new_object","23","BadgeSpecialAgent.jpg",".",".","37","1","1847"
"3","3","retrieval","old_object","24","Sink_Bathroom.jpg",".","1","36","1","1454"
"3","3","retrieval","old_object","25","Toy_BearBlackPlastic.jpg",".","1","36","1","1294"
"3","3","retrieval","new_object","26","Mask_Happy.jpg",".",".","37","1","1205"
"3","3","retrieval","old_object","27","Hammer.jpg",".","3","36","1","1068"
"3","3","retrieval","new_object","28","NailPolish.jpg",".",".","36","0","908"
"3","3","retrieval","old_object","29","ReindeerHeadband.jpg",".","3","36","1","1019"
"3","3","retrieval","new_object","30","Chair_MedicalToilet.jpg",".",".","37","1","1307"
"3","3","retrieval","new_object","31","Bellows.jpg",".",".","37","1","1122"
"3","3","retrieval","old_object","32","ElasticBand.jpg",".","3","36","1","953"
"3","3","retrieval","new_object","33","Teabag.jpg",".",".","37","1","993"
"3","3","retrieval","new_object","34","CameoPortrait.jpg",".",".","37","1","1048"
"3","3","retrieval","new_object","35","StringBean.jpg",".",".","37","1","880"
"3","3","retrieval","new_object","36","DryRack_Dishes.jpg",".",".","37","1","927"
"3","3","retrieval","old_object","37","Loofa.jpg",".","3","36","1","1126"
"3","3","retrieval","new_object","38","BottleOpener.jpg",".",".","37","1","902"
"3","3","retrieval","old_object","39","Lamp_TableWhite.jpg",".","1","37","0","1533"
"3","3","retrieval","old_object","40","Brace_Back.jpg",".","3","36","1","669"
"3","3","retrieval","old_object","41","Hottub.jpg",".","3","36","1","716"
"3","3","retrieval","old_object","42","Toolbox_RedOpen.jpg",".","1","36","1","1243"
"3","3","retrieval","old_object","43","ContactLens.jpg",".","1","36","1","1267"
"3","3","retrieval","old_object","44","Waffle.jpg",".","3","36","1","650"
"3","3","retrieval","old_object","45","Makeup_Foundation.jpg",".","3","36","1","690"
"3","3","retrieval","new_object","46","Mat_Door.jpg",".",".","37","1","777"
"3","3","retrieval","old_object","47","Bugle.jpg",".","3","36","1","840"
"3","3","retrieval","old_object","48","Box_FirstAidOpen.jpg",".","3","36","1","1072"
"3","3","retrieval","old_object","49","Bottle_Specimen.jpg",".","3","36","1","575"
"3","3","retrieval","new_object","50","BicycleHandleGrip.jpg",".",".","37","1","775"
"3","3","retrieval","new_object","51","CookieCutter_Bell.jpg",".",".","36","0","1150"
"3","3","retrieval","old_object","52","Toolbox_Old.jpg",".","1","36","1","821"
"3","3","retrieval","new_object","53","PuppetTheatre_WhiteGold.jpg",".",".","37","1","637"
"3","3","retrieval","old_object","54","PaintRoller.jpg",".","3","36","1","724"
"3","3","retrieval","old_object","55","Paddle_Beach.jpg",".","1","36","1","1004"
"3","3","retrieval","new_object","56","Speaker_OnStand.jpg",".",".","37","1","1003"
"3","3","retrieval","old_object","57","Cross.jpg",".","1","36","1","1170"
"3","3","retrieval","old_object","58","LampPost_OneBulb.jpg",".","1","37","0","730"
"3","3","retrieval","new_object","59","Hourglass.jpg",".",".","37","1","785"
"3","3","retrieval","new_object","60","IceCrusher.jpg",".",".","37","1","1537"
"3","3","retrieval","new_object","61","Knife_Hunting.jpg",".",".","37","1","872"
"3","3","retrieval","old_object","62","Iron_Antique.jpg",".","3","36","1","791"
"3","3","retrieval","old_object","63","Pajamas.jpg",".","3","36","1","759"
"3","3","retrieval","new_object","64","Clip_Paper.jpg",".",".","36","0","918"
"3","3","retrieval","old_object","65","AnsweringMachine.jpg",".","3","36","1","678"
"3","3","retrieval","new_object","67","Peppermill.jpg",".",".","37","1","901"
"3","3","retrieval","old_object","68","KeyHook_Occupied.jpg",".","3","36","1","580"
"3","3","retrieval","new_object","69","Lantern_TeaBox.jpg",".",".","37","1","1388"
"3","3","retrieval","old_object","70","Broom_Long.jpg",".","3","36","1","571"
"3","3","retrieval","new_object","71","DentistOverheadLight.jpg",".",".","37","1","706"
"3","3","retrieval","new_object","72","Spoon_Wooden.jpg",".",".","37","1","786"
"3","3","retrieval","new_object","73","WashRack.jpg",".",".","37","1","729"
"3","3","retrieval","old_object","74","Tribunal_Wooden.jpg",".","3","36","1","1161"
"3","3","retrieval","new_object","75","Bathtub.jpg",".",".","37","1","752"
"3","3","retrieval","new_object","76","Steeple.jpg",".",".","37","1","607"
"3","3","retrieval","new_object","77","Exercise_Stretch.jpg",".",".","37","1","767"
"3","3","retrieval","new_object","78","Golf_Bag.jpg",".",".","37","1","614"
"3","3","retrieval","old_object","79","Hazelnut.jpg",".","3","36","1","790"
"3","3","retrieval","new_object","80","Colander.jpg",".",".","36","0","1357"
"3","3","retrieval","old_object","81","CookieCutter_Tree.jpg",".","1","36","1","556"
"3","3","retrieval","old_object","82","Crib_Basket.jpg",".","1","36","1","1180"
"3","3","retrieval","old_object","83","Can_OilSpout.jpg",".","3","36","1","955"
"3","3","retrieval","new_object","84","Chest_Toys.jpg",".",".","37","1","1451"
"3","3","retrieval","old_object","85","Boxcutter.jpg",".","3","36","1","658"
"3","3","retrieval","new_object","86","Cake_Wedding.jpg",".",".","36","0","585"
"3","3","retrieval","old_object","87","Icepick.jpg",".","3","36","1","689"
"3","3","retrieval","old_object","88","Truck_Dump.jpg",".","1","36","1","1312"
"3","3","retrieval","new_object","89","Shoes_DutchClogs.jpg",".",".","37","1","856"
"3","3","retrieval","old_object","90","Syrup_Maple.jpg",".","3","36","1","767"
"3","3","retrieval","new_object","91","GasBurner.jpg",".",".","37","1","1166"
"3","3","retrieval","new_object","92","Pipe_Drain.jpg",".",".","37","1","1638"
"3","3","retrieval","old_object","93","Baster.jpg",".","1","36","1","581"
"3","3","retrieval","old_object","94","ShearsGarden.jpg",".","1","36","1","1181"
"3","3","retrieval","new_object","95","Toy_Moose.jpg",".",".","37","1","1228"
"3","3","retrieval","new_object","96","Shampoo.jpg",".",".","37","1","995"
"3","3","retrieval","new_object","97","HairDryer.jpg",".",".","37","1","923"
"3","3","retrieval","old_object","98","Gun_Glue.jpg",".","1","37","0","1554"
"3","3","retrieval","new_object","99","Lilypad.jpg",".",".","37","1","1258"
"3","3","retrieval","old_object","100","MobilityScooter.jpg",".","1","37","0","1777"
"3","3","retrieval","new_object","101","MonaLisa.jpg",".",".","37","1","584"
"3","3","retrieval","old_object","102","RibbonSpool.jpg",".","3","36","1","1104"
"3","3","retrieval","new_object","103","Bowl_Chinese.jpg",".",".","37","1","639"
"3","3","retrieval","new_object","104","Sign_Parking.jpg",".",".","37","1","703"
"3","3","retrieval","new_object","105","Leaf_Clover.jpg",".",".","37","1","662"
"3","3","retrieval","old_object","106","ChessPiece_Knight.jpg",".","3","36","1","725"
"3","3","retrieval","new_object","107","Thermostat_Digital.jpg",".",".","37","1","1069"
"3","3","retrieval","old_object","108","SaxophoneSoprano.jpg",".","1","37","0","924"
"3","3","retrieval","old_object","109","PedestalGreek.jpg",".","1","36","1","900"
"3","3","retrieval","new_object","110","BicycleBrake.jpg",".",".","37","1","1547"
"3","3","retrieval","new_object","111","Candy_Heart.jpg",".",".","37","1","762"
"3","3","retrieval","new_object","112","JukeboxAntique.jpg",".",".","37","1","714"
"3","3","retrieval","new_object","113","Tickets_Blank.jpg",".",".","37","1","1169"
"3","3","retrieval","new_object","114","Car_Sedan.jpg",".",".","37","1","769"
"3","3","retrieval","new_object","115","Saw.jpg",".",".","37","1","768"
"3","3","retrieval","old_object","116","Boots_KneeHigh.jpg",".","1","36","1","775"
"3","3","retrieval","old_object","117","Radio_Vintage.jpg",".","3","36","1","1199"
"3","3","retrieval","new_object","118","ShoulderPads.jpg",".",".","37","1","1878"
"3","3","retrieval","new_object","119","Mattress.jpg",".",".","37","1","758"
"3","3","retrieval","new_object","120","SculptureMetalFish.jpg",".",".","37","1","973"
"3","3","retrieval","old_object","121","BicycleOdometer.jpg",".","1","37","0","1724"
"3","3","retrieval","old_object","122","Hawk.jpg",".","1","36","1","892"
"3","3","retrieval","old_object","123","SafetyPin.jpg",".","3","36","1","507"
"3","3","retrieval","old_object","124","CrepeMaker.jpg",".","1","36","1","971"
"3","3","retrieval","old_object","125","Cabinet_Office.jpg",".","3","36","1","626"
"3","3","retrieval","new_object","126","Wheelbarrow_Green.jpg",".",".","37","1","1185"
"3","3","retrieval","new_object","127","PotatoMasher_Zigzag.jpg",".",".","37","1","1448"
"3","3","retrieval","old_object","128","Statue_VirginMary.jpg",".","3","36","1","600"
"3","3","retrieval","old_object","129","DivingBoard.jpg",".","1","37","0","632"
"3","3","retrieval","old_object","130","Dart.jpg",".","1","36","1","783"
"3","3","retrieval","new_object","131","Oyster.jpg",".",".","37","1","966"
"3","3","retrieval","new_object","133","Toy_Shapesorter.jpg",".",".","0","0","1994"
"3","3","retrieval","new_object","134","Apple_RedAndGreen.jpg",".",".","0","0","1994"
"3","3","retrieval","old_object","135","Drum_Brazilan.jpg",".","3","0","0","1994"
"3","3","retrieval","old_object","136","Ball_Disco.jpg",".","3","0","0","1994"
"3","3","retrieval","old_object","137","Bomb.jpg",".","3","0","0","1994"
"3","3","retrieval","old_object","138","Pasta_Spaghetti.jpg",".","3","0","0","1994"
"3","3","retrieval","old_object","139","Toy_DollOffice.jpg",".","1","0","0","1994"
"3","3","retrieval","old_object","140","Bell_Hand.jpg",".","1","0","0","1994"
"3","3","retrieval","new_object","141","RemoteControl.jpg",".",".","0","0","1994"
"3","3","retrieval","new_object","142","Bottle_Wine.jpg",".",".","0","0","1994"
"3","3","retrieval","old_object","143","Beaker.jpg",".","3","37","0","1057"
"3","3","retrieval","new_object","144","Sushi.jpg",".",".","0","0","1994"
"3","3","retrieval","old_object","145","Dolphine.jpg",".","3","36","1","944"
"3","3","retrieval","new_object","146","Dress_Party.jpg",".",".","37","1","768"
"3","3","retrieval","new_object","147","Tripod.jpg",".",".","37","1","687"
"3","3","retrieval","old_object","148","SmokingPipe.jpg",".","3","36","1","638"
"3","3","retrieval","old_object","149","Strainer_Tea.jpg",".","3","36","1","806"
"3","3","retrieval","new_object","150","Hook_Fish.jpg",".",".","37","1","1349"
"3","3","retrieval","new_object","151","Guitarcase.jpg",".",".","37","1","1213"
"3","3","retrieval","new_object","152","CandyDispenser.jpg",".",".","0","0","1994"
"3","3","retrieval","new_object","153","MonkeyPuppet.jpg",".",".","37","1","1251"
"3","3","retrieval","new_object","154","Paratrooper.jpg",".",".","37","1","1315"
"3","3","retrieval","old_object","155","Brooch_Fish.jpg",".","3","36","1","762"
"3","3","retrieval","old_object","156","Flower_Orchid.jpg",".","3","36","1","602"
"3","3","retrieval","new_object","157","Cherry.jpg",".",".","37","1","881"
"3","3","retrieval","old_object","158","Crutches.jpg",".","1","36","1","944"
"3","3","retrieval","new_object","159","Table_Poker.jpg",".",".","37","1","680"
"3","3","retrieval","old_object","160","SkullDeer.jpg",".","3","36","1","551"
"3","3","retrieval","new_object","161","Blanket.jpg",".",".","37","1","1063"
"3","3","retrieval","old_object","162","Shoe_Pink.jpg",".","1","37","0","1078"
"3","3","retrieval","new_object","163","MixingGlass.jpg",".",".","36","0","1333"
"3","3","retrieval","old_object","164","Tape_Washi.jpg",".","3","36","1","773"
"3","3","retrieval","new_object","165","BusStop.jpg",".",".","37","1","1572"
"3","3","retrieval","new_object","166","DoorKnob.jpg",".",".","37","1","740"
"3","3","retrieval","new_object","167","Pitcher.jpg",".",".","37","1","563"
"3","3","retrieval","new_object","168","Bottle_Blue.jpg",".",".","37","1","514"
"3","3","retrieval","new_object","169","DoorBell.jpg",".",".","37","1","658"
"3","3","retrieval","new_object","170","Spoons_MeasuringDetached.jpg",".",".","37","1","985"
"3","3","retrieval","old_object","171","Case_DVD.jpg",".","3","37","0","945"
"3","3","retrieval","new_object","172","Fuse.jpg",".",".","37","1","664"
"3","3","retrieval","new_object","173","Hippopotamus.jpg",".",".","36","0","591"
"3","3","retrieval","old_object","174","Cannister_Gas.jpg",".","1","37","0","911"
"3","3","retrieval","new_object","175","Ashtray_Empty.jpg",".",".","36","0","1190"
"3","3","retrieval","old_object","176","Playground.jpg",".","3","36","1","1014"
"3","3","retrieval","new_object","177","Flamingo_Cartoon.jpg",".",".","37","1","1029"
"3","3","retrieval","old_object","178","Tofu.jpg",".","1","37","0","940"
"3","3","retrieval","new_object","179","Goose_Canadian.jpg",".",".","37","1","996"
"3","3","retrieval","new_object","180","Box_Jewellery.jpg",".",".","37","1","571"
"3","3","retrieval","old_object","181","Caterpillar.jpg",".","3","36","1","675"
"3","3","retrieval","new_object","182","Beater_Electric.jpg",".",".","36","0","1546"
"3","3","retrieval","new_object","183","Mitt_Oven.jpg",".",".","37","1","1505"
"3","3","retrieval","old_object","184","PanCooking.jpg",".","1","36","1","1073"
"3","3","retrieval","old_object","185","Jar_Cotton.jpg",".","1","36","1","872"
"3","3","retrieval","new_object","186","Keg.jpg",".",".","37","1","928"
"3","3","retrieval","old_object","187","Kite_Rainbow.jpg",".","1","36","1","863"
"3","3","retrieval","old_object","188","Exercise_Machine.jpg",".","1","37","0","1902"
"3","3","retrieval","old_object","189","Seashell_AlternateTellin.jpg",".","1","36","1","1246"
"3","3","retrieval","old_object","190","Frame_Oval.jpg",".","3","37","0","685"
"3","3","retrieval","old_object","191","Glass_Cup.jpg",".","3","36","1","685"
"3","3","retrieval","old_object","192","Flower_Hibiscus.jpg",".","3","36","1","644"
"3","3","retrieval","old_object","193","HumanSkeleton.jpg",".","3","36","1","1179"
"3","3","retrieval","new_object","194","Skates.jpg",".",".","37","1","827"
"3","3","retrieval","new_object","195","Cassette_Audio.jpg",".",".","37","1","1130"
"3","3","retrieval","old_object","196","Lighter_Yellow.jpg",".","1","36","1","1770"
"3","3","retrieval","new_object","197","WireStripper.jpg",".",".","37","1","1537"
"3","3","retrieval","old_object","199","ToothPaste.jpg",".","3","36","1","1388"
"3","3","retrieval","old_object","200","PropellerFan.jpg",".","1","37","0","731"
"3","3","retrieval","new_object","201","TartStrawberry.jpg",".",".","37","1","707"
"3","3","retrieval","new_object","202","Mango.jpg",".",".","37","1","1106"
"3","3","retrieval","new_object","203","NeedlesAcupuncture.jpg",".",".","37","1","841"
"3","3","retrieval","new_object","204","PaintBrushAndPallette.jpg",".",".","37","1","777"
"3","3","retrieval","old_object","205","Tweezers.jpg",".","3","37","0","1784"
"3","3","retrieval","new_object","206","BicyclePedal.jpg",".",".","37","1","1400"
"3","3","retrieval","old_object","207","Wheel_Steering.jpg",".","3","36","1","1375"
"3","3","retrieval","new_object","208","Mug_Beer.jpg",".",".","37","1","1734"
"3","3","retrieval","new_object","209","MouthGuard.jpg",".",".","37","1","638"
"3","3","retrieval","old_object","210","Clock_Radio.jpg",".","1","37","0","581"
"3","3","retrieval","new_object","211","ButterDish.jpg",".",".","37","1","661"
"3","3","retrieval","old_object","212","Sign_TrafficArrow.jpg",".","1","36","1","1052"
"3","3","retrieval","old_object","213","Cage_Bird.jpg",".","3","36","1","763"
"3","3","retrieval","old_object","214","Toy_TableSet.jpg",".","1","36","1","1195"
"3","3","retrieval","new_object","215","Desk_School.jpg",".",".","37","1","1298"
"3","3","retrieval","new_object","216","Trumpet.jpg",".",".","36","0","770"
"3","3","retrieval","new_object","217","NintendoWii.jpg",".",".","37","1","953"
"3","3","retrieval","old_object","218","House_Rural.jpg",".","1","36","1","728"
"3","3","retrieval","old_object","219","Glass_Martini.jpg",".","1","37","0","1184"
"3","3","retrieval","new_object","220","Mop.jpg",".",".","37","1","831"
"3","3","retrieval","old_object","221","PaperStack.jpg",".","1","37","0","679"
"3","3","retrieval","old_object","222","Socks_Winter.jpg",".","1","37","0","1206"
"3","3","retrieval","new_object","223","Nyala.jpg",".",".","37","1","1381"
"3","3","retrieval","new_object","224","Guitar_Acoustic.jpg",".",".","37","1","709"
"3","3","retrieval","new_object","225","DogTreat.jpg",".",".","37","1","620"
"3","3","retrieval","old_object","226","Carbiner_Ascender.jpg",".","1","37","0","844"
"3","3","retrieval","old_object","227","Cabinet_Display.jpg",".","3","37","0","683"
"3","3","retrieval","old_object","228","Pig.jpg",".","3","36","1","546"
"3","3","retrieval","new_object","229","Bullet.jpg",".",".","37","1","1186"
"3","3","retrieval","new_object","230","Bird_Cardinal.jpg",".",".","37","1","729"
"3","3","retrieval","new_object","231","Cup_Styrofoam.jpg",".",".","37","1","689"
"3","3","retrieval","new_object","232","fries.jpg",".",".","37","1","560"
"3","3","retrieval","old_object","233","Chopsticks.jpg",".","3","36","1","751"
"3","3","retrieval","new_object","234","Chair_BeanBag.jpg",".",".","37","1","615"
"3","3","retrieval","old_object","235","Bench_Wooden.jpg",".","3","36","1","1422"
"3","3","retrieval","new_object","236","DrinkingFountain.jpg",".",".","36","0","974"
"3","3","retrieval","new_object","237","Stove_Camping.jpg",".",".","36","0","757"
"3","3","retrieval","old_object","238","BoogieBoard.jpg",".","1","36","1","836"
"3","3","retrieval","old_object","239","Gorilla.jpg",".","1","36","1","732"
"3","3","retrieval","old_object","240","Boardgame_Checkers.jpg",".","3","36","1","547"
"3","3","retrieval","new_object","241","Helmet_Soldier.jpg",".",".","37","1","1467"
"3","3","retrieval","old_object","242","Bandage_Wrap.jpg",".","3","36","1","610"
"3","3","retrieval","new_object","243","Hammer_Reflex.jpg",".",".","37","1","905"
"3","3","retrieval","old_object","244","Arch.jpg",".","3","36","1","825"
"3","3","retrieval","new_object","245","Jar_JellyBeans.jpg",".",".","37","1","728"
"3","3","retrieval","old_object","246","Spatula_1.jpg",".","3","36","1","1320"
"3","3","retrieval","new_object","247","TeethMould.jpg",".",".","37","1","1111"
"3","3","retrieval","new_object","248","Lollipop_Grape.jpg",".",".","37","1","1086"
"3","3","retrieval","old_object","249","Sock_Ankle.jpg",".","1","36","1","934"
"3","3","retrieval","new_object","250","Balalaika.jpg",".",".","37","1","717"
"3","3","retrieval","new_object","251","Fortress.jpg",".",".","37","1","1165"
"3","3","retrieval","old_object","252","Decoration_WallOrnament.jpg",".","1","36","1","780"
"3","3","retrieval","new_object","253","Notebook.jpg",".",".","37","1","963"
"3","3","retrieval","old_object","254","BloodpPresureCuff.jpg",".","1","36","1","771"
"3","3","retrieval","new_object","255","Toy_RockingHorseBlack.jpg",".",".","37","1","1770"
"3","3","retrieval","old_object","256","DrillBit.jpg",".","1","36","1","1026"
"3","3","retrieval","new_object","257","GPS.jpg",".",".","37","1","1617"
"3","3","retrieval","new_object","258","SmokeDetector.jpg",".",".","36","0","608"
"3","3","retrieval","old_object","259","Knife_Butter.jpg",".","3","36","1","952"
"3","3","retrieval","old_object","260","KitchenTools.jpg",".","1","36","1","847"
"3","3","retrieval","new_object","261","Chest.jpg",".",".","37","1","1198"
"3","3","retrieval","new_object","262","Cantaloupe.jpg",".",".","37","1","757"
"3","3","retrieval","old_object","263","Microphone.jpg",".","3","36","1","653"
"3","3","retrieval","new_object","265","TinChristmas.jpg",".",".","37","1","1214"
"3","3","retrieval","new_object","266","Drink_Green.jpg",".",".","37","1","821"
"3","3","retrieval","new_object","267","Toys_Lego.jpg",".",".","37","1","837"
"3","3","retrieval","new_object","268","Autocreeper.jpg",".",".","37","1","1044"
"3","3","retrieval","old_object","269","Pen_Ballpoint.jpg",".","1","36","1","859"
"3","3","retrieval","new_object","270","Toy_Witch.jpg",".",".","37","1","691"
"3","3","retrieval","old_object","271","BicycleChain.jpg",".","1","36","1","1202"
"3","3","retrieval","old_object","272","Dress_Blue.jpg",".","1","36","1","850"
"3","3","retrieval","new_object","273","Candle_Blue.jpg",".",".","37","1","825"
"3","3","retrieval","old_object","274","Jug_Milk.jpg",".","1","37","0","720"
"3","3","retrieval","old_object","275","Hat_Baseball.jpg",".","1","36","1","664"
"3","3","retrieval","old_object","276","Fridge.jpg",".","3","36","1","1150"
"3","3","retrieval","old_object","277","Bindings_Snowboard.jpg",".","3","36","1","1095"
"3","3","retrieval","old_object","278","Chipmunk.jpg",".","3","36","1","597"
"3","3","retrieval","new_object","279","Pants_Jeans.jpg",".",".","37","1","917"
"3","3","retrieval","old_object","280","Thermos_MetalSleek.jpg",".","3","36","1","1029"
"3","3","retrieval","new_object","281","Almond.jpg",".",".","37","1","1283"
"3","3","retrieval","old_object","282","CartonEggs.jpg",".","3","36","1","708"
"3","3","retrieval","new_object","283","Knee.jpg",".",".","37","1","1242"
"3","3","retrieval","old_object","284","Outhouse.jpg",".","1","36","1","825"
"3","3","retrieval","old_object","285","Comb.jpg",".","1","37","0","841"
"3","3","retrieval","old_object","286","Screw.jpg",".","1","37","0","616"
"3","3","retrieval","new_object","287","AmpMeter.jpg",".",".","36","0","1160"
"3","3","retrieval","old_object","288","Toy_PoliceCar.jpg",".","1","36","1","687"
"3","3","retrieval","old_object","289","Chinchilla.jpg",".","3","36","1","1006"
"3","3","retrieval","new_object","290","Box_Floral.jpg",".",".","37","1","1182"
"3","3","retrieval","old_object","291","BicycleGear.jpg",".","3","36","1","1397"
"3","3","retrieval","new_object","292","IceCream_Chocolate.jpg",".",".","37","1","1270"
"3","3","retrieval","new_object","293","FlashlightHeadBand.jpg",".",".","37","1","1229"
"3","3","retrieval","old_object","294","Helmet_Knight.jpg",".","1","36","1","1139"
"3","3","retrieval","new_object","295","Helmet_Construction.jpg",".",".","36","0","1483"
"3","3","retrieval","old_object","296","Switch_LightWhite.jpg",".","1","37","0","850"
"3","3","retrieval","new_object","297","Pineapple.jpg",".",".","37","1","1714"
"3","3","retrieval","old_object","298","Statue_SouthAmerican.jpg",".","3","36","1","873"
"3","3","retrieval","old_object","299","Pipe.jpg",".","3","36","1","1121"
"3","3","retrieval","old_object","300","Bottle_BubbleBlower.jpg",".","1","37","0","1721"
"3","3","retrieval","old_object","301","SkiPoles.jpg",".","1","37","0","927"
"3","3","retrieval","new_object","302","Toy_BlocksPlastic Colourful.jpg",".",".","37","1","823"
"3","3","retrieval","new_object","303","Toy_GasPump.jpg",".",".","36","0","879"
"3","3","retrieval","new_object","304","PaintRollTray.jpg",".",".","36","0","1085"
"3","3","retrieval","old_object","305","Ball_8.jpg",".","3","36","1","677"
"3","3","retrieval","new_object","306","Megaphone.jpg",".",".","36","0","1212"
"3","3","retrieval","old_object","307","Box_Present.jpg",".","1","37","0","876"
"3","3","retrieval","old_object","308","FlipFlop_PairBlue.jpg",".","1","36","1","595"
"3","3","retrieval","old_object","309","Fencing_HelmetSwords.jpg",".","3","36","1","618"
"3","3","retrieval","old_object","310","CoffeeGrinder.jpg",".","1","37","0","859"
"3","3","retrieval","new_object","311","Glove_Rubber.jpg",".",".","37","1","969"
"3","3","retrieval","old_object","312","ShoppingCart.jpg",".","1","36","1","906"
"3","3","retrieval","old_object","313","GranolaBar.jpg",".","1","36","1","912"
"3","3","retrieval","old_object","314","Tire_Hollow.jpg",".","1","36","1","783"
"3","3","retrieval","old_object","315","Shield_Antique.jpg",".","3","36","1","1935"
"3","3","retrieval","new_object","316","PassionFruit.jpg",".",".","37","1","1142"
"3","3","retrieval","new_object","317","Lock_Combination.jpg",".",".","37","1","790"
"3","3","retrieval","new_object","318","Fruit_Cactus.jpg",".",".","37","1","1157"
"3","3","retrieval","new_object","319","Candy_Chocolate.jpg",".",".","37","1","596"
"3","3","retrieval","new_object","320","Light_Siren.jpg",".",".","37","1","804"
"3","3","retrieval","new_object","321","WindowBlinds.jpg",".",".","37","1","771"
"3","3","retrieval","old_object","322","SundaeBanana.jpg",".","1","36","1","1131"
"3","3","retrieval","new_object","323","Tortilla.jpg",".",".","0","0","1994"
"3","3","retrieval","new_object","324","Flute_Wooden.jpg",".",".","37","1","1089"
"3","3","retrieval","old_object","325","Pickaxe.jpg",".","","36","1","1265"
"3","3","demographics_block","gender","1",".",".",".","male","1","55769"
"3","3","demographics_block","age","1",".",".",".","31","1","55769"
"3","3","demographics_block","education","1",".",".",".","12","1","55769"
"3","3","demographics_block","left_right_handed","2",".",".",".","Right","1","16323"
"3","3","demographics_block","raceoption1","2",".",".",".","0","1","16323"
"3","3","demographics_block","raceoption2","2",".",".",".","","1","16323"
"3","3","demographics_block","raceoption3","2",".",".",".","","1","16323"
"3","3","demographics_block","raceoption4","2",".",".",".","","1","16323"
"3","3","demographics_block","raceoption5","2",".",".",".","","1","16323"
"3","3","demographics_block","raceoption6","2",".",".",".","5","1","16323"
"3","3","demographics_block","raceoption7","2",".",".",".","","1","16323"
"3","3","demographics_block","raceoption8","2",".",".",".","","1","16323"
"3","3","demographics_block","raceoption9","2",".",".",".","","1","16323"
"3","3","demographics_block","raceother","2",".",".",".","","1","16323"
"3","3","demographics_block","raceother","2",".",".",".","","1","16323"
"3","3","demographics_block","english_language","2",".",".",".","Yes","1","16323"
"3","3","demographics_block","other","2",".",".",".","","1","16323"
"3","3","demographics_block","eyesight","3",".",".",".","Yes","1","4758"
"3","3","demographics_block","colorblind","3",".",".",".","No","1","4758"
"18","18","encoding","encoding","1","ReindeerHeadband.jpg","3",".","37","0","807"
"18","18","encoding","encoding","2","Outhouse.jpg","1",".","37","0","800"
"18","18","encoding","encoding","3","Thermos_MetalSleek.jpg","3",".","37","0","717"
"18","18","encoding","encoding","4","Flower_Hibiscus.jpg","3",".","36","0","647"
"18","18","encoding","encoding","5","Caterpillar.jpg","3",".","36","0","643"
"18","18","encoding","encoding","6","CuttingBoard.jpg","1",".","37","0","727"
"18","18","encoding","encoding","7","Strainer_Tea.jpg","3",".","37","0","721"
"18","18","encoding","encoding","8","Fencing_HelmetSwords.jpg","3",".","37","0","673"
"18","18","encoding","encoding","9","Toy_Lighthouse.jpg","3",".","37","0","629"
"18","18","encoding","encoding","10","Flower_Hibiscus.jpg","3",".","36","0","511"
"18","18","encoding","encoding","11","Glass_Cup.jpg","3",".","37","0","476"
"18","18","encoding","encoding","12","Thermos_MetalSleek.jpg","3",".","37","0","511"
"18","18","encoding","encoding","13","Currants.jpg","1",".","36","0","601"
"18","18","encoding","encoding","14","Boxcutter.jpg","3",".","37","0","474"
"18","18","encoding","encoding","15","Cabinet_Office.jpg","3",".","37","0","584"
"18","18","encoding","encoding","16","Loofa.jpg","3",".","37","0","763"
"18","18","encoding","encoding","17","Hammer.jpg","3",".","37","0","670"
"18","18","encoding","encoding","18","Bindings_Snowboard.jpg","3",".","37","0","672"
"18","18","encoding","encoding","19","Hockey_Equipment.jpg","1",".","37","0","614"
"18","18","encoding","encoding","20","SewingMachine.jpg","3",".","37","0","589"
"18","18","encoding","encoding","21","TurkeyDinner.jpg","3",".","36","0","875"
"18","18","encoding","encoding","22","Waffle.jpg","3",".","36","0","692"
"18","18","encoding","encoding","23","Fridge.jpg","3",".","37","0","603"
"18","18","encoding","encoding","24","Hazelnut.jpg","3",".","36","0","592"
"18","18","encoding","encoding","25","Radio_Vintage.jpg","3",".","37","0","514"
"18","18","encoding","encoding","26","KeyHook_Occupied.jpg","3",".","37","0","524"
"18","18","encoding","encoding","27","Hottub.jpg","3",".","37","0","560"
"18","18","encoding","encoding","28","CartonEggs.jpg","3",".","36","0","615"
"18","18","encoding","encoding","29","PaintRoller.jpg","3",".","37","0","547"
"18","18","encoding","encoding","30","Wheel_Steering.jpg","3",".","37","0","597"
"18","18","encoding","encoding","31","Cannister_Gas.jpg","1",".","37","0","553"
"18","18","encoding","encoding","32","Cage_Bird.jpg","3",".","37","0","503"
"18","18","encoding","encoding","33","Brooch_Fish.jpg","3",".","37","0","538"
"18","18","encoding","encoding","34","Loofa.jpg","3",".","36","0","605"
"18","18","encoding","encoding","35","Clock_Radio.jpg","1",".","37","0","464"
"18","18","encoding","encoding","36","Flower_Orchid.jpg","3",".","36","0","499"
"18","18","encoding","encoding","37","CartonEggs.jpg","3",".","36","0","496"
"18","18","encoding","encoding","38","Can_OilSpout.jpg","3",".","37","0","492"
"18","18","encoding","encoding","39","BoogieBoard.jpg","1",".","37","0","678"
"18","18","encoding","encoding","40","Wheel_Steering.jpg","3",".","37","0","631"
"18","18","encoding","encoding","41","Chinchilla.jpg","3",".","36","0","511"
"18","18","encoding","encoding","42","Microphone.jpg","3",".","37","0","537"
"18","18","encoding","encoding","43","Boxcutter.jpg","3",".","37","0","435"
"18","18","encoding","encoding","44","Sink_Bathroom.jpg","1",".","37","0","435"
"18","18","encoding","encoding","45","Chopsticks.jpg","3",".","37","0","688"
"18","18","encoding","encoding","46","Kite_Rainbow.jpg","1",".","37","0","481"
"18","18","encoding","encoding","47","SafetyPin.jpg","3",".","37","0","447"
"18","18","encoding","encoding","48","PedestalGreek.jpg","1",".","37","0","440"
"18","18","encoding","encoding","49","Bench_Wooden.jpg","3",".","37","0","440"
"18","18","encoding","encoding","50","KeyHook_Occupied.jpg","3",".","37","0","516"
"18","18","encoding","encoding","51","Dress_Blue.jpg","1",".","37","0","569"
"18","18","encoding","encoding","52","Bugle.jpg","3",".","37","0","434"
"18","18","encoding","encoding","53","RibbonSpool.jpg","3",".","37","0","420"
"18","18","encoding","encoding","54","Bottle_BubbleBlower.jpg","1",".","37","0","416"
"18","18","encoding","encoding","55","PropellerFan.jpg","1",".","37","0","381"
"18","18","encoding","encoding","56","HumanSkeleton.jpg","3",".","37","0","462"
"18","18","encoding","encoding","57","Case_DVD.jpg","3",".","37","0","480"
"18","18","encoding","encoding","58","Bottle_Specimen.jpg","3",".","37","0","460"
"18","18","encoding","encoding","59","SmokingPipe.jpg","3",".","37","0","424"
"18","18","encoding","encoding","60","TurkeyDinner.jpg","3",".","36","0","573"
"18","18","encoding","encoding","61","SkullDeer.jpg","3",".","36","0","768"
"18","18","encoding","encoding","62","Brace_Back.jpg","3",".","37","0","673"
"18","18","encoding","encoding","63","Tweezers.jpg","3",".","37","0","529"
"18","18","encoding","encoding","64","Glass_Cup.jpg","3",".","37","0","458"
"18","18","encoding","encoding","65","Chopsticks.jpg","3",".","37","0","604"
"18","18","encoding","encoding","67","SkullDeer.jpg","3",".","36","0","627"
"18","18","encoding","encoding","68","ShoppingCart.jpg","1",".","37","0","530"
"18","18","encoding","encoding","69","Bomb.jpg","3",".","36","0","574"
"18","18","encoding","encoding","70","Arch.jpg","3",".","37","0","726"
"18","18","encoding","encoding","71","ShearsGarden.jpg","1",".","37","0","467"
"18","18","encoding","encoding","72","Broom_Long.jpg","3",".","37","0","606"
"18","18","encoding","encoding","73","AnsweringMachine.jpg","3",".","37","0","443"
"18","18","encoding","encoding","74","Arch.jpg","3",".","37","0","394"
"18","18","encoding","encoding","75","Thermos_MetalSleek.jpg","3",".","37","0","444"
"18","18","encoding","encoding","76","Brace_Back.jpg","3",".","37","0","491"
"18","18","encoding","encoding","77","Pot_Cooking.jpg","1",".","37","0","508"
"18","18","encoding","encoding","78","Paddle_Beach.jpg","1",".","37","0","425"
"18","18","encoding","encoding","79","Pen_Ballpoint.jpg","1",".","37","0","455"
"18","18","encoding","encoding","80","TireRims.jpg","1",".","37","0","487"
"18","18","encoding","encoding","81","Tape_Washi.jpg","3",".","37","0","527"
"18","18","encoding","encoding","82","Spatula_1.jpg","3",".","37","0","500"
"18","18","encoding","encoding","83","Bindings_Snowboard.jpg","3",".","37","0","498"
"18","18","encoding","encoding","84","Caterpillar.jpg","3",".","36","0","510"
"18","18","encoding","encoding","85","Drum_Brazilan.jpg","3",".","37","0","449"
"18","18","encoding","encoding","86","Tribunal_Wooden.jpg","3",".","37","0","400"
"18","18","encoding","encoding","87","Syrup_Maple.jpg","3",".","37","0","624"
"18","18","encoding","encoding","88","Knife_Butter.jpg","3",".","37","0","550"
"18","18","encoding","encoding","89","Cabinet_Display.jpg","3",".","37","0","495"
"18","18","encoding","encoding","90","Telescope.jpg","1",".","37","0","613"
"18","18","encoding","encoding","91","Radio_Vintage.jpg","3",".","37","0","507"
"18","18","encoding","encoding","92","BicycleGear.jpg","3",".","37","0","564"
"18","18","encoding","encoding","93","Brooch_Fish.jpg","3",".","37","0","676"
"18","18","encoding","encoding","94","Drum_Brazilan.jpg","3",".","37","0","542"
"18","18","encoding","encoding","95","Seashell_AlternateTellin.jpg","1",".","36","0","533"
"18","18","encoding","encoding","96","AnsweringMachine.jpg","3",".","37","0","441"
"18","18","encoding","encoding","97","Tribunal_Wooden.jpg","3",".","37","0","497"
"18","18","encoding","encoding","98","Lighter_Yellow.jpg","1",".","37","0","485"
"18","18","encoding","encoding","99","Cabinet_Display.jpg","3",".","37","0","486"
"18","18","encoding","encoding","100","Playground.jpg","3",".","37","0","473"
"18","18","encoding","encoding","101","Tofu.jpg","1",".","36","0","620"
"18","18","encoding","encoding","102","Cabinet_Office.jpg","3",".","37","0","492"
"18","18","encoding","encoding","103","Pipe.jpg","3",".","37","0","592"
"18","18","encoding","encoding","104","Toy_TableSet.jpg","1",".","37","0","523"
"18","18","encoding","encoding","105","Broom_Long.jpg","3",".","37","0","616"
"18","18","encoding","encoding","106","Waffle.jpg","3",".","36","0","621"
"18","18","encoding","encoding","107","Ball_8.jpg","3",".","37","0","491"
"18","18","encoding","encoding","108","House_Rural.jpg","1",".","37","0","535"
"18","18","encoding","encoding","109","Bindings_Snowboard.jpg","3",".","37","0","489"
"18","18","encoding","encoding","110","CookieCutter_Tree.jpg","1",".","37","0","563"
"18","18","encoding","encoding","111","Iron_Antique.jpg","3",".","37","0","532"
"18","18","encoding","encoding","112","Jug_Milk.jpg","1",".","37","0","530"
"18","18","encoding","encoding","113","MobilityScooter.jpg","1",".","37","0","452"
"18","18","encoding","encoding","114","Shoe_Pink.jpg","1",".","37","0","561"
"18","18","encoding","encoding","115","Tweezers.jpg","3",".","37","0","573"
"18","18","encoding","encoding","116","Toolbox_Old.jpg","1",".","37","0","495"
"18","18","encoding","encoding","117","ToothPaste.jpg","3",".","37","0","494"
"18","18","encoding","encoding","118","Statue_VirginMary.jpg","3",".","37","0","494"
"18","18","encoding","encoding","119","Hat_Baseball.jpg","1",".","37","0","531"
"18","18","encoding","encoding","120","Knife_Butter.jpg","3",".","37","0","437"
"18","18","encoding","encoding","121","Fridge.jpg","3",".","37","0","404"
"18","18","encoding","encoding","122","Can_OilSpout.jpg","3",".","37","0","410"
"18","18","encoding","encoding","123","Bomb.jpg","3",".","37","0","748"
"18","18","encoding","encoding","124","Drum_Brazilan.jpg","3",".","37","0","438"
"18","18","encoding","encoding","125","Chinchilla.jpg","3",".","36","0","502"
"18","18","encoding","encoding","126","OnionRed.jpg","3",".","36","0","540"
"18","18","encoding","encoding","127","AnsweringMachine.jpg","3",".","37","0","400"
"18","18","encoding","encoding","128","Baster.jpg","1",".","37","0","392"
"18","18","encoding","encoding","129","SkullDeer.jpg","3",".","36","0","506"
"18","18","encoding","encoding","130","Cabinet_Office.jpg","3",".","37","0","440"
"18","18","encoding","encoding","131","Dolphine.jpg","3",".","36","0","482"
"18","18","encoding","encoding","133","Spatula_1.jpg","3",".","37","0","540"
"18","18","encoding","encoding","134","Toolbox_RedOpen.jpg","1",".","37","0","519"
"18","18","encoding","encoding","135","Spatula_1.jpg","3",".","37","0","432"
"18","18","encoding","encoding","136","Screw.jpg","1",".","37","0","359"
"18","18","encoding","encoding","137","Gorilla.jpg","1",".","36","0","459"
"18","18","encoding","encoding","138","Shield_Antique.jpg","3",".","37","0","527"
"18","18","encoding","encoding","139","PanCooking.jpg","1",".","37","0","451"
"18","18","encoding","encoding","140","Statue_SouthAmerican.jpg","3",".","37","0","442"
"18","18","encoding","encoding","141","Tweezers.jpg","3",".","37","0","447"
"18","18","encoding","encoding","142","Toy_BearBlackPlastic.jpg","1",".","37","0","690"
"18","18","encoding","encoding","143","Truck_Dump.jpg","1",".","37","0","537"
"18","18","encoding","encoding","144","Chipmunk.jpg","3",".","36","0","487"
"18","18","encoding","encoding","145","Ball_Disco.jpg","3",".","37","0","484"
"18","18","encoding","encoding","146","PaintRoller.jpg","3",".","37","0","493"
"18","18","encoding","encoding","147","Shield_Antique.jpg","3",".","37","0","446"
"18","18","encoding","encoding","148","ToothPaste.jpg","3",".","37","0","502"
"18","18","encoding","encoding","149","Hazelnut.jpg","3",".","36","0","478"
"18","18","encoding","encoding","150","Can_OilSpout.jpg","3",".","37","0","462"
"18","18","encoding","encoding","151","Pickaxe.jpg","1",".","37","0","517"
"18","18","encoding","encoding","152","Dolphine.jpg","3",".","36","0","542"
"18","18","encoding","encoding","153","Bench_Wooden.jpg","3",".","37","0","432"
"18","18","encoding","encoding","154","Statue_SouthAmerican.jpg","3",".","37","0","434"
"18","18","encoding","encoding","155","SafetyPin.jpg","3",".","37","0","409"
"18","18","encoding","encoding","156","OnionRed.jpg","3",".","36","0","520"
"18","18","encoding","encoding","157","Dolphine.jpg","3",".","36","0","588"
"18","18","encoding","encoding","158","Pig.jpg","3",".","36","0","568"
"18","18","encoding","encoding","159","Lamp_TableWhite.jpg","1",".","37","0","424"
"18","18","encoding","encoding","160","Pasta_Spaghetti.jpg","3",".","37","0","552"
"18","18","encoding","encoding","161","ElasticBand.jpg","3",".","37","0","799"
"18","18","encoding","encoding","162","Caterpillar.jpg","3",".","36","0","535"
"18","18","encoding","encoding","163","Thermostat.jpg","3",".","37","0","442"
"18","18","encoding","encoding","164","Toy_SeeSaw.jpg","1",".","37","0","645"
"18","18","encoding","encoding","165","Loofa.jpg","3",".","36","0","863"
"18","18","encoding","encoding","166","Carbiner_Ascender.jpg","1",".","37","0","408"
"18","18","encoding","encoding","167","Ball_8.jpg","3",".","37","0","550"
"18","18","encoding","encoding","168","Fridge.jpg","3",".","37","0","488"
"18","18","encoding","encoding","169","Hammer.jpg","3",".","37","0","495"
"18","18","encoding","encoding","170","Boardgame_Checkers.jpg","3",".","37","0","537"
"18","18","encoding","encoding","171","Iron_Antique.jpg","3",".","37","0","624"
"18","18","encoding","encoding","172","RibbonSpool.jpg","3",".","37","0","500"
"18","18","encoding","encoding","173","TurkeyDinner.jpg","3",".","36","0","568"
"18","18","encoding","encoding","174","Glass_Cup.jpg","3",".","37","0","472"
"18","18","encoding","encoding","175","Jar_Cotton.jpg","1",".","37","0","511"
"18","18","encoding","encoding","176","Wheel_Steering.jpg","3",".","37","0","430"
"18","18","encoding","encoding","177","Bench_Wooden.jpg","3",".","37","0","463"
"18","18","encoding","encoding","178","Flower_Orchid.jpg","3",".","36","0","782"
"18","18","encoding","encoding","179","Pipe.jpg","3",".","37","0","451"
"18","18","encoding","encoding","180","Tribunal_Wooden.jpg","3",".","37","0","482"
"18","18","encoding","encoding","181","Box_Present.jpg","1",".","37","0","510"
"18","18","encoding","encoding","182","PaperStack.jpg","1",".","37","0","482"
"18","18","encoding","encoding","183","BloodpPresureCuff.jpg","1",".","37","0","488"
"18","18","encoding","encoding","184","Hottub.jpg","3",".","37","0","453"
"18","18","encoding","encoding","185","Fencing_HelmetSwords.jpg","3",".","37","0","554"
"18","18","encoding","encoding","186","Tape_Washi.jpg","3",".","37","0","897"
"18","18","encoding","encoding","187","Sign_TrafficArrow.jpg","1",".","37","0","557"
"18","18","encoding","encoding","188","SewingMachine.jpg","3",".","37","0","467"
"18","18","encoding","encoding","189","OnionRed.jpg","3",".","36","0","593"
"18","18","encoding","encoding","190","Beaker.jpg","3",".","37","0","539"
"18","18","encoding","encoding","191","BicycleChain.jpg","1",".","37","0","433"
"18","18","encoding","encoding","192","Tape_Washi.jpg","3",".","37","0","456"
"18","18","encoding","encoding","193","Decoration_WallOrnament.jpg","1",".","36","0","702"
"18","18","encoding","encoding","194","SundaeBanana.jpg","1",".","36","0","857"
"18","18","encoding","encoding","195","Thermostat.jpg","3",".","37","0","400"
"18","18","encoding","encoding","196","Fencing_HelmetSwords.jpg","3",".","37","0","434"
"18","18","encoding","encoding","197","Hammer.jpg","3",".","37","0","408"
"18","18","encoding","encoding","199","Dart.jpg","1",".","37","0","720"
"18","18","encoding","encoding","200","Shield_Antique.jpg","3",".","37","0","435"
"18","18","encoding","encoding","201","Thermostat.jpg","3",".","37","0","370"
"18","18","encoding","encoding","202","PaintRoller.jpg","3",".","37","0","413"
"18","18","encoding","encoding","203","Broom_Long.jpg","3",".","37","0","502"
"18","18","encoding","encoding","204","Bell_Hand.jpg","1",".","37","0","441"
"18","18","encoding","encoding","205","Brooch_Fish.jpg","3",".","37","0","430"
"18","18","encoding","encoding","206","Arch.jpg","3",".","37","0","419"
"18","18","encoding","encoding","207","Pajamas.jpg","3",".","37","0","566"
"18","18","encoding","encoding","208","ElasticBand.jpg","3",".","37","0","501"
"18","18","encoding","encoding","209","DivingBoard.jpg","1",".","37","0","477"
"18","18","encoding","encoding","210","Syrup_Maple.jpg","3",".","37","0","531"
"18","18","encoding","encoding","211","Makeup_Foundation.jpg","3",".","37","0","548"
"18","18","encoding","encoding","212","Chipmunk.jpg","3",".","36","0","526"
"18","18","encoding","encoding","213","Icepick.jpg","3",".","37","0","396"
"18","18","encoding","encoding","214","ElasticBand.jpg","3",".","37","0","437"
"18","18","encoding","encoding","215","Waffle.jpg","3",".","36","0","540"
"18","18","encoding","encoding","216","Syrup_Maple.jpg","3",".","37","0","389"
"18","18","encoding","encoding","217","BicycleGear.jpg","3",".","37","0","398"
"18","18","encoding","encoding","218","Frame_Oval.jpg","3",".","37","0","388"
"18","18","encoding","encoding","219","Hazelnut.jpg","3",".","36","0","491"
"18","18","encoding","encoding","220","Bottle_Specimen.jpg","3",".","37","0","427"
"18","18","encoding","encoding","221","CoffeeGrinder.jpg","1",".","37","0","400"
"18","18","encoding","encoding","222","ChessPiece_Knight.jpg","3",".","37","0","535"
"18","18","encoding","encoding","223","DrillBit.jpg","1",".","37","0","523"
"18","18","encoding","encoding","224","LampPost_OneBulb.jpg","1",".","37","0","446"
"18","18","encoding","encoding","225","Hawk.jpg","1",".","36","0","517"
"18","18","encoding","encoding","226","Hoverboard.jpg","3",".","37","0","493"
"18","18","encoding","encoding","227","SmokingPipe.jpg","3",".","37","0","429"
"18","18","encoding","encoding","228","Strainer_Tea.jpg","3",".","37","0","425"
"18","18","encoding","encoding","229","Flower_Hibiscus.jpg","3",".","36","0","506"
"18","18","encoding","encoding","230","Statue_SouthAmerican.jpg","3",".","37","0","432"
"18","18","encoding","encoding","231","Icepick.jpg","3",".","37","0","411"
"18","18","encoding","encoding","232","Playground.jpg","3",".","37","0","445"
"18","18","encoding","encoding","233","ContactLens.jpg","1",".","37","0","550"
"18","18","encoding","encoding","234","GranolaBar.jpg","1",".","37","0","969"
"18","18","encoding","encoding","235","Toy_Lighthouse.jpg","3",".","37","0","503"
"18","18","encoding","encoding","236","Switch_LightWhite.jpg","1",".","37","0","407"
"18","18","encoding","encoding","237","Makeup_Foundation.jpg","3",".","37","0","440"
"18","18","encoding","encoding","238","Box_FirstAidOpen.jpg","3",".","37","0","631"
"18","18","encoding","encoding","239","Comb.jpg","1",".","37","0","499"
"18","18","encoding","encoding","240","Statue_VirginMary.jpg","3",".","37","0","411"
"18","18","encoding","encoding","241","Pasta_Spaghetti.jpg","3",".","37","0","790"
"18","18","encoding","encoding","242","HumanSkeleton.jpg","3",".","37","0","509"
"18","18","encoding","encoding","243","Boots_KneeHigh.jpg","1",".","37","0","404"
"18","18","encoding","encoding","244","Pajamas.jpg","3",".","37","0","411"
"18","18","encoding","encoding","245","Hoverboard.jpg","3",".","37","0","422"
"18","18","encoding","encoding","246","Case_DVD.jpg","3",".","37","0","414"
"18","18","encoding","encoding","247","SmokingPipe.jpg","3",".","37","0","458"
"18","18","encoding","encoding","248","Hoverboard.jpg","3",".","37","0","461"
"18","18","encoding","encoding","249","Statue_VirginMary.jpg","3",".","37","0","475"
"18","18","encoding","encoding","250","KeyHook_Occupied.jpg","3",".","37","0","430"
"18","18","encoding","encoding","251","BicycleOdometer.jpg","1",".","37","0","468"
"18","18","encoding","encoding","252","Sock_Ankle.jpg","1",".","37","0","766"
"18","18","encoding","encoding","253","ToothPaste.jpg","3",".","37","0","551"
"18","18","encoding","encoding","254","SaxophoneSoprano.jpg","1",".","37","0","529"
"18","18","encoding","encoding","255","Gun_Glue.jpg","1",".","37","0","590"
"18","18","encoding","encoding","256","SkiPoles.jpg","1",".","37","0","517"
"18","18","encoding","encoding","257","FlipFlop_PairBlue.jpg","1",".","37","0","565"
"18","18","encoding","encoding","258","Socks_Winter.jpg","1",".","37","0","470"
"18","18","encoding","encoding","259","Pasta_Spaghetti.jpg","3",".","37","0","693"
"18","18","encoding","encoding","260","Glass_Martini.jpg","1",".","37","0","502"
"18","18","encoding","encoding","261","Icepick.jpg","3",".","37","0","517"
"18","18","encoding","encoding","262","KitchenTools.jpg","1",".","37","0","501"
"18","18","encoding","encoding","263","Bandage_Wrap.jpg","3",".","37","0","572"
"18","18","encoding","encoding","265","Microphone.jpg","3",".","37","0","472"
"18","18","encoding","encoding","266","BicycleGear.jpg","3",".","37","0","355"
"18","18","encoding","encoding","267","Frame_Oval.jpg","3",".","37","0","411"
"18","18","encoding","encoding","268","Toy_Lighthouse.jpg","3",".","37","0","411"
"18","18","encoding","encoding","269","Cross.jpg","1",".","37","0","374"
"18","18","encoding","encoding","270","Pig.jpg","3",".","36","0","502"
"18","18","encoding","encoding","271","Bandage_Wrap.jpg","3",".","37","0","504"
"18","18","encoding","encoding","272","Bandage_Wrap.jpg","3",".","37","0","377"
"18","18","encoding","encoding","273","Radio_Vintage.jpg","3",".","37","0","414"
"18","18","encoding","encoding","274","Flower_Orchid.jpg","3",".","36","0","553"
"18","18","encoding","encoding","275","Boardgame_Checkers.jpg","3",".","37","0","384"
"18","18","encoding","encoding","276","ReindeerHeadband.jpg","3",".","37","0","649"
"18","18","encoding","encoding","277","Ball_Disco.jpg","3",".","37","0","410"
"18","18","encoding","encoding","278","Exercise_Machine.jpg","1",".","37","0","426"
"18","18","encoding","encoding","279","Box_FirstAidOpen.jpg","3",".","37","0","421"
"18","18","encoding","encoding","280","Cage_Bird.jpg","3",".","37","0","494"
"18","18","encoding","encoding","281","Cage_Bird.jpg","3",".","37","0","371"
"18","18","encoding","encoding","282","Crutches.jpg","1",".","37","0","426"
"18","18","encoding","encoding","283","Chipmunk.jpg","3",".","36","0","593"
"18","18","encoding","encoding","284","Playground.jpg","3",".","37","0","411"
"18","18","encoding","encoding","285","Crib_Basket.jpg","1",".","37","0","424"
"18","18","encoding","encoding","286","SafetyPin.jpg","3",".","37","0","440"
"18","18","encoding","encoding","287","Brace_Back.jpg","3",".","37","0","422"
"18","18","encoding","encoding","288","Pajamas.jpg","3",".","37","0","398"
"18","18","encoding","encoding","289","CartonEggs.jpg","3",".","36","0","497"
"18","18","encoding","encoding","290","Frame_Oval.jpg","3",".","37","0","428"
"18","18","encoding","encoding","291","ChessPiece_Knight.jpg","3",".","37","0","381"
"18","18","encoding","encoding","292","Beaker.jpg","3",".","37","0","384"
"18","18","encoding","encoding","293","Hottub.jpg","3",".","37","0","369"
"18","18","encoding","encoding","294","Toy_PoliceCar.jpg","1",".","37","0","356"
"18","18","encoding","encoding","295","Ball_Disco.jpg","3",".","37","0","572"
"18","18","encoding","encoding","296","Strainer_Tea.jpg","3",".","37","0","406"
"18","18","encoding","encoding","297","Bugle.jpg","3",".","37","0","385"
"18","18","encoding","encoding","298","Ball_8.jpg","3",".","37","0","377"
"18","18","encoding","encoding","299","Helmet_Knight.jpg","1",".","37","0","347"
"18","18","encoding","encoding","300","Boardgame_Checkers.jpg","3",".","37","0","455"
"18","18","encoding","encoding","301","Box_FirstAidOpen.jpg","3",".","37","0","434"
"18","18","encoding","encoding","302","Chopsticks.jpg","3",".","37","0","580"
"18","18","encoding","encoding","303","Toy_DollOffice.jpg","1",".","37","0","571"
"18","18","encoding","encoding","304","SewingMachine.jpg","3",".","37","0","348"
"18","18","encoding","encoding","305","Iron_Antique.jpg","3",".","37","0","371"
"18","18","encoding","encoding","306","Chinchilla.jpg","3",".","36","0","518"
"18","18","encoding","encoding","307","Boxcutter.jpg","3",".","37","0","473"
"18","18","encoding","encoding","308","Pipe.jpg","3",".","37","0","421"
"18","18","encoding","encoding","309","CrepeMaker.jpg","1",".","37","0","412"
"18","18","encoding","encoding","310","ChessPiece_Knight.jpg","3",".","37","0","469"
"18","18","encoding","encoding","311","Pig.jpg","3",".","36","0","439"
"18","18","encoding","encoding","312","Tire_Hollow.jpg","1",".","37","0","367"
"18","18","encoding","encoding","313","HumanSkeleton.jpg","3",".","37","0","466"
"18","18","encoding","encoding","314","Makeup_Foundation.jpg","3",".","37","0","378"
"18","18","encoding","encoding","315","Beaker.jpg","3",".","37","0","484"
"18","18","encoding","encoding","316","Cabinet_Display.jpg","3",".","37","0","452"
"18","18","encoding","encoding","317","Knife_Butter.jpg","3",".","37","0","406"
"18","18","encoding","encoding","318","RibbonSpool.jpg","3",".","37","0","400"
"18","18","encoding","encoding","319","Bugle.jpg","3",".","37","0","391"
"18","18","encoding","encoding","320","Microphone.jpg","3",".","37","0","430"
"18","18","encoding","encoding","321","ReindeerHeadband.jpg","3",".","37","0","480"
"18","18","encoding","encoding","322","Case_DVD.jpg","3",".","37","0","477"
"18","18","encoding","encoding","323","Bottle_Specimen.jpg","3",".","37","0","574"
"18","18","encoding","encoding","324","Bomb.jpg","3",".","37","0","613"
"18","18","encoding","encoding","325","ReindeerHeadband.jpg","",".","37","0","532"
"18","18","retrieval","old_object","1","Pickaxe.jpg",".","1","36","1","869"
"18","18","retrieval","new_object","2","Peppermill.jpg",".",".","37","1","773"
"18","18","retrieval","new_object","3","Bellows.jpg",".",".","37","1","766"
"18","18","retrieval","new_object","4","Cup_Styrofoam.jpg",".",".","37","1","690"
"18","18","retrieval","old_object","5","Hoverboard.jpg",".","3","36","1","696"
"18","18","retrieval","new_object","6","BadgeSpecialAgent.jpg",".",".","36","0","882"
"18","18","retrieval","new_object","7","Desk_School.jpg",".",".","37","1","752"
"18","18","retrieval","new_object","8","Trophy.jpg",".",".","37","1","743"
"18","18","retrieval","new_object","9","Saw.jpg",".",".","37","1","592"
"18","18","retrieval","new_object","10","Bird_Cardinal.jpg",".",".","37","1","666"
"18","18","retrieval","new_object","11","Bottle_Wine.jpg",".",".","37","1","527"
"18","18","retrieval","new_object","12","IceCrusher.jpg",".",".","37","1","672"
"18","18","retrieval","old_object","13","Thermostat.jpg",".","3","37","0","854"
"18","18","retrieval","old_object","14","Toy_SeeSaw.jpg",".","1","36","1","827"
"18","18","retrieval","new_object","15","Cassette_Audio.jpg",".",".","37","1","700"
"18","18","retrieval","new_object","16","Sign_Parking.jpg",".",".","37","1","573"
"18","18","retrieval","new_object","17","MouthGuard.jpg",".",".","37","1","669"
"18","18","retrieval","old_object","18","TurkeyDinner.jpg",".","3","36","1","782"
"18","18","retrieval","old_object","19","SewingMachine.jpg",".","3","36","1","717"
"18","18","retrieval","old_object","20","Toy_Lighthouse.jpg",".","3","36","1","695"
"18","18","retrieval","old_object","21","CuttingBoard.jpg",".","1","36","1","740"
"18","18","retrieval","old_object","22","Pot_Cooking.jpg",".","1","36","1","686"
"18","18","retrieval","old_object","23","TireRims.jpg",".","1","36","1","595"
"18","18","retrieval","new_object","24","StringBean.jpg",".",".","37","1","613"
"18","18","retrieval","new_object","25","Bowl_Chinese.jpg",".",".","37","1","869"
"18","18","retrieval","new_object","26","Mitt_Oven.jpg",".",".","37","1","625"
"18","18","retrieval","new_object","27","Phone_Wireless.jpg",".",".","37","1","616"
"18","18","retrieval","old_object","28","Currants.jpg",".","1","37","0","993"
"18","18","retrieval","new_object","29","Shampoo.jpg",".",".","37","1","859"
"18","18","retrieval","old_object","30","Telescope.jpg",".","1","37","0","720"
"18","18","retrieval","new_object","31","DoorBell.jpg",".",".","37","1","666"
"18","18","retrieval","old_object","32","OnionRed.jpg",".","3","36","1","900"
"18","18","retrieval","old_object","33","Hockey_Equipment.jpg",".","1","37","0","971"
"18","18","retrieval","old_object","34","Sink_Bathroom.jpg",".","1","36","1","823"
"18","18","retrieval","old_object","35","Toy_BearBlackPlastic.jpg",".","1","36","1","853"
"18","18","retrieval","old_object","36","Hammer.jpg",".","3","36","1","623"
"18","18","retrieval","old_object","37","ReindeerHeadband.jpg",".","3","36","1","587"
"18","18","retrieval","old_object","38","ElasticBand.jpg",".","3","36","1","544"
"18","18","retrieval","new_object","39","Spoon_Wooden.jpg",".",".","36","0","916"
"18","18","retrieval","old_object","40","Loofa.jpg",".","3","36","1","624"
"18","18","retrieval","new_object","41","Mattress.jpg",".",".","37","1","769"
"18","18","retrieval","old_object","42","Lamp_TableWhite.jpg",".","1","37","0","687"
"18","18","retrieval","old_object","43","Brace_Back.jpg",".","3","36","1","681"
"18","18","retrieval","new_object","44","Helmet_Construction.jpg",".",".","37","1","698"
"18","18","retrieval","old_object","45","Hottub.jpg",".","3","36","1","798"
"18","18","retrieval","new_object","46","Steeple.jpg",".",".","37","1","989"
"18","18","retrieval","new_object","47","MonaLisa.jpg",".",".","37","1","688"
"18","18","retrieval","old_object","48","Toolbox_RedOpen.jpg",".","1","36","1","792"
"18","18","retrieval","new_object","49","Knee.jpg",".",".","37","1","686"
"18","18","retrieval","new_object","50","Chair_MedicalToilet.jpg",".",".","37","1","821"
"18","18","retrieval","new_object","51","Speaker_OnStand.jpg",".",".","37","1","794"
"18","18","retrieval","new_object","52","Box_Floral.jpg",".",".","37","1","533"
"18","18","retrieval","new_object","53","SmokeDetector.jpg",".",".","37","1","764"
"18","18","retrieval","new_object","54","Candle_Blue.jpg",".",".","37","1","831"
"18","18","retrieval","old_object","55","ContactLens.jpg",".","1","37","0","735"
"18","18","retrieval","new_object","56","DoorKnob.jpg",".",".","37","1","632"
"18","18","retrieval","new_object","57","Flute_Wooden.jpg",".",".","37","1","848"
"18","18","retrieval","new_object","58","NailPolish.jpg",".",".","36","0","782"
"18","18","retrieval","old_object","59","Waffle.jpg",".","3","36","1","605"
"18","18","retrieval","new_object","60","GasBurner.jpg",".",".","37","1","790"
"18","18","retrieval","new_object","61","RemoteControl.jpg",".",".","37","1","691"
"18","18","retrieval","new_object","62","Knife_Hunting.jpg",".",".","37","1","723"
"18","18","retrieval","new_object","63","Pants_Jeans.jpg",".",".","37","1","635"
"18","18","retrieval","new_object","64","Mango.jpg",".",".","37","1","630"
"18","18","retrieval","new_object","65","Flamingo_Cartoon.jpg",".",".","37","1","585"
"18","18","retrieval","new_object","67","Toy_RockingHorseBlack.jpg",".",".","37","1","800"
"18","18","retrieval","old_object","68","Makeup_Foundation.jpg",".","3","37","0","714"
"18","18","retrieval","old_object","69","Bugle.jpg",".","3","36","1","576"
"18","18","retrieval","new_object","70","NeedlesAcupuncture.jpg",".",".","37","1","826"
"18","18","retrieval","new_object","71","Chair_BeanBag.jpg",".",".","37","1","624"
"18","18","retrieval","old_object","72","Box_FirstAidOpen.jpg",".","3","36","1","830"
"18","18","retrieval","old_object","73","Bottle_Specimen.jpg",".","3","36","1","568"
"18","18","retrieval","old_object","74","Toolbox_Old.jpg",".","1","37","0","841"
"18","18","retrieval","new_object","75","Hammer_Reflex.jpg",".",".","37","1","856"
"18","18","retrieval","old_object","76","PaintRoller.jpg",".","3","36","1","628"
"18","18","retrieval","old_object","77","Paddle_Beach.jpg",".","1","37","0","586"
"18","18","retrieval","old_object","78","Cross.jpg",".","1","36","1","734"
"18","18","retrieval","new_object","79","Toy_StackingRing.jpg",".",".","37","1","672"
"18","18","retrieval","old_object","80","LampPost_OneBulb.jpg",".","1","37","0","965"
"18","18","retrieval","old_object","81","Iron_Antique.jpg",".","3","36","1","731"
"18","18","retrieval","new_object","82","Candy_Chocolate.jpg",".",".","37","1","633"
"18","18","retrieval","old_object","83","Pajamas.jpg",".","3","36","1","771"
"18","18","retrieval","new_object","84","BicycleBrake.jpg",".",".","37","1","801"
"18","18","retrieval","old_object","85","AnsweringMachine.jpg",".","3","36","1","919"
"18","18","retrieval","new_object","86","Cherry.jpg",".",".","37","1","717"
"18","18","retrieval","new_object","87","BicyclePedal.jpg",".",".","37","1","678"
"18","18","retrieval","old_object","88","KeyHook_Occupied.jpg",".","3","36","1","918"
"18","18","retrieval","old_object","89","Broom_Long.jpg",".","3","36","1","703"
"18","18","retrieval","new_object","90","GPS.jpg",".",".","37","1","758"
"18","18","retrieval","old_object","91","Tribunal_Wooden.jpg",".","3","36","1","716"
"18","18","retrieval","old_object","92","Hazelnut.jpg",".","3","36","1","738"
"18","18","retrieval","new_object","93","MixingGlass.jpg",".",".","37","1","661"
"18","18","retrieval","new_object","94","CookieCutter_Bell.jpg",".",".","37","1","1099"
"18","18","retrieval","new_object","95","Mop.jpg",".",".","37","1","757"
"18","18","retrieval","old_object","96","CookieCutter_Tree.jpg",".","1","36","1","676"
"18","18","retrieval","old_object","97","Crib_Basket.jpg",".","1","36","1","645"
"18","18","retrieval","old_object","98","Can_OilSpout.jpg",".","3","36","1","723"
"18","18","retrieval","old_object","99","Boxcutter.jpg",".","3","36","1","605"
"18","18","retrieval","old_object","100","Icepick.jpg",".","3","36","1","1142"
"18","18","retrieval","new_object","101","Candy_Heart.jpg",".",".","37","1","728"
"18","18","retrieval","new_object","102","Glove_Rubber.jpg",".",".","37","1","651"
"18","18","retrieval","new_object","103","AmpMeter.jpg",".",".","37","1","684"
"18","18","retrieval","new_object","104","Hourglass.jpg",".",".","37","1","631"
"18","18","retrieval","old_object","105","Truck_Dump.jpg",".","1","37","0","590"
"18","18","retrieval","new_object","106","Guitar_Acoustic.jpg",".",".","37","1","718"
"18","18","retrieval","new_object","107","Megaphone.jpg",".",".","37","1","754"
"18","18","retrieval","new_object","108","Cake_Wedding.jpg",".",".","37","1","613"
"18","18","retrieval","new_object","109","Chest_Toys.jpg",".",".","37","1","762"
"18","18","retrieval","new_object","110","Keg.jpg",".",".","37","1","754"
"18","18","retrieval","new_object","111","Car_Sedan.jpg",".",".","37","1","565"
"18","18","retrieval","old_object","112","Syrup_Maple.jpg",".","3","36","1","676"
"18","18","retrieval","old_object","113","Baster.jpg",".","1","37","0","688"
"18","18","retrieval","old_object","114","ShearsGarden.jpg",".","1","37","0","653"
"18","18","retrieval","old_object","115","Gun_Glue.jpg",".","1","36","1","783"
"18","18","retrieval","old_object","116","MobilityScooter.jpg",".","1","37","0","623"
"18","18","retrieval","new_object","117","SculptureMetalFish.jpg",".",".","37","1","677"
"18","18","retrieval","old_object","118","RibbonSpool.jpg",".","3","36","1","1172"
"18","18","retrieval","old_object","119","ChessPiece_Knight.jpg",".","3","36","1","667"
"18","18","retrieval","old_object","120","SaxophoneSoprano.jpg",".","1","37","0","716"
"18","18","retrieval","new_object","121","Ashtray_Empty.jpg",".",".","37","1","677"
"18","18","retrieval","old_object","122","PedestalGreek.jpg",".","1","36","1","1002"
"18","18","retrieval","old_object","123","Boots_KneeHigh.jpg",".","1","36","1","769"
"18","18","retrieval","new_object","124","fries.jpg",".",".","37","1","658"
"18","18","retrieval","old_object","125","Radio_Vintage.jpg",".","3","36","1","737"
"18","18","retrieval","new_object","126","Stove_Camping.jpg",".",".","36","0","790"
"18","18","retrieval","new_object","127","WindowBlinds.jpg",".",".","37","1","719"
"18","18","retrieval","new_object","128","IceCream_Chocolate.jpg",".",".","37","1","763"
"18","18","retrieval","new_object","129","Almond.jpg",".",".","37","1","553"
"18","18","retrieval","new_object","130","Fish_Rockbass.jpg",".",".","37","1","706"
"18","18","retrieval","old_object","131","BicycleOdometer.jpg",".","1","37","0","580"
"18","18","retrieval","new_object","133","LeatherPuncherTool.jpg",".",".","37","1","660"
"18","18","retrieval","new_object","134","Apple_RedAndGreen.jpg",".",".","37","1","713"
"18","18","retrieval","new_object","135","Chest.jpg",".",".","37","1","599"
"18","18","retrieval","old_object","136","Hawk.jpg",".","1","36","1","783"
"18","18","retrieval","old_object","137","SafetyPin.jpg",".","3","36","1","769"
"18","18","retrieval","new_object","138","Bathtub.jpg",".",".","36","0","849"
"18","18","retrieval","old_object","139","CrepeMaker.jpg",".","1","37","0","566"
"18","18","retrieval","new_object","140","TeethMould.jpg",".",".","37","1","893"
"18","18","retrieval","new_object","141","Blanket.jpg",".",".","37","1","542"
"18","18","retrieval","old_object","142","Cabinet_Office.jpg",".","3","36","1","778"
"18","18","retrieval","new_object","143","Golf_Bag.jpg",".",".","37","1","662"
"18","18","retrieval","new_object","144","BusStop.jpg",".",".","37","1","592"
"18","18","retrieval","old_object","145","Statue_VirginMary.jpg",".","3","36","1","669"
"18","18","retrieval","old_object","146","DivingBoard.jpg",".","1","36","1","819"
"18","18","retrieval","new_object","147","DryRack_Dishes.jpg",".",".","37","1","645"
"18","18","retrieval","old_object","148","Dart.jpg",".","1","36","1","940"
"18","18","retrieval","new_object","149","Lollipop_Grape.jpg",".",".","37","1","799"
"18","18","retrieval","new_object","150","Fuse.jpg",".",".","37","1","801"
"18","18","retrieval","old_object","151","Drum_Brazilan.jpg",".","3","36","1","922"
"18","18","retrieval","old_object","152","Ball_Disco.jpg",".","3","36","1","737"
"18","18","retrieval","old_object","153","Bomb.jpg",".","3","36","1","669"
"18","18","retrieval","new_object","154","TartStrawberry.jpg",".",".","37","1","659"
"18","18","retrieval","old_object","155","Pasta_Spaghetti.jpg",".","3","36","1","904"
"18","18","retrieval","old_object","156","Toy_DollOffice.jpg",".","1","36","1","1001"
"18","18","retrieval","new_object","157","Drink_Green.jpg",".",".","37","1","653"
"18","18","retrieval","new_object","158","Paratrooper.jpg",".",".","37","1","712"
"18","18","retrieval","new_object","159","Bullet.jpg",".",".","37","1","801"
"18","18","retrieval","old_object","160","Bell_Hand.jpg",".","1","37","0","574"
"18","18","retrieval","old_object","161","Beaker.jpg",".","3","36","1","694"
"18","18","retrieval","new_object","162","ShoulderPads.jpg",".",".","37","1","586"
"18","18","retrieval","old_object","163","Dolphine.jpg",".","3","36","1","656"
"18","18","retrieval","old_object","164","SmokingPipe.jpg",".","3","36","1","617"
"18","18","retrieval","old_object","165","Strainer_Tea.jpg",".","3","36","1","601"
"18","18","retrieval","new_object","166","MonkeyPuppet.jpg",".",".","37","1","817"
"18","18","retrieval","new_object","167","Fortress.jpg",".",".","37","1","849"
"18","18","retrieval","new_object","168","CameoPortrait.jpg",".",".","37","1","680"
"18","18","retrieval","old_object","169","Brooch_Fish.jpg",".","3","36","1","756"
"18","18","retrieval","new_object","170","Generator.jpg",".",".","37","1","778"
"18","18","retrieval","new_object","171","Tickets_Blank.jpg",".",".","37","1","688"
"18","18","retrieval","old_object","172","Flower_Orchid.jpg",".","3","37","0","813"
"18","18","retrieval","new_object","173","CandyDispenser.jpg",".",".","37","1","640"
"18","18","retrieval","old_object","174","Crutches.jpg",".","1","37","0","819"
"18","18","retrieval","new_object","175","Pipe_Drain.jpg",".",".","37","1","669"
"18","18","retrieval","new_object","176","Exercise_Stretch.jpg",".",".","37","1","557"
"18","18","retrieval","new_object","177","Pineapple.jpg",".",".","37","1","684"
"18","18","retrieval","new_object","178","Clip_Paper.jpg",".",".","37","1","681"
"18","18","retrieval","old_object","179","SkullDeer.jpg",".","3","36","1","621"
"18","18","retrieval","old_object","180","Shoe_Pink.jpg",".","1","37","0","555"
"18","18","retrieval","old_object","181","Tape_Washi.jpg",".","3","36","1","951"
"18","18","retrieval","old_object","182","Case_DVD.jpg",".","3","36","1","807"
"18","18","retrieval","new_object","183","Toy_Witch.jpg",".",".","37","1","683"
"18","18","retrieval","new_object","184","Teabag.jpg",".",".","37","1","799"
"18","18","retrieval","old_object","185","Cannister_Gas.jpg",".","1","36","1","766"
"18","18","retrieval","old_object","186","Playground.jpg",".","3","36","1","670"
"18","18","retrieval","new_object","187","Goose_Canadian.jpg",".",".","37","1","602"
"18","18","retrieval","old_object","188","Tofu.jpg",".","1","36","1","653"
"18","18","retrieval","old_object","189","Caterpillar.jpg",".","3","36","1","618"
"18","18","retrieval","old_object","190","PanCooking.jpg",".","1","36","1","651"
"18","18","retrieval","new_object","191","PaintRollTray.jpg",".",".","37","1","814"
"18","18","retrieval","old_object","192","Jar_Cotton.jpg",".","1","37","0","925"
"18","18","retrieval","new_object","193","Hook_Fish.jpg",".",".","37","1","779"
"18","18","retrieval","old_object","194","Kite_Rainbow.jpg",".","1","36","1","803"
"18","18","retrieval","old_object","195","Exercise_Machine.jpg",".","1","37","0","609"
"18","18","retrieval","old_object","196","Seashell_AlternateTellin.jpg",".","1","36","1","714"
"18","18","retrieval","new_object","197","Wheelbarrow_Green.jpg",".",".","37","1","818"
"18","18","retrieval","old_object","199","Frame_Oval.jpg",".","3","37","0","880"
"18","18","retrieval","old_object","200","Glass_Cup.jpg",".","3","36","1","733"
"18","18","retrieval","new_object","201","BicycleHandleGrip.jpg",".",".","37","1","713"
"18","18","retrieval","old_object","202","Flower_Hibiscus.jpg",".","3","36","1","645"
"18","18","retrieval","new_object","203","Oyster.jpg",".",".","37","1","686"
"18","18","retrieval","old_object","204","HumanSkeleton.jpg",".","3","36","1","689"
"18","18","retrieval","old_object","205","Lighter_Yellow.jpg",".","1","36","1","771"
"18","18","retrieval","old_object","206","ToothPaste.jpg",".","3","36","1","739"
"18","18","retrieval","new_object","207","Trumpet.jpg",".",".","36","0","601"
"18","18","retrieval","old_object","208","PropellerFan.jpg",".","1","37","0","678"
"18","18","retrieval","old_object","209","Tweezers.jpg",".","3","36","1","617"
"18","18","retrieval","old_object","210","Wheel_Steering.jpg",".","3","36","1","669"
"18","18","retrieval","new_object","211","Pitcher.jpg",".",".","37","1","659"
"18","18","retrieval","old_object","212","Clock_Radio.jpg",".","1","36","1","658"
"18","18","retrieval","new_object","213","Autocreeper.jpg",".",".","37","1","634"
"18","18","retrieval","old_object","214","Sign_TrafficArrow.jpg",".","1","37","0","965"
"18","18","retrieval","old_object","215","Cage_Bird.jpg",".","3","36","1","636"
"18","18","retrieval","old_object","216","Toy_TableSet.jpg",".","1","36","1","874"
"18","18","retrieval","new_object","217","Jar_JellyBeans.jpg",".",".","37","1","600"
"18","18","retrieval","new_object","218","WireStripper.jpg",".",".","37","1","747"
"18","18","retrieval","new_object","219","Lantern_TeaBox.jpg",".",".","37","1","540"
"18","18","retrieval","old_object","220","House_Rural.jpg",".","1","37","0","578"
"18","18","retrieval","new_object","221","Thermostat_Digital.jpg",".",".","37","1","758"
"18","18","retrieval","old_object","222","Glass_Martini.jpg",".","1","37","0","592"
"18","18","retrieval","new_object","223","JukeboxAntique.jpg",".",".","37","1","680"
"18","18","retrieval","old_object","224","PaperStack.jpg",".","1","36","1","699"
"18","18","retrieval","new_object","225","PassionFruit.jpg",".",".","37","1","664"
"18","18","retrieval","old_object","226","Socks_Winter.jpg",".","1","37","0","548"
"18","18","retrieval","new_object","227","Shoes_DutchClogs.jpg",".",".","37","1","618"
"18","18","retrieval","old_object","228","Carbiner_Ascender.jpg",".","1","37","0","842"
"18","18","retrieval","new_object","229","Fruit_Cactus.jpg",".",".","37","1","663"
"18","18","retrieval","old_object","230","Cabinet_Display.jpg",".","3","36","1","697"
"18","18","retrieval","new_object","231","Toy_Moose.jpg",".",".","37","1","811"
"18","18","retrieval","old_object","232","Pig.jpg",".","3","36","1","542"
"18","18","retrieval","new_object","233","WashRack.jpg",".",".","37","1","575"
"18","18","retrieval","new_object","234","Skates.jpg",".",".","37","1","640"
"18","18","retrieval","old_object","235","Chopsticks.jpg",".","3","36","1","611"
"18","18","retrieval","old_object","236","Bench_Wooden.jpg",".","3","36","1","699"
"18","18","retrieval","new_object","237","Bottle_Blue.jpg",".",".","36","0","797"
"18","18","retrieval","old_object","238","BoogieBoard.jpg",".","1","37","0","616"
"18","18","retrieval","old_object","239","Gorilla.jpg",".","1","36","1","581"
"18","18","retrieval","new_object","240","Box_Jewellery.jpg",".",".","37","1","697"
"18","18","retrieval","new_object","241","Tortilla.jpg",".",".","37","1","717"
"18","18","retrieval","old_object","242","Boardgame_Checkers.jpg",".","3","36","1","727"
"18","18","retrieval","new_object","243","Colander.jpg",".",".","37","1","731"
"18","18","retrieval","old_object","244","Bandage_Wrap.jpg",".","3","36","1","706"
"18","18","retrieval","new_object","245","Sign_Wetfloor.jpg",".",".","37","1","704"
"18","18","retrieval","old_object","246","Arch.jpg",".","3","36","1","944"
"18","18","retrieval","old_object","247","Spatula_1.jpg",".","3","36","1","708"
"18","18","retrieval","new_object","248","Beater_Electric.jpg",".",".","37","1","846"
"18","18","retrieval","new_object","249","Toy_BlocksPlastic Colourful.jpg",".",".","37","1","771"
"18","18","retrieval","old_object","250","Sock_Ankle.jpg",".","1","37","0","934"
"18","18","retrieval","new_object","251","DogTreat.jpg",".",".","37","1","827"
"18","18","retrieval","new_object","252","Balalaika.jpg",".",".","37","1","667"
"18","18","retrieval","new_object","253","Toy_GasPump.jpg",".",".","37","1","680"
"18","18","retrieval","new_object","254","FlashlightHeadBand.jpg",".",".","37","1","640"
"18","18","retrieval","new_object","255","PotatoMasher_Zigzag.jpg",".",".","37","1","652"
"18","18","retrieval","old_object","256","Decoration_WallOrnament.jpg",".","1","36","1","994"
"18","18","retrieval","old_object","257","BloodpPresureCuff.jpg",".","1","37","0","745"
"18","18","retrieval","old_object","258","DrillBit.jpg",".","1","37","0","726"
"18","18","retrieval","old_object","259","Knife_Butter.jpg",".","3","36","1","967"
"18","18","retrieval","old_object","260","KitchenTools.jpg",".","1","36","1","760"
"18","18","retrieval","new_object","261","DentistOverheadLight.jpg",".",".","37","1","832"
"18","18","retrieval","old_object","262","Microphone.jpg",".","3","36","1","772"
"18","18","retrieval","old_object","263","Pen_Ballpoint.jpg",".","1","36","1","741"
