"group","subject","blockcode","trialcode","trialnum","stimulus","encoding_condition","old_object_condition","response","correct","latency"
"22","22","encoding","encoding","1","Lens_Camera.jpg","3",".","0","0","1009"
"22","22","encoding","encoding","2","Taco.jpg","3",".","36","0","971"
"22","22","encoding","encoding","3","DartBoard.jpg","3",".","37","0","926"
"22","22","encoding","encoding","4","Ladybug.jpg","3",".","0","0","1009"
"22","22","encoding","encoding","5","Desk_White.jpg","3",".","0","0","1009"
"22","22","encoding","encoding","6","Cart_Janitor.jpg","1",".","0","0","1009"
"22","22","encoding","encoding","7","PencilCase.jpg","1",".","0","0","1009"
"22","22","encoding","encoding","8","SewingPin_Cushion.jpg","3",".","0","0","1009"
"22","22","encoding","encoding","9","Cannon.jpg","3",".","37","0","683"
"22","22","encoding","encoding","10","MemoPaperSpike.jpg","1",".","37","0","990"
"22","22","encoding","encoding","11","Cup_Bathroom.jpg","1",".","0","0","1009"
"22","22","encoding","encoding","12","ProjectorScreen.jpg","1",".","0","0","1009"
"22","22","encoding","encoding","13","Wire_ElectricalSingle.jpg","3",".","0","0","1009"
"22","22","encoding","encoding","14","Bible.jpg","3",".","36","0","23"
"22","22","encoding","encoding","15","Microwave.jpg","1",".","36","0","971"
"22","22","encoding","encoding","16","Tree_Fir.jpg","3",".","37","0","523"
"22","22","encoding","encoding","17","PumiceStone.jpg","1",".","37","0","304"
"22","22","encoding","encoding","18","Hanger.jpg","1",".","37","0","311"
"22","22","encoding","encoding","19","Binder.jpg","3",".","37","0","255"
"22","22","encoding","encoding","20","Barometer.jpg","1",".","37","0","44"
"22","22","encoding","encoding","21","Branch.jpg","3",".","0","0","1009"
"22","22","encoding","encoding","22","LicensePlate.jpg","1",".","37","0","76"
"22","22","encoding","encoding","23","Bat_Cricket.jpg","1",".","37","0","155"
"22","22","encoding","encoding","24","Binder.jpg","3",".","0","0","1009"
"22","22","encoding","encoding","25","Mailbox_Community.jpg","3",".","0","0","1009"
"22","22","encoding","encoding","26","Candy_Lozenge.jpg","1",".","0","0","1009"
"22","22","encoding","encoding","27","Oars.jpg","3",".","0","0","1009"
"22","22","encoding","encoding","28","CodeDoorLock.jpg","3",".","0","0","1009"
"22","22","encoding","encoding","29","Mask_HockeyGoalie.jpg","3",".","0","0","1009"
"22","22","encoding","encoding","30","Mask_HockeyGoalie.jpg","3",".","0","0","1009"
"22","22","encoding","encoding","31","Trash_Medical.jpg","1",".","0","0","1009"
"22","22","encoding","encoding","32","Lighter_Black.jpg","1",".","0","0","1009"
"22","22","encoding","encoding","33","SelfieStick.jpg","3",".","0","0","1009"
"22","22","encoding","encoding","34","Castle_Sand.jpg","3",".","0","0","1009"
"22","22","encoding","encoding","35","Nuts_Pecan.jpg","3",".","0","0","1009"
"22","22","encoding","encoding","36","Bottle_Beer.jpg","1",".","0","0","1009"
"22","22","encoding","encoding","37","Statue_Man.jpg","3",".","0","0","1009"
"22","22","encoding","encoding","38","DartBoard.jpg","3",".","0","0","1009"
"22","22","encoding","encoding","39","RAMchip.jpg","3",".","0","0","1009"
"22","22","encoding","encoding","40","GasStation.jpg","1",".","0","0","1009"
"22","22","encoding","encoding","41","Toy_Truck.jpg","3",".","0","0","1009"
"22","22","encoding","encoding","42","Arch_Triomphe.jpg","3",".","0","0","1009"
"22","22","encoding","encoding","43","Binder.jpg","3",".","0","0","1009"
"22","22","encoding","encoding","44","ManholeCover.jpg","3",".","0","0","1009"
"22","22","encoding","encoding","45","Stove_WithOven.jpg","3",".","0","0","1009"
"22","22","encoding","encoding","46","Mask_HockeyGoalie.jpg","3",".","0","0","1009"
"22","22","encoding","encoding","47","RAMchip.jpg","3",".","37","0","919"
"22","22","encoding","encoding","48","Bowl_Glass.jpg","3",".","37","0","263"
"22","22","encoding","encoding","49","SolderingIron.jpg","3",".","36","0","244"
"22","22","encoding","encoding","50","PocketKnife.jpg","1",".","36","0","302"
"22","22","encoding","encoding","51","Toy_PandaPlushie.jpg","1",".","36","0","249"
"22","22","encoding","encoding","52","Weathervane.jpg","3",".","37","0","465"
"22","22","encoding","encoding","53","Mask_Ski.jpg","1",".","36","0","389"
"22","22","encoding","encoding","54","Tree_Fir.jpg","3",".","37","0","444"
"22","22","encoding","encoding","55","Corkboard.jpg","3",".","37","0","442"
"22","22","encoding","encoding","56","Desk_White.jpg","3",".","0","0","1009"
"22","22","encoding","encoding","57","Stove_WithOven.jpg","3",".","37","0","407"
"22","22","encoding","encoding","58","Mug_Travel.jpg","3",".","36","0","778"
"22","22","encoding","encoding","59","Garlic_Whole.jpg","3",".","36","0","475"
"22","22","encoding","encoding","60","PulleyWooden.jpg","1",".","37","0","713"
"22","22","encoding","encoding","61","Bandage_Adhesive.jpg","3",".","37","0","608"
"22","22","encoding","encoding","62","SolderingIron.jpg","3",".","0","0","1009"
"22","22","encoding","encoding","63","Light_Halogen.jpg","3",".","0","0","1009"
"22","22","encoding","encoding","64","House_Wooden.jpg","3",".","0","0","1009"
"22","22","encoding","encoding","65","Lollipop_Rainbow.jpg","3",".","0","0","1009"
"22","22","encoding","encoding","67","Walker_Blue.jpg","3",".","0","0","1009"
"22","22","encoding","encoding","68","Thermometer_Room.jpg","3",".","0","0","1009"
"22","22","encoding","encoding","69","TailLight.jpg","1",".","0","0","1009"
"22","22","encoding","encoding","70","Oars.jpg","3",".","0","0","1009"
"22","22","encoding","encoding","71","Gecko.jpg","3",".","0","0","1009"
"22","22","encoding","encoding","72","Aquarium.jpg","3",".","0","0","1009"
"22","22","encoding","encoding","73","Toy_Truck.jpg","3",".","0","0","1009"
"22","22","encoding","encoding","74","LifeJacket_Orangejpg.jpg","3",".","0","0","1009"
"22","22","encoding","encoding","75","Bag_Diaper.jpg","3",".","0","0","1009"
"22","22","encoding","encoding","76","Bark.jpg","3",".","0","0","1009"
"22","22","encoding","encoding","77","Clock_Interior.jpg","3",".","0","0","1009"
"22","22","encoding","encoding","78","Bread_Carrot.jpg","3",".","0","0","1009"
"22","22","encoding","encoding","79","Desk_White.jpg","3",".","0","0","1009"
"22","22","encoding","encoding","80","Scythe.jpg","3",".","0","0","1009"
"22","22","encoding","encoding","81","Bible.jpg","3",".","0","0","1009"
"22","22","encoding","encoding","82","DogSled.jpg","1",".","0","0","1009"
"22","22","encoding","encoding","83","RAMchip.jpg","3",".","0","0","1009"
"22","22","encoding","encoding","84","Light_Fixtures.jpg","3",".","0","0","1009"
"22","22","encoding","encoding","85","Stool_Metal.jpg","3",".","0","0","1009"
"22","22","encoding","encoding","86","Mug_Travel.jpg","3",".","0","0","1009"
"22","22","encoding","encoding","87","Stool_Metal.jpg","3",".","0","0","1009"
"22","22","encoding","encoding","88","Brush_Light.jpg","1",".","0","0","1009"
"22","22","encoding","encoding","89","Van.jpg","3",".","0","0","1009"
"22","22","encoding","encoding","90","Backpack_Suitcase.jpg","3",".","0","0","1009"
"22","22","encoding","encoding","91","Toy_LambPlushie.jpg","3",".","0","0","1009"
"22","22","encoding","encoding","92","Lens_Camera.jpg","3",".","0","0","1009"
"22","22","encoding","encoding","93","Umbrella_Classic.jpg","3",".","0","0","1009"
"22","22","encoding","encoding","94","Hockey_Puck.jpg","1",".","0","0","1009"
"22","22","encoding","encoding","95","BumperCar.jpg","3",".","0","0","1009"
"22","22","encoding","encoding","96","Aquarium.jpg","3",".","0","0","1009"
"22","22","encoding","encoding","97","Bleachers.jpg","3",".","0","0","1009"
"22","22","encoding","encoding","98","Bleachers.jpg","3",".","0","0","1009"
"22","22","encoding","encoding","99","WateringCan_Antique.jpg","3",".","0","0","1009"
"22","22","encoding","encoding","100","Bus_School.jpg","1",".","0","0","1009"
"22","22","encoding","encoding","101","Box_FirstAid.jpg","1",".","0","0","1009"
"22","22","encoding","encoding","102","sign_traffic.jpg","3",".","0","0","1009"
"22","22","encoding","encoding","103","Compact_Mirror.jpg","1",".","0","0","1009"
"22","22","encoding","encoding","104","Cannon.jpg","3",".","0","0","1009"
"22","22","encoding","encoding","105","Bag_Diaper.jpg","3",".","0","0","1009"
"22","22","encoding","encoding","106","Bucket_Halloween.jpg","1",".","0","0","1009"
"22","22","encoding","encoding","107","Lollipop_Rainbow.jpg","3",".","0","0","1009"
"22","22","encoding","encoding","108","Walker_Blue.jpg","3",".","0","0","1009"
"22","22","encoding","encoding","109","SelfieStick.jpg","3",".","0","0","1009"
"22","22","encoding","encoding","110","House_Wooden.jpg","3",".","0","0","1009"
"22","22","encoding","encoding","111","Helmet_Football.jpg","3",".","0","0","1009"
"22","22","encoding","encoding","112","AirCompressor.jpg","3",".","0","0","1009"
"22","22","encoding","encoding","113","Van.jpg","3",".","0","0","1009"
"22","22","encoding","encoding","114","Bowl_Glass.jpg","3",".","0","0","1009"
"22","22","encoding","encoding","115","Walker_Blue.jpg","3",".","0","0","1009"
"22","22","encoding","encoding","116","Toy_LambPlushie.jpg","3",".","0","0","1009"
"22","22","encoding","encoding","117","Weathervane.jpg","3",".","0","0","1009"
"22","22","encoding","encoding","118","ManholeCover.jpg","3",".","0","0","1009"
"22","22","encoding","encoding","119","Television.jpg","3",".","0","0","1009"
"22","22","encoding","encoding","120","WaterWell.jpg","3",".","0","0","1009"
"22","22","encoding","encoding","121","HairCurler.jpg","1",".","0","0","1009"
"22","22","encoding","encoding","122","Barometer_Wood.jpg","3",".","0","0","1009"
"22","22","encoding","encoding","123","SelfieStick.jpg","3",".","0","0","1009"
"22","22","encoding","encoding","124","Bread_Carrot.jpg","3",".","0","0","1009"
"22","22","encoding","encoding","125","Envelope_Manila.jpg","3",".","0","0","1009"
"22","22","encoding","encoding","126","Bandage_Adhesive.jpg","3",".","0","0","1009"
"22","22","encoding","encoding","127","Tube_Glue.jpg","1",".","0","0","1009"
"22","22","encoding","encoding","128","Thermometer_Room.jpg","3",".","0","0","1009"
"22","22","encoding","encoding","129","Toolbox_BlackOpen.jpg","3",".","0","0","1009"
"22","22","encoding","encoding","130","Milkshake_Strawberry.jpg","1",".","0","0","1009"
"22","22","encoding","encoding","131","CodeDoorLock.jpg","3",".","0","0","1009"
"22","22","encoding","encoding","133","Stove_WithOven.jpg","3",".","0","0","1009"
"22","22","encoding","encoding","134","Carabiner_Orange.jpg","3",".","0","0","1009"
"22","22","encoding","encoding","135","AirPump.jpg","1",".","0","0","1009"
"22","22","encoding","encoding","136","SewingPin_Cushion.jpg","3",".","0","0","1009"
"22","22","encoding","encoding","137","Bark.jpg","3",".","0","0","1009"
"22","22","encoding","encoding","138","DoubleBass.jpg","1",".","0","0","1009"
"22","22","encoding","encoding","139","WaterWell.jpg","3",".","0","0","1009"
"22","22","encoding","encoding","140","Umbrella_Classic.jpg","3",".","0","0","1009"
"22","22","encoding","encoding","141","Tube_Paint.jpg","1",".","0","0","1009"
"22","22","encoding","encoding","142","Cinnamonroll.jpg","1",".","0","0","1009"
"22","22","encoding","encoding","143","Taco.jpg","3",".","0","0","1009"
"22","22","encoding","encoding","144","ManholeCover.jpg","3",".","0","0","1009"
"22","22","encoding","encoding","145","Light_Fixtures.jpg","3",".","37","0","695"
"22","22","encoding","encoding","146","WateringCan_Antique.jpg","3",".","0","0","1009"
"22","22","encoding","encoding","147","Chair_Office.jpg","3",".","0","0","1009"
"22","22","encoding","encoding","148","Television.jpg","3",".","0","0","1009"
"22","22","encoding","encoding","149","Chair_Office.jpg","3",".","0","0","1009"
"22","22","encoding","encoding","150","Barometer_Wood.jpg","3",".","37","0","998"
"22","22","encoding","encoding","151","House_Wooden.jpg","3",".","0","0","1009"
"22","22","encoding","encoding","152","PyramidWooden.jpg","3",".","0","0","1009"
"22","22","encoding","encoding","153","Bread_Melon.jpg","1",".","0","0","1009"
"22","22","encoding","encoding","154","WaterWell.jpg","3",".","0","0","1009"
"22","22","encoding","encoding","155","MetalDetector.jpg","1",".","0","0","1009"
"22","22","encoding","encoding","156","Lens_Camera.jpg","3",".","0","0","1009"
"22","22","encoding","encoding","157","Spear.jpg","3",".","0","0","1009"
"22","22","encoding","encoding","158","Makeup_Compact.jpg","3",".","0","0","1009"
"22","22","encoding","encoding","159","HoseNozzle.jpg","1",".","0","0","1009"
"22","22","encoding","encoding","160","Clave.jpg","1",".","0","0","1009"
"22","22","encoding","encoding","161","Helmet_Football.jpg","3",".","0","0","1009"
"22","22","encoding","encoding","162","Mug_Travel.jpg","3",".","0","0","1009"
"22","22","encoding","encoding","163","CodeDoorLock.jpg","3",".","0","0","1009"
"22","22","encoding","encoding","164","Hedgehog.jpg","3",".","0","0","1009"
"22","22","encoding","encoding","165","Branch.jpg","3",".","0","0","1009"
"22","22","encoding","encoding","166","Ship_Cruise.jpg","1",".","0","0","1009"
"22","22","encoding","encoding","167","BumperCar.jpg","3",".","0","0","1009"
"22","22","encoding","encoding","168","Hat_Colonial.jpg","1",".","0","0","1009"
"22","22","encoding","encoding","169","Hubcap.jpg","1",".","0","0","1009"
"22","22","encoding","encoding","170","AirCompressor.jpg","3",".","0","0","1009"
"22","22","encoding","encoding","171","Scythe.jpg","3",".","0","0","1009"
"22","22","encoding","encoding","172","Can_Oblong.jpg","1",".","0","0","1009"
"22","22","encoding","encoding","173","FireAlarm.jpg","3",".","0","0","1009"
"22","22","encoding","encoding","174","Statue_Horse.jpg","1",".","0","0","1009"
"22","22","encoding","encoding","175","Amp.jpg","1",".","0","0","1009"
"22","22","encoding","encoding","176","SofaAntique.jpg","3",".","0","0","1009"
"22","22","encoding","encoding","177","Oars.jpg","3",".","0","0","1009"
"22","22","encoding","encoding","178","Cable_JumpStart.jpg","3",".","0","0","1009"
"22","22","encoding","encoding","179","Mailbox_Community.jpg","3",".","0","0","1009"
"22","22","encoding","encoding","180","TortillaChip.jpg","3",".","0","0","1009"
"22","22","encoding","encoding","181","Makeup_Compact.jpg","3",".","0","0","1009"
"22","22","encoding","encoding","182","LifeJacket_Orangejpg.jpg","3",".","0","0","1009"
"22","22","encoding","encoding","183","Platter_Vegetables.jpg","1",".","0","0","1009"
"22","22","encoding","encoding","184","Arch_Triomphe.jpg","3",".","0","0","1009"
"22","22","encoding","encoding","185","Light_Studio.jpg","1",".","0","0","1009"
"22","22","encoding","encoding","186","Bread_Carrot.jpg","3",".","0","0","1009"
"22","22","encoding","encoding","187","Cassette_Video.jpg","3",".","0","0","1009"
"22","22","encoding","encoding","188","Bleachers.jpg","3",".","0","0","1009"
"22","22","encoding","encoding","189","SofaAntique.jpg","3",".","0","0","1009"
"22","22","encoding","encoding","190","Cake_Cheese.jpg","1",".","0","0","1009"
"22","22","encoding","encoding","191","Mailbox_Community.jpg","3",".","0","0","1009"
"22","22","encoding","encoding","192","Wire_ElectricalSingle.jpg","3",".","0","0","1009"
"22","22","encoding","encoding","193","Corkboard.jpg","3",".","0","0","1009"
"22","22","encoding","encoding","194","Fork_Regular.jpg","1",".","0","0","1009"
"22","22","encoding","encoding","195","Nuts_Pecan.jpg","3",".","0","0","1009"
"22","22","encoding","encoding","196","SofaAntique.jpg","3",".","0","0","1009"
"22","22","encoding","encoding","197","FireAlarm.jpg","3",".","0","0","1009"
"22","22","encoding","encoding","199","BumperCar.jpg","3",".","0","0","1009"
"22","22","encoding","encoding","200","Cymbals.jpg","3",".","0","0","1009"
"22","22","encoding","encoding","201","Mailbox_Antique.jpg","3",".","0","0","1009"
"22","22","encoding","encoding","202","Cannon.jpg","3",".","0","0","1009"
"22","22","encoding","encoding","203","Wire_ElectricalSingle.jpg","3",".","0","0","1009"
"22","22","encoding","encoding","204","TortillaChip.jpg","3",".","0","0","1009"
"22","22","encoding","encoding","205","Carabiner_Orange.jpg","3",".","0","0","1009"
"22","22","encoding","encoding","206","Stool_Metal.jpg","3",".","0","0","1009"
"22","22","encoding","encoding","207","Backpack_Suitcase.jpg","3",".","0","0","1009"
"22","22","encoding","encoding","208","Garlic_Whole.jpg","3",".","0","0","1009"
"22","22","encoding","encoding","209","Envelope_Manila.jpg","3",".","0","0","1009"
"22","22","encoding","encoding","210","PyramidWooden.jpg","3",".","0","0","1009"
"22","22","encoding","encoding","211","Weathervane.jpg","3",".","0","0","1009"
"22","22","encoding","encoding","212","Chair_Office.jpg","3",".","0","0","1009"
"22","22","encoding","encoding","213","Gecko.jpg","3",".","0","0","1009"
"22","22","encoding","encoding","214","LifeJacket_Orangejpg.jpg","3",".","0","0","1009"
"22","22","encoding","encoding","215","Gecko.jpg","3",".","0","0","1009"
"22","22","encoding","encoding","216","Handbag.jpg","1",".","0","0","1009"
"22","22","encoding","encoding","217","Sign_Construction.jpg","1",".","0","0","1009"
"22","22","encoding","encoding","218","Backpack_Suitcase.jpg","3",".","0","0","1009"
"22","22","encoding","encoding","219","Spatula.jpg","3",".","0","0","1009"
"22","22","encoding","encoding","220","Bone.jpg","1",".","0","0","1009"
"22","22","encoding","encoding","221","Cable_JumpStart.jpg","3",".","0","0","1009"
"22","22","encoding","encoding","222","Bark.jpg","3",".","0","0","1009"
"22","22","encoding","encoding","223","Bowl_Glass.jpg","3",".","0","0","1009"
"22","22","encoding","encoding","224","Table_Saw.jpg","1",".","0","0","1009"
"22","22","encoding","encoding","225","Nuts_Pecan.jpg","3",".","0","0","1009"
"22","22","encoding","encoding","226","Bible.jpg","3",".","0","0","1009"
"22","22","encoding","encoding","227","sign_traffic.jpg","3",".","0","0","1009"
"22","22","encoding","encoding","228","Bread_Roll.jpg","1",".","0","0","1009"
"22","22","encoding","encoding","229","CoffeeLid.jpg","1",".","0","0","1009"
"22","22","encoding","encoding","230","Cymbals.jpg","3",".","0","0","1009"
"22","22","encoding","encoding","231","MechanicalSpring.jpg","3",".","0","0","1009"
"22","22","encoding","encoding","232","Carabiner_Orange.jpg","3",".","0","0","1009"
"22","22","encoding","encoding","233","Mailbox_Antique.jpg","3",".","0","0","1009"
"22","22","encoding","encoding","234","Garlic_Whole.jpg","3",".","0","0","1009"
"22","22","encoding","encoding","235","Corkboard.jpg","3",".","0","0","1009"
"22","22","encoding","encoding","236","Scythe.jpg","3",".","0","0","1009"
"22","22","encoding","encoding","237","Briefcase_Silver.jpg","1",".","0","0","1009"
"22","22","encoding","encoding","238","SatelliteDish.jpg","1",".","0","0","1009"
"22","22","encoding","encoding","239","Toy_MerryGoRound.jpg","3",".","0","0","1009"
"22","22","encoding","encoding","240","MechanicalSpring.jpg","3",".","0","0","1009"
"22","22","encoding","encoding","241","PyramidWooden.jpg","3",".","0","0","1009"
"22","22","encoding","encoding","242","Cymbals.jpg","3",".","0","0","1009"
"22","22","encoding","encoding","243","AirCompressor.jpg","3",".","0","0","1009"
"22","22","encoding","encoding","244","Crab.jpg","1",".","0","0","1009"
"22","22","encoding","encoding","245","Television.jpg","3",".","0","0","1009"
"22","22","encoding","encoding","246","Mailbox_Antique.jpg","3",".","0","0","1009"
"22","22","encoding","encoding","247","Toy_Truck.jpg","3",".","0","0","1009"
"22","22","encoding","encoding","248","Bread_Loaf.jpg","1",".","0","0","1009"
"22","22","encoding","encoding","249","Toy_Lizard.jpg","3",".","0","0","1009"
"22","22","encoding","encoding","250","Light_Fixtures.jpg","3",".","0","0","1009"
"22","22","encoding","encoding","251","DartBoard.jpg","3",".","0","0","1009"
"22","22","encoding","encoding","252","Barbecue_Charcoal.jpg","1",".","0","0","1009"
"22","22","encoding","encoding","253","Toy_MerryGoRound.jpg","3",".","0","0","1009"
"22","22","encoding","encoding","254","Cable_JumpStart.jpg","3",".","0","0","1009"
"22","22","encoding","encoding","255","Bird_Duck.jpg","3",".","0","0","1009"
"22","22","encoding","encoding","256","Spear.jpg","3",".","0","0","1009"
"22","22","encoding","encoding","257","Light_Halogen.jpg","3",".","0","0","1009"
"22","22","encoding","encoding","258","Canister_Oil.jpg","1",".","0","0","1009"
"22","22","encoding","encoding","259","Aquarium.jpg","3",".","0","0","1009"
"22","22","encoding","encoding","260","Toy_MerryGoRound.jpg","3",".","0","0","1009"
"22","22","encoding","encoding","261","Toolbox_BlackOpen.jpg","3",".","0","0","1009"
"22","22","encoding","encoding","262","Statue_Man.jpg","3",".","0","0","1009"
"22","22","encoding","encoding","263","FireAlarm.jpg","3",".","0","0","1009"
"22","22","encoding","encoding","265","Lollipop_Rainbow.jpg","3",".","0","0","1009"
"22","22","encoding","encoding","266","SolderingWire.jpg","1",".","0","0","1009"
"22","22","encoding","encoding","267","Heelpad.jpg","1",".","0","0","1009"
"22","22","encoding","encoding","268","Taco.jpg","3",".","0","0","1009"
"22","22","encoding","encoding","269","Toy_LambPlushie.jpg","3",".","0","0","1009"
"22","22","encoding","encoding","270","Earring_Hoop.jpg","1",".","0","0","1009"
"22","22","encoding","encoding","271","Castle_Sand.jpg","3",".","0","0","1009"
"22","22","encoding","encoding","272","Arch_Triomphe.jpg","3",".","0","0","1009"
"22","22","encoding","encoding","273","Envelope_Manila.jpg","3",".","0","0","1009"
"22","22","encoding","encoding","274","Clock_Interior.jpg","3",".","0","0","1009"
"22","22","encoding","encoding","275","Thermometer_Room.jpg","3",".","0","0","1009"
"22","22","encoding","encoding","276","MousepadAndMouse.jpg","1",".","0","0","1009"
"22","22","encoding","encoding","277","Radish.jpg","1",".","0","0","1009"
"22","22","encoding","encoding","278","Acorn.jpg","1",".","0","0","1009"
"22","22","encoding","encoding","279","Bandage_Adhesive.jpg","3",".","0","0","1009"
"22","22","encoding","encoding","280","Toolbox_BlackOpen.jpg","3",".","0","0","1009"
"22","22","encoding","encoding","281","Clock_Interior.jpg","3",".","0","0","1009"
"22","22","encoding","encoding","282","Cassette_Video.jpg","3",".","0","0","1009"
"22","22","encoding","encoding","283","WateringCan_Antique.jpg","3",".","0","0","1009"
"22","22","encoding","encoding","284","Case_Pencil.jpg","1",".","0","0","1009"
"22","22","encoding","encoding","285","Lantern_Chinese.jpg","1",".","0","0","1009"
"22","22","encoding","encoding","286","Ladybug.jpg","3",".","0","0","1009"
"22","22","encoding","encoding","287","Bird_Duck.jpg","3",".","0","0","1009"
"22","22","encoding","encoding","288","IceCream_Popsicle.jpg","1",".","0","0","1009"
"22","22","encoding","encoding","289","Van.jpg","3",".","0","0","1009"
"22","22","encoding","encoding","290","Castle_Sand.jpg","3",".","0","0","1009"
"22","22","encoding","encoding","291","SolderingIron.jpg","3",".","0","0","1009"
"22","22","encoding","encoding","292","Hedgehog.jpg","3",".","0","0","1009"
"22","22","encoding","encoding","293","Candy_Toffee.jpg","1",".","0","0","1009"
"22","22","encoding","encoding","294","Jar_Honey.jpg","1",".","0","0","1009"
"22","22","encoding","encoding","295","Spatula.jpg","3",".","0","0","1009"
"22","22","encoding","encoding","296","sign_traffic.jpg","3",".","0","0","1009"
"22","22","encoding","encoding","297","Bag_Diaper.jpg","3",".","0","0","1009"
"22","22","encoding","encoding","298","Toy_Lizard.jpg","3",".","0","0","1009"
"22","22","encoding","encoding","299","Branch.jpg","3",".","0","0","1009"
"22","22","encoding","encoding","300","Carousel.jpg","1",".","0","0","1009"
"22","22","encoding","encoding","301","Makeup_Compact.jpg","3",".","0","0","1009"
"22","22","encoding","encoding","302","Stone_AncientWriting.jpg","1",".","0","0","1009"
"22","22","encoding","encoding","303","Statue_Man.jpg","3",".","0","0","1009"
"22","22","encoding","encoding","304","Toy_Lizard.jpg","3",".","0","0","1009"
"22","22","encoding","encoding","305","PagodaModel.jpg","1",".","0","0","1009"
"22","22","encoding","encoding","306","Helmet_Motorcycle.jpg","1",".","0","0","1009"
"22","22","encoding","encoding","307","Helmet_Football.jpg","3",".","0","0","1009"
"22","22","encoding","encoding","308","TortillaChip.jpg","3",".","0","0","1009"
"22","22","encoding","encoding","309","Wontons.jpg","1",".","0","0","1009"
"22","22","encoding","encoding","310","Glass_Beer.jpg","1",".","0","0","1009"
"22","22","encoding","encoding","311","Flags_CheckeredRacing.jpg","1",".","0","0","1009"
"22","22","encoding","encoding","312","Spatula.jpg","3",".","0","0","1009"
"22","22","encoding","encoding","313","Bird_Duck.jpg","3",".","0","0","1009"
"22","22","encoding","encoding","314","Hedgehog.jpg","3",".","0","0","1009"
"22","22","encoding","encoding","315","Spear.jpg","3",".","0","0","1009"
"22","22","encoding","encoding","316","Light_Halogen.jpg","3",".","0","0","1009"
"22","22","encoding","encoding","317","Cassette_Video.jpg","3",".","0","0","1009"
"22","22","encoding","encoding","318","CarSuspension.jpg","1",".","0","0","1009"
"22","22","encoding","encoding","319","Ladybug.jpg","3",".","0","0","1009"
"22","22","encoding","encoding","320","SewingPin_Cushion.jpg","3",".","0","0","1009"
"22","22","encoding","encoding","321","Barometer_Wood.jpg","3",".","0","0","1009"
"22","22","encoding","encoding","322","Umbrella_Classic.jpg","3",".","0","0","1009"
"22","22","encoding","encoding","323","MechanicalSpring.jpg","3",".","0","0","1009"
"22","22","encoding","encoding","324","Tree_Fir.jpg","3",".","0","0","1009"
"22","22","encoding","encoding","325","Lens_Camera.jpg","",".","0","0","1009"
"22","22","retrieval","new_object","1","Snowpea.jpg",".",".","37","1","1786"
"22","22","retrieval","new_object","2","ClothesDryingRack.jpg",".",".","37","1","1293"
"22","22","retrieval","old_object","3","Makeup_Compact.jpg",".","3","0","0","2009"
"22","22","retrieval","old_object","4","Glass_Beer.jpg",".","1","0","0","2009"
"22","22","retrieval","new_object","5","Box_Cutlery.jpg",".",".","0","0","2009"
"22","22","retrieval","new_object","6","Snorkle.jpg",".",".","37","1","635"
"22","22","retrieval","new_object","7","IceCubes.jpg",".",".","0","0","2009"
"22","22","retrieval","new_object","8","IroningBoard.jpg",".",".","0","0","2009"
"22","22","retrieval","old_object","9","SofaAntique.jpg",".","3","0","0","2009"
"22","22","retrieval","old_object","10","Earring_Hoop.jpg",".","1","0","0","2009"
"22","22","retrieval","new_object","11","Toy_Ladybug.jpg",".",".","0","0","2009"
"22","22","retrieval","old_object","12","Lens_Camera.jpg",".","3","37","0","1441"
"22","22","retrieval","new_object","13","PowderProtein.jpg",".",".","37","1","521"
"22","22","retrieval","old_object","14","IceCream_Popsicle.jpg",".","1","37","0","162"
"22","22","retrieval","new_object","15","Candleholder_LampShaped.jpg",".",".","37","1","42"
"22","22","retrieval","old_object","16","Bus_School.jpg",".","1","37","0","160"
"22","22","retrieval","new_object","17","SoapDish.jpg",".",".","37","1","141"
"22","22","retrieval","new_object","18","Camera_Video.jpg",".",".","37","1","506"
"22","22","retrieval","old_object","19","Van.jpg",".","3","37","0","65"
"22","22","retrieval","new_object","20","LintRemover.jpg",".",".","0","0","2009"
"22","22","retrieval","old_object","21","PocketKnife.jpg",".","1","0","0","2009"
"22","22","retrieval","old_object","22","Ladybug.jpg",".","3","0","0","2009"
"22","22","retrieval","old_object","23","Briefcase_Silver.jpg",".","1","0","0","2009"
"22","22","retrieval","old_object","24","Scythe.jpg",".","3","0","0","2009"
"22","22","retrieval","new_object","25","Nail.jpg",".",".","0","0","2009"
"22","22","retrieval","old_object","26","Gecko.jpg",".","3","37","0","1775"
"22","22","retrieval","new_object","27","GrillRack.jpg",".",".","37","1","1739"
"22","22","retrieval","new_object","28","Paddle_Ball.jpg",".",".","37","1","484"
"22","22","retrieval","old_object","29","Taco.jpg",".","3","37","0","497"
"22","22","retrieval","new_object","30","Tray_Medical.jpg",".",".","37","1","449"
"22","22","retrieval","new_object","31","Bucket_WoodenLight.jpg",".",".","37","1","434"
"22","22","retrieval","old_object","32","Handbag.jpg",".","1","37","0","120"
"22","22","retrieval","new_object","33","Fan_Straw.jpg",".",".","37","1","38"
"22","22","retrieval","new_object","34","Sink_Kitchen.jpg",".",".","0","0","2009"
"22","22","retrieval","new_object","35","Broccoli.jpg",".",".","0","0","2009"
"22","22","retrieval","old_object","36","Box_FirstAid.jpg",".","1","0","0","2009"
"22","22","retrieval","old_object","37","Statue_Man.jpg",".","3","0","0","2009"
"22","22","retrieval","old_object","38","AirCompressor.jpg",".","3","0","0","2009"
"22","22","retrieval","new_object","39","MatchBook.jpg",".",".","0","0","2009"
"22","22","retrieval","new_object","40","Card_TwoSpade.jpg",".",".","37","1","1017"
"22","22","retrieval","old_object","41","Bleachers.jpg",".","3","37","0","43"
"22","22","retrieval","old_object","42","MetalDetector.jpg",".","1","37","0","150"
"22","22","retrieval","old_object","43","Cart_Janitor.jpg",".","1","37","0","5"
"22","22","retrieval","old_object","44","Bark.jpg",".","3","37","0","30"
"22","22","retrieval","new_object","45","Mitt_Blue.jpg",".",".","37","1","292"
"22","22","retrieval","old_object","46","Barometer_Wood.jpg",".","3","37","0","16"
"22","22","retrieval","new_object","47","Carrot.jpg",".",".","37","1","4"
"22","22","retrieval","old_object","48","LicensePlate.jpg",".","1","0","0","2009"
"22","22","retrieval","new_object","49","Toy_DonkeyFur.jpg",".",".","37","1","45"
"22","22","retrieval","new_object","50","Toy_Bat.jpg",".",".","37","1","40"
"22","22","retrieval","new_object","51","Toy_BeadMaze.jpg",".",".","0","0","2009"
"22","22","retrieval","new_object","52","Notepad.jpg",".",".","37","1","419"
"22","22","retrieval","old_object","53","Aquarium.jpg",".","3","37","0","314"
"22","22","retrieval","new_object","54","Desk_Office.jpg",".",".","37","1","150"
"22","22","retrieval","old_object","55","Weathervane.jpg",".","3","0","0","2009"
"22","22","retrieval","new_object","56","Stool_Camping.jpg",".",".","0","0","2009"
"22","22","retrieval","old_object","57","Clock_Interior.jpg",".","3","0","0","2009"
"22","22","retrieval","new_object","58","Scorpion.jpg",".",".","0","0","2009"
"22","22","retrieval","new_object","59","Pyramid.jpg",".",".","37","1","863"
"22","22","retrieval","new_object","60","Box_WoodCrate.jpg",".",".","0","0","2009"
"22","22","retrieval","new_object","61","Pretzel_Sticks.jpg",".",".","0","0","2009"
"22","22","retrieval","old_object","62","PumiceStone.jpg",".","1","0","0","2009"
"22","22","retrieval","old_object","63","CoffeeLid.jpg",".","1","0","0","2009"
"22","22","retrieval","old_object","64","HoseNozzle.jpg",".","1","37","0","1920"
"22","22","retrieval","old_object","65","Castle_Sand.jpg",".","3","37","0","1"
"22","22","retrieval","new_object","67","Heater_ElectricUpright.jpg",".",".","37","1","1014"
"22","22","retrieval","old_object","68","Table_Saw.jpg",".","1","37","0","209"
"22","22","retrieval","old_object","69","Desk_White.jpg",".","3","37","0","417"
"22","22","retrieval","old_object","70","Tube_Paint.jpg",".","1","0","0","2009"
"22","22","retrieval","old_object","71","Corkboard.jpg",".","3","0","0","2009"
"22","22","retrieval","old_object","72","AirPump.jpg",".","1","0","0","2009"
"22","22","retrieval","old_object","73","Bandage_Adhesive.jpg",".","3","37","0","1277"
"22","22","retrieval","old_object","74","Crab.jpg",".","1","37","0","1074"
"22","22","retrieval","new_object","75","Compressor.jpg",".",".","37","1","270"
"22","22","retrieval","new_object","76","Pasta_Fettuccine.jpg",".",".","37","1","14"
"22","22","retrieval","old_object","77","LifeJacket_Orangejpg.jpg",".","3","37","0","109"
"22","22","retrieval","old_object","78","Cake_Cheese.jpg",".","1","37","0","125"
"22","22","retrieval","new_object","79","DonaldDuck_Toy.jpg",".",".","37","1","53"
"22","22","retrieval","old_object","80","sign_traffic.jpg",".","3","0","0","2009"
"22","22","retrieval","new_object","81","Dice.jpg",".",".","0","0","2009"
"22","22","retrieval","old_object","82","Toy_LambPlushie.jpg",".","3","0","0","2009"
"22","22","retrieval","new_object","83","Cheeseburger.jpg",".",".","0","0","2009"
"22","22","retrieval","new_object","84","Coral.jpg",".",".","0","0","2009"
"22","22","retrieval","old_object","85","DogSled.jpg",".","1","0","0","2009"
"22","22","retrieval","new_object","86","Toy_Wooden rings.jpg",".",".","0","0","2009"
"22","22","retrieval","old_object","87","Bowl_Glass.jpg",".","3","0","0","2009"
"22","22","retrieval","old_object","88","Cable_JumpStart.jpg",".","3","0","0","2009"
"22","22","retrieval","old_object","89","DartBoard.jpg",".","3","0","0","2009"
"22","22","retrieval","new_object","90","Drum_Ramadan.jpg",".",".","0","0","2009"
"22","22","retrieval","old_object","91","Mask_Ski.jpg",".","1","0","0","2009"
"22","22","retrieval","old_object","92","Garlic_Whole.jpg",".","3","0","0","2009"
"22","22","retrieval","new_object","93","FlintIgniter.jpg",".",".","37","1","165"
"22","22","retrieval","old_object","94","House_Wooden.jpg",".","3","37","0","504"
"22","22","retrieval","old_object","95","DoubleBass.jpg",".","1","37","0","152"
"22","22","retrieval","new_object","96","Mask_VenetianCat.jpg",".",".","37","1","141"
"22","22","retrieval","old_object","97","Bucket_Halloween.jpg",".","1","37","0","176"
"22","22","retrieval","new_object","98","Ostrich.jpg",".",".","37","1","184"
"22","22","retrieval","new_object","99","Tape_Dispenser.jpg",".",".","37","1","493"
"22","22","retrieval","new_object","100","Mat_Bamboo.jpg",".",".","37","1","338"
"22","22","retrieval","new_object","101","Boat_Colourful.jpg",".",".","37","1","568"
"22","22","retrieval","new_object","102","EyeChart.jpg",".",".","37","1","149"
"22","22","retrieval","new_object","103","NailFiles.jpg",".",".","37","1","257"
"22","22","retrieval","new_object","104","RadioactiveContainer.jpg",".",".","37","1","1396"
"22","22","retrieval","old_object","105","Clave.jpg",".","1","37","0","1264"
"22","22","retrieval","new_object","106","SaladCaesar.jpg",".",".","0","0","2009"
"22","22","retrieval","new_object","107","Cologne.jpg",".",".","37","1","1357"
"22","22","retrieval","old_object","108","SolderingIron.jpg",".","3","37","0","324"
"22","22","retrieval","new_object","109","Decoration_ChristmasWhite.jpg",".",".","37","1","482"
"22","22","retrieval","old_object","110","Stool_Metal.jpg",".","3","37","0","496"
"22","22","retrieval","old_object","111","Tube_Glue.jpg",".","1","0","0","2009"
"22","22","retrieval","old_object","112","Backpack_Suitcase.jpg",".","3","0","0","2009"
"22","22","retrieval","old_object","113","Television.jpg",".","3","0","0","2009"
"22","22","retrieval","old_object","114","Branch.jpg",".","3","37","0","780"
"22","22","retrieval","new_object","115","Car_Buggy.jpg",".",".","37","1","1858"
"22","22","retrieval","old_object","116","Arch_Triomphe.jpg",".","3","0","0","2009"
"22","22","retrieval","new_object","117","Piano_Upright.jpg",".",".","37","1","515"
"22","22","retrieval","new_object","118","Backhoe.jpg",".",".","37","1","422"
"22","22","retrieval","new_object","119","Computer_ExpansionCard.jpg",".",".","37","1","221"
"22","22","retrieval","new_object","120","Shirt_Tshirt.jpg",".",".","37","1","361"
"22","22","retrieval","old_object","121","Acorn.jpg",".","1","37","0","1005"
"22","22","retrieval","old_object","122","WaterWell.jpg",".","3","0","0","2009"
"22","22","retrieval","new_object","123","Airplane_Small.jpg",".",".","37","1","85"
"22","22","retrieval","new_object","124","LeafBlower.jpg",".",".","37","1","52"
"22","22","retrieval","old_object","125","Envelope_Manila.jpg",".","3","37","0","1051"
"22","22","retrieval","new_object","126","Glasses_Sun.jpg",".",".","37","1","439"
"22","22","retrieval","old_object","127","PulleyWooden.jpg",".","1","37","0","637"
"22","22","retrieval","old_object","128","MechanicalSpring.jpg",".","3","37","0","356"
"22","22","retrieval","old_object","129","SolderingWire.jpg",".","1","0","0","2009"
"22","22","retrieval","old_object","130","Nuts_Pecan.jpg",".","3","37","0","249"
"22","22","retrieval","new_object","131","TowelRack_Metal.jpg",".",".","0","0","2009"
"22","22","retrieval","old_object","133","Cinnamonroll.jpg",".","1","0","0","2009"
"22","22","retrieval","new_object","134","Squash_Butternut.jpg",".",".","0","0","2009"
"22","22","retrieval","old_object","135","Bottle_Beer.jpg",".","1","0","0","2009"
"22","22","retrieval","old_object","136","TortillaChip.jpg",".","3","37","0","115"
"22","22","retrieval","new_object","137","Suitcase.jpg",".",".","37","1","754"
"22","22","retrieval","old_object","138","Light_Studio.jpg",".","1","37","0","403"
"22","22","retrieval","old_object","139","Helmet_Football.jpg",".","3","37","0","1460"
"22","22","retrieval","new_object","140","Bowl_Chopsticks.jpg",".",".","0","0","2009"
"22","22","retrieval","new_object","141","Protractor.jpg",".",".","0","0","2009"
"22","22","retrieval","old_object","142","ManholeCover.jpg",".","3","37","0","127"
"22","22","retrieval","old_object","143","SewingPin_Cushion.jpg",".","3","0","0","2009"
"22","22","retrieval","old_object","144","Oars.jpg",".","3","37","0","282"
"22","22","retrieval","new_object","145","Walkman.jpg",".",".","0","0","2009"
"22","22","retrieval","old_object","146","Lollipop_Rainbow.jpg",".","3","0","0","2009"
"22","22","retrieval","old_object","147","Bread_Roll.jpg",".","1","0","0","2009"
"22","22","retrieval","new_object","148","HairClipper.jpg",".",".","0","0","2009"
"22","22","retrieval","new_object","149","Otoscope.jpg",".",".","0","0","2009"
"22","22","retrieval","new_object","150","Canister_Tea.jpg",".",".","0","0","2009"
"22","22","retrieval","old_object","151","Mailbox_Antique.jpg",".","3","0","0","2009"
"22","22","retrieval","old_object","152","PagodaModel.jpg",".","1","37","0","70"
"22","22","retrieval","new_object","153","PaperTowel_Brown.jpg",".",".","37","1","6"
"22","22","retrieval","old_object","154","Microwave.jpg",".","1","37","0","94"
"22","22","retrieval","old_object","155","Hedgehog.jpg",".","3","37","0","129"
"22","22","retrieval","new_object","156","WalkieTalkie_Yellow.jpg",".",".","37","1","64"
"22","22","retrieval","new_object","157","Balcony.jpg",".",".","37","1","18"
"22","22","retrieval","new_object","158","Match.jpg",".",".","37","1","448"
"22","22","retrieval","old_object","159","Bird_Duck.jpg",".","3","0","0","2009"
"22","22","retrieval","old_object","160","Canister_Oil.jpg",".","1","0","0","2009"
"22","22","retrieval","new_object","161","Stick_Stirring.jpg",".",".","37","1","57"
"22","22","retrieval","old_object","162","Lighter_Black.jpg",".","1","0","0","2009"
"22","22","retrieval","old_object","163","MemoPaperSpike.jpg",".","1","0","0","2009"
"22","22","retrieval","new_object","164","Toy_Rooster.jpg",".",".","0","0","2009"
"22","22","retrieval","old_object","165","Binder.jpg",".","3","0","0","2009"
"22","22","retrieval","old_object","166","Platter_Vegetables.jpg",".","1","0","0","2009"
"22","22","retrieval","old_object","167","Milkshake_Strawberry.jpg",".","1","0","0","2009"
"22","22","retrieval","old_object","168","Ship_Cruise.jpg",".","1","0","0","2009"
"22","22","retrieval","old_object","169","Candy_Lozenge.jpg",".","1","0","0","2009"
"22","22","retrieval","new_object","170","Dragonfly.jpg",".",".","0","0","2009"
"22","22","retrieval","new_object","171","Makeup_Bag.jpg",".",".","0","0","2009"
"22","22","retrieval","new_object","172","ShoeLace_Flat.jpg",".",".","0","0","2009"
"22","22","retrieval","old_object","173","Spear.jpg",".","3","0","0","2009"
"22","22","retrieval","old_object","174","Thermometer_Room.jpg",".","3","0","0","2009"
"22","22","retrieval","new_object","175","Sphinx.jpg",".",".","0","0","2009"
"22","22","retrieval","new_object","176","Flashlight.jpg",".",".","0","0","2009"
"22","22","retrieval","old_object","177","Wontons.jpg",".","1","0","0","2009"
"22","22","retrieval","new_object","178","Toy_TrailerAirport.jpg",".",".","0","0","2009"
"22","22","retrieval","new_object","179","Shoes_Mould.jpg",".",".","0","0","2009"
"22","22","retrieval","new_object","180","Stick_IceHockey.jpg",".",".","0","0","2009"
"22","22","retrieval","new_object","181","Shrimp.jpg",".",".","0","0","2009"
"22","22","retrieval","new_object","182","Tray_Metal.jpg",".",".","0","0","2009"
"22","22","retrieval","new_object","183","Cloud.jpg",".",".","0","0","2009"
"22","22","retrieval","new_object","184","Toy_Firetruck.jpg",".",".","0","0","2009"
"22","22","retrieval","new_object","185","TowelRack_Brown.jpg",".",".","0","0","2009"
"22","22","retrieval","new_object","186","Paddle_Canoe.jpg",".",".","0","0","2009"
"22","22","retrieval","old_object","187","MousepadAndMouse.jpg",".","1","0","0","2009"
"22","22","retrieval","new_object","188","Case_CD.jpg",".",".","0","0","2009"
"22","22","retrieval","new_object","189","Clippers_Glass.jpg",".",".","0","0","2009"
"22","22","retrieval","new_object","190","FuzzyDice.jpg",".",".","0","0","2009"
"22","22","retrieval","new_object","191","Coin.jpg",".",".","0","0","2009"
"22","22","retrieval","new_object","192","Sign_SlipperyRoad.jpg",".",".","0","0","2009"
"22","22","retrieval","old_object","193","Cassette_Video.jpg",".","3","0","0","2009"
"22","22","retrieval","old_object","194","Stone_AncientWriting.jpg",".","1","0","0","2009"
"22","22","retrieval","old_object","195","HairCurler.jpg",".","1","0","0","2009"
"22","22","retrieval","old_object","196","Trash_Medical.jpg",".","1","0","0","2009"
"22","22","retrieval","old_object","197","Case_Pencil.jpg",".","1","0","0","2009"
"22","22","retrieval","new_object","199","Heater_Outdoor.jpg",".",".","0","0","2009"
"22","22","retrieval","new_object","200","Puffin.jpg",".",".","0","0","2009"
"22","22","retrieval","new_object","201","OperaGlasses.jpg",".",".","0","0","2009"
"22","22","retrieval","old_object","202","Amp.jpg",".","1","0","0","2009"
"22","22","retrieval","old_object","203","PyramidWooden.jpg",".","3","0","0","2009"
"22","22","retrieval","new_object","204","Neckrest.jpg",".",".","0","0","2009"
"22","22","retrieval","old_object","205","Sign_Construction.jpg",".","1","0","0","2009"
"22","22","retrieval","old_object","206","Hockey_Puck.jpg",".","1","0","0","2009"
"22","22","retrieval","new_object","207","Helicopter.jpg",".",".","0","0","2009"
"22","22","retrieval","new_object","208","Barrel_Wine.jpg",".",".","0","0","2009"
"22","22","retrieval","new_object","209","Celery.jpg",".",".","0","0","2009"
"22","22","retrieval","old_object","210","GasStation.jpg",".","1","0","0","2009"
"22","22","retrieval","old_object","211","Cannon.jpg",".","3","0","0","2009"
"22","22","retrieval","new_object","212","CarLighter.jpg",".",".","0","0","2009"
"22","22","retrieval","new_object","213","Ginger.jpg",".",".","0","0","2009"
"22","22","retrieval","old_object","214","Fork_Regular.jpg",".","1","0","0","2009"
"22","22","retrieval","old_object","215","Radish.jpg",".","1","0","0","2009"
"22","22","retrieval","new_object","216","RecorderInstrument.jpg",".",".","0","0","2009"
"22","22","retrieval","new_object","217","PaperCutter.jpg",".",".","0","0","2009"
"22","22","retrieval","old_object","218","Helmet_Motorcycle.jpg",".","1","0","0","2009"
"22","22","retrieval","old_object","219","Barometer.jpg",".","1","0","0","2009"
"22","22","retrieval","old_object","220","Statue_Horse.jpg",".","1","0","0","2009"
"22","22","retrieval","new_object","221","BowlingPin.jpg",".",".","0","0","2009"
"22","22","retrieval","old_object","222","CodeDoorLock.jpg",".","3","0","0","2009"
"22","22","retrieval","new_object","223","Level.jpg",".",".","0","0","2009"
"22","22","retrieval","old_object","224","Cymbals.jpg",".","3","0","0","2009"
"22","22","retrieval","new_object","225","Toy_Taxi.jpg",".",".","0","0","2009"
"22","22","retrieval","new_object","226","SnowmanDecor.jpg",".",".","0","0","2009"
"22","22","retrieval","new_object","227","Seeder.jpg",".",".","0","0","2009"
"22","22","retrieval","old_object","228","Bread_Loaf.jpg",".","1","0","0","2009"
"22","22","retrieval","old_object","229","RAMchip.jpg",".","3","0","0","2009"
"22","22","retrieval","new_object","230","Jars_PetFood.jpg",".",".","0","0","2009"
"22","22","retrieval","new_object","231","Suit_Women.jpg",".",".","0","0","2009"
"22","22","retrieval","old_object","232","Toy_PandaPlushie.jpg",".","1","0","0","2009"
"22","22","retrieval","old_object","233","Toy_MerryGoRound.jpg",".","3","0","0","2009"
"22","22","retrieval","new_object","234","Dropper.jpg",".",".","0","0","2009"
"22","22","retrieval","old_object","235","Bone.jpg",".","1","0","0","2009"
"22","22","retrieval","old_object","236","Barbecue_Charcoal.jpg",".","1","0","0","2009"
"22","22","retrieval","new_object","237","Blueberry.jpg",".",".","37","1","1741"
"22","22","retrieval","old_object","238","Light_Fixtures.jpg",".","3","37","0","16"
"22","22","retrieval","old_object","239","Umbrella_Classic.jpg",".","3","37","0","514"
"22","22","retrieval","new_object","240","Bicycle_Kids.jpg",".",".","37","1","373"
"22","22","retrieval","new_object","241","ShinPads.jpg",".",".","37","1","695"
"22","22","retrieval","new_object","242","DeepFryer.jpg",".",".","37","1","911"
"22","22","retrieval","new_object","243","Sandwich_Ham.jpg",".",".","37","1","1775"
"22","22","retrieval","new_object","244","VinylRecord.jpg",".",".","37","1","814"
"22","22","retrieval","new_object","245","Hat_Feather.jpg",".",".","37","1","702"
"22","22","retrieval","old_object","246","Chair_Office.jpg",".","3","37","0","30"
"22","22","retrieval","old_object","247","SelfieStick.jpg",".","3","37","0","348"
"22","22","retrieval","old_object","248","Toy_Lizard.jpg",".","3","37","0","567"
"22","22","retrieval","new_object","249","PersonWooden.jpg",".",".","0","0","2009"
"22","22","retrieval","new_object","250","Lips_Wax.jpg",".",".","37","1","430"
"22","22","retrieval","old_object","251","Lantern_Chinese.jpg",".","1","37","0","535"
"22","22","retrieval","new_object","252","ComputerKey_Escape.jpg",".",".","37","1","345"
"22","22","retrieval","new_object","253","Hat_Police.jpg",".",".","37","1","847"
"22","22","retrieval","old_object","254","Compact_Mirror.jpg",".","1","37","0","1122"
"22","22","retrieval","old_object","255","Mug_Travel.jpg",".","3","37","0","958"
"22","22","retrieval","old_object","256","Hanger.jpg",".","1","0","0","2009"
"22","22","retrieval","new_object","257","WaterCooler.jpg",".",".","0","0","2009"
"22","22","retrieval","old_object","258","PencilCase.jpg",".","1","0","0","2009"
"22","22","retrieval","old_object","259","Cup_Bathroom.jpg",".","1","37","0","532"
"22","22","retrieval","old_object","260","CarSuspension.jpg",".","1","37","0","1600"
"22","22","retrieval","new_object","261","Lynx.jpg",".",".","37","1","509"
"22","22","retrieval","new_object","262","Bagpipes.jpg",".",".","37","1","761"
"22","22","retrieval","new_object","263","Ruler_Wooden.jpg",".",".","0","0","2009"
"22","22","retrieval","old_object","265","Toolbox_BlackOpen.jpg",".","3","0","0","2009"
"22","22","retrieval","old_object","266","FireAlarm.jpg",".","3","0","0","2009"
"22","22","retrieval","old_object","267","Wire_ElectricalSingle.jpg",".","3","0","0","2009"
"22","22","retrieval","old_object","268","ProjectorScreen.jpg",".","1","0","0","2009"
"22","22","retrieval","new_object","269","Bag_Toiletry.jpg",".",".","0","0","2009"
"22","22","retrieval","old_object","270","Spatula.jpg",".","3","0","0","2009"
"22","22","retrieval","old_object","271","Bag_Diaper.jpg",".","3","0","0","2009"
"22","22","retrieval","new_object","272","WaterHeater.jpg",".",".","0","0","2009"
"22","22","retrieval","new_object","273","Golf_Club.jpg",".",".","0","0","2009"
"22","22","retrieval","old_object","274","WateringCan_Antique.jpg",".","3","0","0","2009"
"22","22","retrieval","old_object","275","Mask_HockeyGoalie.jpg",".","3","0","0","2009"
"22","22","retrieval","old_object","276","Can_Oblong.jpg",".","1","0","0","2009"
"22","22","retrieval","old_object","277","Walker_Blue.jpg",".","3","0","0","2009"
"22","22","retrieval","old_object","278","Tree_Fir.jpg",".","3","0","0","2009"
"22","22","retrieval","new_object","279","Bus_DoubleDecker.jpg",".",".","0","0","2009"
"22","22","retrieval","new_object","280","Card_Deck.jpg",".",".","0","0","2009"
"22","22","retrieval","new_object","281","TreeStump.jpg",".",".","0","0","2009"
"22","22","retrieval","old_object","282","Flags_CheckeredRacing.jpg",".","1","0","0","2009"
"22","22","retrieval","old_object","283","Light_Halogen.jpg",".","3","0","0","2009"
"22","22","retrieval","new_object","284","PumpBreast.jpg",".",".","0","0","2009"
"22","22","retrieval","new_object","285","Puzzle_Animal.jpg",".",".","0","0","2009"
"22","22","retrieval","old_object","286","Candy_Toffee.jpg",".","1","0","0","2009"
"22","22","retrieval","new_object","287","Shovel_Garden.jpg",".",".","0","0","2009"
"22","22","retrieval","old_object","288","Hat_Colonial.jpg",".","1","0","0","2009"
"22","22","retrieval","old_object","289","Jar_Honey.jpg",".","1","0","0","2009"
"22","22","retrieval","new_object","290","Toy_BearBrownPlushie.jpg",".",".","0","0","2009"
"22","22","retrieval","old_object","291","Stove_WithOven.jpg",".","3","0","0","2009"
"22","22","retrieval","old_object","292","Carousel.jpg",".","1","0","0","2009"
"22","22","retrieval","old_object","293","Bat_Cricket.jpg",".","1","0","0","2009"
"22","22","retrieval","new_object","294","Garlic_Clove.jpg",".",".","0","0","2009"
"22","22","retrieval","new_object","295","Toy_Dog.jpg",".",".","0","0","2009"
"22","22","retrieval","new_object","296","Toy_Christmastree.jpg",".",".","0","0","2009"
"22","22","retrieval","new_object","297","Stone_Spa.jpg",".",".","0","0","2009"
"22","22","retrieval","new_object","298","CDstack.jpg",".",".","0","0","2009"
"22","22","retrieval","new_object","299","VacuumHose.jpg",".",".","0","0","2009"
"22","22","retrieval","new_object","300","Pear_Green.jpg",".",".","0","0","2009"
"22","22","retrieval","new_object","301","Dog_Bulldog.jpg",".",".","0","0","2009"
"22","22","retrieval","old_object","302","BumperCar.jpg",".","3","0","0","2009"
"22","22","retrieval","old_object","303","Brush_Light.jpg",".","1","0","0","2009"
"22","22","retrieval","new_object","304","Boar.jpg",".",".","0","0","2009"
"22","22","retrieval","old_object","305","Mailbox_Community.jpg",".","3","0","0","2009"
"22","22","retrieval","new_object","306","TelescopeSpacecraft.jpg",".",".","0","0","2009"
"22","22","retrieval","new_object","307","Pouch_Red.jpg",".",".","0","0","2009"
"22","22","retrieval","new_object","308","Clamp_Screw.jpg",".",".","0","0","2009"
"22","22","retrieval","old_object","309","Toy_Truck.jpg",".","3","0","0","2009"
"22","22","retrieval","new_object","310","Glove_Baseball.jpg",".",".","0","0","2009"
"22","22","retrieval","old_object","311","Heelpad.jpg",".","1","0","0","2009"
"22","22","retrieval","new_object","312","HairBand.jpg",".",".","0","0","2009"
"22","22","retrieval","old_object","313","Bread_Melon.jpg",".","1","0","0","2009"
"22","22","retrieval","new_object","314","Lobster.jpg",".",".","0","0","2009"
"22","22","retrieval","new_object","315","BrainSagittal.jpg",".",".","0","0","2009"
"22","22","retrieval","old_object","316","Bread_Carrot.jpg",".","3","0","0","2009"
"22","22","retrieval","new_object","317","MortarPestle_WhiteMarble.jpg",".",".","0","0","2009"
"22","22","retrieval","old_object","318","Hubcap.jpg",".","1","0","0","2009"
"22","22","retrieval","old_object","319","Carabiner_Orange.jpg",".","3","0","0","2009"
"22","22","retrieval","old_object","320","SatelliteDish.jpg",".","1","0","0","2009"
"22","22","retrieval","new_object","321","Speakers_Theatre.jpg",".",".","0","0","2009"
"22","22","retrieval","old_object","322","TailLight.jpg",".","1","0","0","2009"
"22","22","retrieval","old_object","323","Bible.jpg",".","3","0","0","2009"
"22","22","retrieval","new_object","324","ColoringSet.jpg",".",".","0","0","2009"
"22","22","retrieval","old_object","325","Makeup_Compact.jpg",".","","0","0","2009"
"22","22","demographics_block","gender","1",".",".",".","female","1","21354"
"22","22","demographics_block","age","1",".",".",".","43","1","21354"
"22","22","demographics_block","education","1",".",".",".","16","1","21354"
"22","22","demographics_block","left_right_handed","2",".",".",".","Right","1","6886"
"22","22","demographics_block","raceoption1","2",".",".",".","","1","6886"
"22","22","demographics_block","raceoption2","2",".",".",".","","1","6886"
"22","22","demographics_block","raceoption3","2",".",".",".","","1","6886"
"22","22","demographics_block","raceoption4","2",".",".",".","","1","6886"
"22","22","demographics_block","raceoption5","2",".",".",".","","1","6886"
"22","22","demographics_block","raceoption6","2",".",".",".","5","1","6886"
"22","22","demographics_block","raceoption7","2",".",".",".","","1","6886"
"22","22","demographics_block","raceoption8","2",".",".",".","","1","6886"
"22","22","demographics_block","raceoption9","2",".",".",".","","1","6886"
"22","22","demographics_block","raceother","2",".",".",".","","1","6886"
"22","22","demographics_block","raceother","2",".",".",".","","1","6886"
"22","22","demographics_block","english_language","2",".",".",".","Yes","1","6886"
"22","22","demographics_block","other","2",".",".",".","","1","6886"
"22","22","demographics_block","eyesight","3",".",".",".","Yes","1","5139"
"22","22","demographics_block","colorblind","3",".",".",".","No","1","5139"
