"group","subject","blockcode","trialcode","trialnum","stimulus","encoding_condition","old_object_condition","response","correct","latency"
"23","23","encoding","encoding","1","E65.jpg","3",".","37","0","824"
"23","23","encoding","encoding","2","E18.jpg","3",".","37","0","642"
"23","23","encoding","encoding","3","F20.jpg","1",".","37","0","733"
"23","23","encoding","encoding","4","E54.jpg","3",".","37","0","495"
"23","23","encoding","encoding","5","E58.jpg","3",".","37","0","523"
"23","23","encoding","encoding","6","E18.jpg","3",".","37","0","476"
"23","23","encoding","encoding","7","E49.jpg","3",".","37","0","564"
"23","23","encoding","encoding","8","F68.jpg","1",".","37","0","565"
"23","23","encoding","encoding","9","E35.jpg","3",".","37","0","561"
"23","23","encoding","encoding","10","F41.jpg","1",".","37","0","563"
"23","23","encoding","encoding","11","E28.jpg","3",".","37","0","568"
"23","23","encoding","encoding","12","E16.jpg","3",".","37","0","567"
"23","23","encoding","encoding","13","E78.jpg","3",".","37","0","563"
"23","23","encoding","encoding","14","F16.jpg","1",".","36","0","531"
"23","23","encoding","encoding","15","E32.jpg","3",".","36","0","551"
"23","23","encoding","encoding","16","F28.jpg","1",".","37","0","595"
"23","23","encoding","encoding","17","E40.jpg","3",".","37","0","503"
"23","23","encoding","encoding","18","E45.jpg","3",".","37","0","478"
"23","23","encoding","encoding","19","E44.jpg","3",".","37","0","474"
"23","23","encoding","encoding","20","E3.jpg","3",".","37","0","507"
"23","23","encoding","encoding","21","E63.jpg","3",".","37","0","475"
"23","23","encoding","encoding","22","E55.jpg","3",".","37","0","524"
"23","23","encoding","encoding","23","E20.jpg","3",".","37","0","507"
"23","23","encoding","encoding","24","F4.jpg","1",".","37","0","518"
"23","23","encoding","encoding","25","E60.jpg","3",".","37","0","542"
"23","23","encoding","encoding","26","E1.jpg","3",".","37","0","527"
"23","23","encoding","encoding","27","F58.jpg","1",".","37","0","535"
"23","23","encoding","encoding","28","E70.jpg","3",".","37","0","566"
"23","23","encoding","encoding","29","E33.jpg","3",".","37","0","508"
"23","23","encoding","encoding","30","E37.jpg","3",".","37","0","571"
"23","23","encoding","encoding","31","E8.jpg","3",".","37","0","493"
"23","23","encoding","encoding","32","E32.jpg","3",".","36","0","516"
"23","23","encoding","encoding","33","E77.jpg","3",".","37","0","529"
"23","23","encoding","encoding","34","E42.jpg","3",".","37","0","529"
"23","23","encoding","encoding","35","E67.jpg","3",".","37","0","553"
"23","23","encoding","encoding","36","F48.jpg","1",".","37","0","587"
"23","23","encoding","encoding","37","E51.jpg","3",".","37","0","466"
"23","23","encoding","encoding","38","E30.jpg","3",".","37","0","398"
"23","23","encoding","encoding","39","F2.jpg","1",".","37","0","523"
"23","23","encoding","encoding","40","F77.jpg","1",".","37","0","519"
"23","23","encoding","encoding","41","E28.jpg","3",".","37","0","399"
"23","23","encoding","encoding","42","E10.jpg","3",".","37","0","402"
"23","23","encoding","encoding","43","E41.jpg","3",".","37","0","421"
"23","23","encoding","encoding","44","E28.jpg","3",".","37","0","400"
"23","23","encoding","encoding","45","E22.jpg","3",".","37","0","390"
"23","23","encoding","encoding","46","F43.jpg","1",".","37","0","402"
"23","23","encoding","encoding","47","F9.jpg","1",".","36","0","626"
"23","23","encoding","encoding","48","E29.jpg","3",".","37","0","366"
"23","23","encoding","encoding","49","F0.jpg","1",".","37","0","400"
"23","23","encoding","encoding","50","E18.jpg","3",".","37","0","376"
"23","23","encoding","encoding","51","E43.jpg","3",".","37","0","369"
"23","23","encoding","encoding","52","E23.jpg","3",".","37","0","344"
"23","23","encoding","encoding","53","E44.jpg","3",".","37","0","328"
"23","23","encoding","encoding","54","F44.jpg","1",".","37","0","350"
"23","23","encoding","encoding","55","F42.jpg","1",".","37","0","398"
"23","23","encoding","encoding","56","E48.jpg","3",".","37","0","393"
"23","23","encoding","encoding","57","E36.jpg","3",".","37","0","323"
"23","23","encoding","encoding","58","E27.jpg","3",".","36","0","458"
"23","23","encoding","encoding","59","F75.jpg","1",".","37","0","400"
"23","23","encoding","encoding","60","E77.jpg","3",".","37","0","320"
"23","23","encoding","encoding","61","F47.jpg","1",".","37","0","369"
"23","23","encoding","encoding","62","E14.jpg","3",".","37","0","438"
"23","23","encoding","encoding","63","E31.jpg","3",".","37","0","433"
"23","23","encoding","encoding","64","E57.jpg","3",".","37","0","448"
"23","23","encoding","encoding","65","E30.jpg","3",".","37","0","461"
"23","23","encoding","encoding","67","E73.jpg","3",".","37","0","361"
"23","23","encoding","encoding","68","E62.jpg","3",".","37","0","394"
"23","23","encoding","encoding","69","E34.jpg","3",".","37","0","402"
"23","23","encoding","encoding","70","E29.jpg","3",".","37","0","445"
"23","23","encoding","encoding","71","F25.jpg","1",".","37","0","438"
"23","23","encoding","encoding","72","E2.jpg","3",".","37","0","508"
"23","23","encoding","encoding","73","E0.jpg","3",".","37","0","540"
"23","23","encoding","encoding","74","F29.jpg","1",".","37","0","541"
"23","23","encoding","encoding","75","E57.jpg","3",".","37","0","520"
"23","23","encoding","encoding","76","E23.jpg","3",".","37","0","509"
"23","23","encoding","encoding","77","F37.jpg","1",".","37","0","468"
"23","23","encoding","encoding","78","E17.jpg","3",".","37","0","411"
"23","23","encoding","encoding","79","F60.jpg","1",".","37","0","418"
"23","23","encoding","encoding","80","E39.jpg","3",".","37","0","433"
"23","23","encoding","encoding","81","F32.jpg","1",".","37","0","400"
"23","23","encoding","encoding","82","E34.jpg","3",".","37","0","446"
"23","23","encoding","encoding","83","E39.jpg","3",".","37","0","374"
"23","23","encoding","encoding","84","F7.jpg","1",".","37","0","550"
"23","23","encoding","encoding","85","E49.jpg","3",".","37","0","494"
"23","23","encoding","encoding","86","E66.jpg","3",".","36","0","733"
"23","23","encoding","encoding","87","F10.jpg","1",".","37","0","517"
"23","23","encoding","encoding","88","F21.jpg","1",".","37","0","460"
"23","23","encoding","encoding","89","E15.jpg","3",".","37","0","551"
"23","23","encoding","encoding","90","E6.jpg","3",".","37","0","413"
"23","23","encoding","encoding","91","E9.jpg","3",".","37","0","445"
"23","23","encoding","encoding","92","E36.jpg","3",".","37","0","464"
"23","23","encoding","encoding","93","F38.jpg","1",".","37","0","471"
"23","23","encoding","encoding","94","E24.jpg","3",".","37","0","511"
"23","23","encoding","encoding","95","F11.jpg","1",".","37","0","542"
"23","23","encoding","encoding","96","E5.jpg","3",".","36","0","560"
"23","23","encoding","encoding","97","E30.jpg","3",".","37","0","484"
"23","23","encoding","encoding","98","E58.jpg","3",".","37","0","468"
"23","23","encoding","encoding","99","F5.jpg","1",".","37","0","741"
"23","23","encoding","encoding","100","E1.jpg","3",".","37","0","440"
"23","23","encoding","encoding","101","E68.jpg","3",".","36","0","650"
"23","23","encoding","encoding","102","E0.jpg","3",".","37","0","442"
"23","23","encoding","encoding","103","E71.jpg","3",".","37","0","392"
"23","23","encoding","encoding","104","E4.jpg","3",".","37","0","423"
"23","23","encoding","encoding","105","E25.jpg","3",".","37","0","374"
"23","23","encoding","encoding","106","F49.jpg","1",".","37","0","479"
"23","23","encoding","encoding","107","E2.jpg","3",".","37","0","441"
"23","23","encoding","encoding","108","E35.jpg","3",".","37","0","509"
"23","23","encoding","encoding","109","E36.jpg","3",".","37","0","484"
"23","23","encoding","encoding","110","E53.jpg","3",".","36","0","593"
"23","23","encoding","encoding","111","E51.jpg","3",".","37","0","377"
"23","23","encoding","encoding","112","E77.jpg","3",".","37","0","331"
"23","23","encoding","encoding","113","E19.jpg","3",".","37","0","418"
"23","23","encoding","encoding","114","F62.jpg","1",".","0","0","1000"
"23","23","encoding","encoding","115","E29.jpg","3",".","37","0","358"
"23","23","encoding","encoding","116","F40.jpg","1",".","37","0","415"
"23","23","encoding","encoding","117","E15.jpg","3",".","37","0","445"
"23","23","encoding","encoding","118","E27.jpg","3",".","36","0","480"
"23","23","encoding","encoding","119","E72.jpg","3",".","36","0","676"
"23","23","encoding","encoding","120","E47.jpg","3",".","37","0","368"
"23","23","encoding","encoding","121","E20.jpg","3",".","37","0","455"
"23","23","encoding","encoding","122","E42.jpg","3",".","37","0","442"
"23","23","encoding","encoding","123","E8.jpg","3",".","37","0","407"
"23","23","encoding","encoding","124","E14.jpg","3",".","37","0","509"
"23","23","encoding","encoding","125","F30.jpg","1",".","37","0","714"
"23","23","encoding","encoding","126","E74.jpg","3",".","37","0","391"
"23","23","encoding","encoding","127","F23.jpg","1",".","37","0","428"
"23","23","encoding","encoding","128","F63.jpg","1",".","37","0","444"
"23","23","encoding","encoding","129","E37.jpg","3",".","37","0","472"
"23","23","encoding","encoding","130","E7.jpg","3",".","36","0","779"
"23","23","encoding","encoding","131","E38.jpg","3",".","37","0","398"
"23","23","encoding","encoding","133","E78.jpg","3",".","37","0","481"
"23","23","encoding","encoding","134","E11.jpg","3",".","37","0","511"
"23","23","encoding","encoding","135","E5.jpg","3",".","36","0","524"
"23","23","encoding","encoding","136","E23.jpg","3",".","37","0","383"
"23","23","encoding","encoding","137","E32.jpg","3",".","36","0","516"
"23","23","encoding","encoding","138","E65.jpg","3",".","37","0","494"
"23","23","encoding","encoding","139","F69.jpg","1",".","37","0","623"
"23","23","encoding","encoding","140","E38.jpg","3",".","37","0","460"
"23","23","encoding","encoding","141","E71.jpg","3",".","37","0","453"
"23","23","encoding","encoding","142","E64.jpg","3",".","37","0","451"
"23","23","encoding","encoding","143","E9.jpg","3",".","37","0","426"
"23","23","encoding","encoding","144","F18.jpg","1",".","37","0","451"
"23","23","encoding","encoding","145","F59.jpg","1",".","37","0","375"
"23","23","encoding","encoding","146","E75.jpg","3",".","36","0","866"
"23","23","encoding","encoding","147","F13.jpg","1",".","37","0","373"
"23","23","encoding","encoding","148","E69.jpg","3",".","36","0","532"
"23","23","encoding","encoding","149","E24.jpg","3",".","37","0","481"
"23","23","encoding","encoding","150","E33.jpg","3",".","37","0","417"
"23","23","encoding","encoding","151","E56.jpg","3",".","37","0","428"
"23","23","encoding","encoding","152","E67.jpg","3",".","37","0","432"
"23","23","encoding","encoding","153","E25.jpg","3",".","37","0","453"
"23","23","encoding","encoding","154","E41.jpg","3",".","37","0","534"
"23","23","encoding","encoding","155","F27.jpg","1",".","37","0","512"
"23","23","encoding","encoding","156","F33.jpg","1",".","37","0","567"
"23","23","encoding","encoding","157","F15.jpg","1",".","37","0","560"
"23","23","encoding","encoding","158","F39.jpg","1",".","36","0","866"
"23","23","encoding","encoding","159","E46.jpg","3",".","37","0","346"
"23","23","encoding","encoding","160","E26.jpg","3",".","37","0","406"
"23","23","encoding","encoding","161","E40.jpg","3",".","37","0","399"
"23","23","encoding","encoding","162","E27.jpg","3",".","36","0","509"
"23","23","encoding","encoding","163","E72.jpg","3",".","36","0","538"
"23","23","encoding","encoding","164","F57.jpg","1",".","37","0","488"
"23","23","encoding","encoding","165","E6.jpg","3",".","37","0","404"
"23","23","encoding","encoding","166","E62.jpg","3",".","37","0","351"
"23","23","encoding","encoding","167","E31.jpg","3",".","37","0","483"
"23","23","encoding","encoding","168","F71.jpg","1",".","37","0","408"
"23","23","encoding","encoding","169","E52.jpg","3",".","36","0","642"
"23","23","encoding","encoding","170","E10.jpg","3",".","37","0","391"
"23","23","encoding","encoding","171","E66.jpg","3",".","36","0","516"
"23","23","encoding","encoding","172","E12.jpg","3",".","37","0","391"
"23","23","encoding","encoding","173","E55.jpg","3",".","37","0","416"
"23","23","encoding","encoding","174","E50.jpg","3",".","37","0","407"
"23","23","encoding","encoding","175","E11.jpg","3",".","37","0","385"
"23","23","encoding","encoding","176","F74.jpg","1",".","37","0","397"
"23","23","encoding","encoding","177","E3.jpg","3",".","37","0","418"
"23","23","encoding","encoding","178","E47.jpg","3",".","37","0","430"
"23","23","encoding","encoding","179","E21.jpg","3",".","37","0","489"
"23","23","encoding","encoding","180","E17.jpg","3",".","37","0","420"
"23","23","encoding","encoding","181","F50.jpg","1",".","37","0","449"
"23","23","encoding","encoding","182","E26.jpg","3",".","37","0","571"
"23","23","encoding","encoding","183","E66.jpg","3",".","36","0","514"
"23","23","encoding","encoding","184","F61.jpg","1",".","37","0","686"
"23","23","encoding","encoding","185","E20.jpg","3",".","37","0","518"
"23","23","encoding","encoding","186","E79.jpg","3",".","36","0","511"
"23","23","encoding","encoding","187","F51.jpg","1",".","36","0","598"
"23","23","encoding","encoding","188","E19.jpg","3",".","37","0","484"
"23","23","encoding","encoding","189","E75.jpg","3",".","36","0","571"
"23","23","encoding","encoding","190","E59.jpg","3",".","37","0","368"
"23","23","encoding","encoding","191","E26.jpg","3",".","37","0","431"
"23","23","encoding","encoding","192","E6.jpg","3",".","37","0","363"
"23","23","encoding","encoding","193","E51.jpg","3",".","37","0","437"
"23","23","encoding","encoding","194","E61.jpg","3",".","37","0","477"
"23","23","encoding","encoding","195","E14.jpg","3",".","37","0","438"
"23","23","encoding","encoding","196","E78.jpg","3",".","37","0","377"
"23","23","encoding","encoding","197","F55.jpg","1",".","37","0","651"
"23","23","encoding","encoding","199","E16.jpg","3",".","37","0","427"
"23","23","encoding","encoding","200","E62.jpg","3",".","37","0","495"
"23","23","encoding","encoding","201","F78.jpg","1",".","37","0","436"
"23","23","encoding","encoding","202","E3.jpg","3",".","37","0","447"
"23","23","encoding","encoding","203","F24.jpg","1",".","37","0","433"
"23","23","encoding","encoding","204","E22.jpg","3",".","37","0","396"
"23","23","encoding","encoding","205","E33.jpg","3",".","37","0","440"
"23","23","encoding","encoding","206","E13.jpg","3",".","36","0","641"
"23","23","encoding","encoding","207","F52.jpg","1",".","37","0","400"
"23","23","encoding","encoding","208","E35.jpg","3",".","37","0","404"
"23","23","encoding","encoding","209","E21.jpg","3",".","37","0","482"
"23","23","encoding","encoding","210","F73.jpg","1",".","37","0","592"
"23","23","encoding","encoding","211","E5.jpg","3",".","36","0","555"
"23","23","encoding","encoding","212","F56.jpg","1",".","37","0","921"
"23","23","encoding","encoding","213","E67.jpg","3",".","37","0","413"
"23","23","encoding","encoding","214","F3.jpg","1",".","37","0","473"
"23","23","encoding","encoding","215","E9.jpg","3",".","37","0","351"
"23","23","encoding","encoding","216","E49.jpg","3",".","37","0","443"
"23","23","encoding","encoding","217","E21.jpg","3",".","37","0","415"
"23","23","encoding","encoding","218","E63.jpg","3",".","37","0","549"
"23","23","encoding","encoding","219","E79.jpg","3",".","36","0","787"
"23","23","encoding","encoding","220","E2.jpg","3",".","37","0","497"
"23","23","encoding","encoding","221","E79.jpg","3",".","36","0","498"
"23","23","encoding","encoding","222","E65.jpg","3",".","37","0","564"
"23","23","encoding","encoding","223","E54.jpg","3",".","37","0","372"
"23","23","encoding","encoding","224","E53.jpg","3",".","36","0","601"
"23","23","encoding","encoding","225","E12.jpg","3",".","37","0","433"
"23","23","encoding","encoding","226","E13.jpg","3",".","37","0","919"
"23","23","encoding","encoding","227","F31.jpg","1",".","37","0","439"
"23","23","encoding","encoding","228","E57.jpg","3",".","37","0","417"
"23","23","encoding","encoding","229","E70.jpg","3",".","37","0","720"
"23","23","encoding","encoding","230","F53.jpg","1",".","37","0","348"
"23","23","encoding","encoding","231","E61.jpg","3",".","37","0","498"
"23","23","encoding","encoding","232","E55.jpg","3",".","37","0","348"
"23","23","encoding","encoding","233","E52.jpg","3",".","36","0","422"
"23","23","encoding","encoding","234","E74.jpg","3",".","37","0","318"
"23","23","encoding","encoding","235","E56.jpg","3",".","37","0","370"
"23","23","encoding","encoding","236","E34.jpg","3",".","37","0","388"
"23","23","encoding","encoding","237","E52.jpg","3",".","36","0","441"
"23","23","encoding","encoding","238","E46.jpg","3",".","37","0","349"
"23","23","encoding","encoding","239","E15.jpg","3",".","37","0","502"
"23","23","encoding","encoding","240","E47.jpg","3",".","37","0","351"
"23","23","encoding","encoding","241","E1.jpg","3",".","37","0","377"
"23","23","encoding","encoding","242","F65.jpg","1",".","37","0","382"
"23","23","encoding","encoding","243","F12.jpg","1",".","37","0","417"
"23","23","encoding","encoding","244","F6.jpg","1",".","37","0","369"
"23","23","encoding","encoding","245","F22.jpg","1",".","36","0","799"
"23","23","encoding","encoding","246","E75.jpg","3",".","36","0","465"
"23","23","encoding","encoding","247","E73.jpg","3",".","37","0","410"
"23","23","encoding","encoding","248","E43.jpg","3",".","37","0","407"
"23","23","encoding","encoding","249","E59.jpg","3",".","37","0","377"
"23","23","encoding","encoding","250","E16.jpg","3",".","37","0","443"
"23","23","encoding","encoding","251","E4.jpg","3",".","37","0","416"
"23","23","encoding","encoding","252","F76.jpg","1",".","37","0","369"
"23","23","encoding","encoding","253","F54.jpg","1",".","36","0","562"
"23","23","encoding","encoding","254","F45.jpg","1",".","37","0","428"
"23","23","encoding","encoding","255","F46.jpg","1",".","37","0","427"
"23","23","encoding","encoding","256","E0.jpg","3",".","37","0","474"
"23","23","encoding","encoding","257","E71.jpg","3",".","37","0","371"
"23","23","encoding","encoding","258","F8.jpg","1",".","37","0","797"
"23","23","encoding","encoding","259","E38.jpg","3",".","37","0","418"
"23","23","encoding","encoding","260","E64.jpg","3",".","37","0","384"
"23","23","encoding","encoding","261","F1.jpg","1",".","37","0","452"
"23","23","encoding","encoding","262","E76.jpg","3",".","37","0","485"
"23","23","encoding","encoding","263","F67.jpg","1",".","37","0","418"
"23","23","encoding","encoding","265","E8.jpg","3",".","37","0","424"
"23","23","encoding","encoding","266","E44.jpg","3",".","37","0","413"
"23","23","encoding","encoding","267","E7.jpg","3",".","36","0","506"
"23","23","encoding","encoding","268","E68.jpg","3",".","36","0","545"
"23","23","encoding","encoding","269","E48.jpg","3",".","37","0","449"
"23","23","encoding","encoding","270","E58.jpg","3",".","37","0","395"
"23","23","encoding","encoding","271","F26.jpg","1",".","37","0","385"
"23","23","encoding","encoding","272","E7.jpg","3",".","36","0","477"
"23","23","encoding","encoding","273","F19.jpg","1",".","36","0","569"
"23","23","encoding","encoding","274","E69.jpg","3",".","37","0","557"
"23","23","encoding","encoding","275","E43.jpg","3",".","37","0","414"
"23","23","encoding","encoding","276","E42.jpg","3",".","37","0","376"
"23","23","encoding","encoding","277","E59.jpg","3",".","37","0","407"
"23","23","encoding","encoding","278","E31.jpg","3",".","37","0","519"
"23","23","encoding","encoding","279","E74.jpg","3",".","37","0","396"
"23","23","encoding","encoding","280","F35.jpg","1",".","37","0","420"
"23","23","encoding","encoding","281","E13.jpg","3",".","36","0","591"
"23","23","encoding","encoding","282","F34.jpg","1",".","37","0","443"
"23","23","encoding","encoding","283","E70.jpg","3",".","37","0","635"
"23","23","encoding","encoding","284","F36.jpg","1",".","37","0","423"
"23","23","encoding","encoding","285","E4.jpg","3",".","37","0","511"
"23","23","encoding","encoding","286","E64.jpg","3",".","37","0","366"
"23","23","encoding","encoding","287","F70.jpg","1",".","36","0","660"
"23","23","encoding","encoding","288","E12.jpg","3",".","37","0","340"
"23","23","encoding","encoding","289","E68.jpg","3",".","36","0","518"
"23","23","encoding","encoding","290","E41.jpg","3",".","37","0","348"
"23","23","encoding","encoding","291","E11.jpg","3",".","37","0","358"
"23","23","encoding","encoding","292","E56.jpg","3",".","37","0","294"
"23","23","encoding","encoding","293","E53.jpg","3",".","36","0","688"
"23","23","encoding","encoding","294","E24.jpg","3",".","37","0","458"
"23","23","encoding","encoding","295","E22.jpg","3",".","37","0","551"
"23","23","encoding","encoding","296","F72.jpg","1",".","37","0","349"
"23","23","encoding","encoding","297","E17.jpg","3",".","37","0","357"
"23","23","encoding","encoding","298","E40.jpg","3",".","37","0","374"
"23","23","encoding","encoding","299","E25.jpg","3",".","37","0","476"
"23","23","encoding","encoding","300","E50.jpg","3",".","37","0","425"
"23","23","encoding","encoding","301","E19.jpg","3",".","37","0","289"
"23","23","encoding","encoding","302","E61.jpg","3",".","37","0","459"
"23","23","encoding","encoding","303","E39.jpg","3",".","37","0","305"
"23","23","encoding","encoding","304","E63.jpg","3",".","37","0","340"
"23","23","encoding","encoding","305","E60.jpg","3",".","37","0","365"
"23","23","encoding","encoding","306","E73.jpg","3",".","37","0","345"
"23","23","encoding","encoding","307","E72.jpg","3",".","37","0","450"
"23","23","encoding","encoding","308","E54.jpg","3",".","37","0","345"
"23","23","encoding","encoding","309","F64.jpg","1",".","37","0","289"
"23","23","encoding","encoding","310","F14.jpg","1",".","37","0","346"
"23","23","encoding","encoding","311","E46.jpg","3",".","37","0","316"
"23","23","encoding","encoding","312","F79.jpg","1",".","37","0","419"
"23","23","encoding","encoding","313","F17.jpg","1",".","37","0","481"
"23","23","encoding","encoding","314","E50.jpg","3",".","37","0","515"
"23","23","encoding","encoding","315","E48.jpg","3",".","37","0","439"
"23","23","encoding","encoding","316","E37.jpg","3",".","37","0","382"
"23","23","encoding","encoding","317","E76.jpg","3",".","37","0","416"
"23","23","encoding","encoding","318","E45.jpg","3",".","37","0","427"
"23","23","encoding","encoding","319","E10.jpg","3",".","37","0","385"
"23","23","encoding","encoding","320","E69.jpg","3",".","37","0","547"
"23","23","encoding","encoding","321","E76.jpg","3",".","37","0","414"
"23","23","encoding","encoding","322","E60.jpg","3",".","37","0","370"
"23","23","encoding","encoding","323","F66.jpg","1",".","37","0","359"
"23","23","encoding","encoding","324","E45.jpg","3",".","37","0","340"
"23","23","encoding","encoding","325","E65.jpg","",".","37","0","523"
"23","23","retrieval","new_object","1","G1.jpg",".",".","37","1","1144"
"23","23","retrieval","new_object","2","H13.jpg",".",".","37","1","808"
"23","23","retrieval","old_object","3","E64.jpg",".","3","36","1","714"
"23","23","retrieval","new_object","4","H26.jpg",".",".","37","1","542"
"23","23","retrieval","new_object","5","H18.jpg",".",".","37","1","780"
"23","23","retrieval","new_object","6","G30.jpg",".",".","37","1","694"
"23","23","retrieval","new_object","7","G26.jpg",".",".","37","1","680"
"23","23","retrieval","new_object","8","H33.jpg",".",".","37","1","732"
"23","23","retrieval","new_object","9","H57.jpg",".",".","37","1","642"
"23","23","retrieval","old_object","10","F49.jpg",".","1","37","0","665"
"23","23","retrieval","old_object","11","F69.jpg",".","1","36","1","622"
"23","23","retrieval","new_object","12","H68.jpg",".",".","37","1","601"
"23","23","retrieval","old_object","13","E41.jpg",".","3","36","1","681"
"23","23","retrieval","old_object","14","E37.jpg",".","3","36","1","563"
"23","23","retrieval","old_object","15","F70.jpg",".","1","36","1","530"
"23","23","retrieval","old_object","16","E4.jpg",".","3","36","1","705"
"23","23","retrieval","old_object","17","F32.jpg",".","1","37","0","855"
"23","23","retrieval","new_object","18","G66.jpg",".",".","37","1","737"
"23","23","retrieval","new_object","19","H15.jpg",".",".","37","1","885"
"23","23","retrieval","new_object","20","H32.jpg",".",".","37","1","786"
"23","23","retrieval","new_object","21","G10.jpg",".",".","37","1","700"
"23","23","retrieval","old_object","22","E21.jpg",".","3","36","1","821"
"23","23","retrieval","new_object","23","H31.jpg",".",".","37","1","810"
"23","23","retrieval","new_object","24","G46.jpg",".",".","37","1","733"
"23","23","retrieval","old_object","25","F40.jpg",".","1","36","1","1055"
"23","23","retrieval","new_object","26","G31.jpg",".",".","37","1","906"
"23","23","retrieval","old_object","27","E33.jpg",".","3","36","1","821"
"23","23","retrieval","old_object","28","F51.jpg",".","1","36","1","582"
"23","23","retrieval","new_object","29","H39.jpg",".",".","37","1","717"
"23","23","retrieval","new_object","30","H30.jpg",".",".","37","1","568"
"23","23","retrieval","new_object","31","G16.jpg",".",".","37","1","828"
"23","23","retrieval","new_object","32","H78.jpg",".",".","37","1","890"
"23","23","retrieval","new_object","33","G69.jpg",".",".","37","1","795"
"23","23","retrieval","new_object","34","H43.jpg",".",".","37","1","609"
"23","23","retrieval","new_object","35","H69.jpg",".",".","37","1","764"
"23","23","retrieval","new_object","36","G2.jpg",".",".","37","1","580"
"23","23","retrieval","new_object","37","H58.jpg",".",".","37","1","701"
"23","23","retrieval","old_object","38","F73.jpg",".","1","36","1","579"
"23","23","retrieval","new_object","39","G39.jpg",".",".","37","1","571"
"23","23","retrieval","old_object","40","F74.jpg",".","1","36","1","930"
"23","23","retrieval","old_object","41","F68.jpg",".","1","36","1","644"
"23","23","retrieval","new_object","42","H28.jpg",".",".","37","1","594"
"23","23","retrieval","old_object","43","F65.jpg",".","1","37","0","658"
"23","23","retrieval","old_object","44","F10.jpg",".","1","37","0","833"
"23","23","retrieval","new_object","45","H4.jpg",".",".","37","1","699"
"23","23","retrieval","old_object","46","E30.jpg",".","3","36","1","654"
"23","23","retrieval","old_object","47","E43.jpg",".","3","36","1","646"
"23","23","retrieval","old_object","48","F5.jpg",".","1","37","0","610"
"23","23","retrieval","new_object","49","G51.jpg",".",".","36","0","957"
"23","23","retrieval","new_object","50","H37.jpg",".",".","37","1","722"
"23","23","retrieval","old_object","51","E58.jpg",".","3","36","1","794"
"23","23","retrieval","new_object","52","G20.jpg",".",".","37","1","644"
"23","23","retrieval","old_object","53","E14.jpg",".","3","36","1","561"
"23","23","retrieval","new_object","54","H75.jpg",".",".","37","1","926"
"23","23","retrieval","old_object","55","E34.jpg",".","3","36","1","687"
"23","23","retrieval","old_object","56","F58.jpg",".","1","36","1","678"
"23","23","retrieval","old_object","57","E50.jpg",".","3","36","1","450"
"23","23","retrieval","new_object","58","G33.jpg",".",".","37","1","921"
"23","23","retrieval","new_object","59","G37.jpg",".",".","37","1","1054"
"23","23","retrieval","old_object","60","F46.jpg",".","1","37","0","1036"
"23","23","retrieval","new_object","61","G24.jpg",".",".","37","1","1266"
"23","23","retrieval","new_object","62","G18.jpg",".",".","37","1","696"
"23","23","retrieval","old_object","63","F15.jpg",".","1","36","1","794"
"23","23","retrieval","new_object","64","H11.jpg",".",".","37","1","636"
"23","23","retrieval","new_object","65","H22.jpg",".",".","37","1","651"
"23","23","retrieval","new_object","67","H12.jpg",".",".","37","1","681"
"23","23","retrieval","new_object","68","H70.jpg",".",".","37","1","979"
"23","23","retrieval","new_object","69","H76.jpg",".",".","37","1","647"
"23","23","retrieval","old_object","70","F79.jpg",".","1","36","1","1208"
"23","23","retrieval","old_object","71","F34.jpg",".","1","36","1","1142"
"23","23","retrieval","new_object","72","G41.jpg",".",".","37","1","856"
"23","23","retrieval","old_object","73","E13.jpg",".","3","36","1","697"
"23","23","retrieval","new_object","74","G78.jpg",".",".","37","1","657"
"23","23","retrieval","new_object","75","H3.jpg",".",".","37","1","818"
"23","23","retrieval","new_object","76","H42.jpg",".",".","37","1","701"
"23","23","retrieval","new_object","77","G64.jpg",".",".","37","1","753"
"23","23","retrieval","old_object","78","E78.jpg",".","3","36","1","956"
"23","23","retrieval","old_object","79","F13.jpg",".","1","36","1","1094"
"23","23","retrieval","new_object","80","H2.jpg",".",".","37","1","845"
"23","23","retrieval","old_object","81","E77.jpg",".","3","36","1","757"
"23","23","retrieval","new_object","82","H36.jpg",".",".","36","0","1184"
"23","23","retrieval","new_object","83","H60.jpg",".",".","37","1","893"
"23","23","retrieval","old_object","84","F37.jpg",".","1","36","1","765"
"23","23","retrieval","new_object","85","H23.jpg",".",".","37","1","620"
"23","23","retrieval","new_object","86","G54.jpg",".",".","37","1","609"
"23","23","retrieval","new_object","87","H6.jpg",".",".","37","1","475"
"23","23","retrieval","new_object","88","G7.jpg",".",".","37","1","567"
"23","23","retrieval","old_object","89","E39.jpg",".","3","36","1","967"
"23","23","retrieval","old_object","90","F67.jpg",".","1","36","1","894"
"23","23","retrieval","old_object","91","E63.jpg",".","3","36","1","587"
"23","23","retrieval","old_object","92","F19.jpg",".","1","36","1","757"
"23","23","retrieval","old_object","93","F50.jpg",".","1","37","0","1086"
"23","23","retrieval","old_object","94","F57.jpg",".","1","36","1","879"
"23","23","retrieval","new_object","95","G77.jpg",".",".","36","0","1271"
"23","23","retrieval","new_object","96","H17.jpg",".",".","37","1","864"
"23","23","retrieval","old_object","97","E66.jpg",".","3","36","1","858"
"23","23","retrieval","old_object","98","E1.jpg",".","3","36","1","745"
"23","23","retrieval","old_object","99","E22.jpg",".","3","36","1","660"
"23","23","retrieval","new_object","100","G50.jpg",".",".","37","1","1184"
"23","23","retrieval","new_object","101","G17.jpg",".",".","37","1","723"
"23","23","retrieval","new_object","102","G48.jpg",".",".","37","1","779"
"23","23","retrieval","old_object","103","F72.jpg",".","1","37","0","648"
"23","23","retrieval","new_object","104","G68.jpg",".",".","37","1","667"
"23","23","retrieval","new_object","105","G70.jpg",".",".","37","1","644"
"23","23","retrieval","new_object","106","H40.jpg",".",".","37","1","799"
"23","23","retrieval","old_object","107","F41.jpg",".","1","36","1","943"
"23","23","retrieval","old_object","108","E10.jpg",".","3","36","1","650"
"23","23","retrieval","new_object","109","H8.jpg",".",".","37","1","573"
"23","23","retrieval","new_object","110","H48.jpg",".",".","37","1","516"
"23","23","retrieval","old_object","111","F44.jpg",".","1","36","1","721"
"23","23","retrieval","new_object","112","G49.jpg",".",".","37","1","1053"
"23","23","retrieval","old_object","113","F78.jpg",".","1","37","0","1494"
"23","23","retrieval","new_object","114","H52.jpg",".",".","37","1","686"
"23","23","retrieval","new_object","115","H63.jpg",".",".","37","1","703"
"23","23","retrieval","new_object","116","G43.jpg",".",".","37","1","1082"
"23","23","retrieval","new_object","117","G12.jpg",".",".","37","1","680"
"23","23","retrieval","old_object","118","E73.jpg",".","3","37","0","1048"
"23","23","retrieval","new_object","119","H25.jpg",".",".","37","1","682"
"23","23","retrieval","old_object","120","F8.jpg",".","1","37","0","768"
"23","23","retrieval","old_object","121","F66.jpg",".","1","36","1","750"
"23","23","retrieval","old_object","122","F55.jpg",".","1","36","1","876"
"23","23","retrieval","new_object","123","H73.jpg",".",".","37","1","721"
"23","23","retrieval","new_object","124","G32.jpg",".",".","37","1","691"
"23","23","retrieval","old_object","125","E51.jpg",".","3","36","1","836"
"23","23","retrieval","old_object","126","F9.jpg",".","1","36","1","725"
"23","23","retrieval","new_object","127","G72.jpg",".",".","37","1","730"
"23","23","retrieval","old_object","128","E16.jpg",".","3","36","1","817"
"23","23","retrieval","old_object","129","F60.jpg",".","1","37","0","1029"
"23","23","retrieval","new_object","130","G25.jpg",".",".","0","0","2000"
"23","23","retrieval","new_object","131","H16.jpg",".",".","37","1","444"
"23","23","retrieval","new_object","133","H62.jpg",".",".","37","1","724"
"23","23","retrieval","new_object","134","G40.jpg",".",".","37","1","812"
"23","23","retrieval","new_object","135","H38.jpg",".",".","37","1","766"
"23","23","retrieval","old_object","136","F54.jpg",".","1","36","1","807"
"23","23","retrieval","old_object","137","E69.jpg",".","3","36","1","631"
"23","23","retrieval","old_object","138","F2.jpg",".","1","36","1","571"
"23","23","retrieval","old_object","139","E42.jpg",".","3","36","1","641"
"23","23","retrieval","new_object","140","G22.jpg",".",".","37","1","877"
"23","23","retrieval","new_object","141","G75.jpg",".",".","37","1","719"
"23","23","retrieval","old_object","142","E65.jpg",".","3","36","1","706"
"23","23","retrieval","old_object","143","F14.jpg",".","1","37","0","706"
"23","23","retrieval","old_object","144","F31.jpg",".","1","37","0","843"
"23","23","retrieval","old_object","145","E54.jpg",".","3","36","1","733"
"23","23","retrieval","new_object","146","G4.jpg",".",".","37","1","906"
"23","23","retrieval","new_object","147","H54.jpg",".",".","37","1","841"
"23","23","retrieval","old_object","148","E15.jpg",".","3","36","1","727"
"23","23","retrieval","old_object","149","E3.jpg",".","3","36","1","723"
"23","23","retrieval","new_object","150","G57.jpg",".",".","37","1","915"
"23","23","retrieval","old_object","151","E35.jpg",".","3","36","1","801"
"23","23","retrieval","new_object","152","H14.jpg",".",".","37","1","1038"
"23","23","retrieval","new_object","153","H65.jpg",".",".","37","1","733"
"23","23","retrieval","old_object","154","F36.jpg",".","1","37","0","940"
"23","23","retrieval","old_object","155","F4.jpg",".","1","36","1","821"
"23","23","retrieval","new_object","156","G74.jpg",".",".","36","0","1128"
"23","23","retrieval","old_object","157","F77.jpg",".","1","36","1","1228"
"23","23","retrieval","old_object","158","F53.jpg",".","1","36","1","890"
"23","23","retrieval","old_object","159","E57.jpg",".","3","36","1","601"
"23","23","retrieval","new_object","160","G27.jpg",".",".","37","1","748"
"23","23","retrieval","new_object","161","G45.jpg",".",".","37","1","673"
"23","23","retrieval","old_object","162","F1.jpg",".","1","36","1","855"
"23","23","retrieval","old_object","163","F71.jpg",".","1","36","1","1243"
"23","23","retrieval","old_object","164","E20.jpg",".","3","36","1","853"
"23","23","retrieval","new_object","165","H46.jpg",".",".","37","1","832"
"23","23","retrieval","old_object","166","E60.jpg",".","3","36","1","897"
"23","23","retrieval","old_object","167","E52.jpg",".","3","36","1","930"
"23","23","retrieval","new_object","168","G56.jpg",".",".","37","1","747"
"23","23","retrieval","old_object","169","F28.jpg",".","1","36","1","837"
"23","23","retrieval","old_object","170","E74.jpg",".","3","37","0","1284"
"23","23","retrieval","old_object","171","E29.jpg",".","3","37","0","779"
"23","23","retrieval","old_object","172","F6.jpg",".","1","37","0","1900"
"23","23","retrieval","old_object","173","F45.jpg",".","1","37","0","1260"
"23","23","retrieval","old_object","174","E44.jpg",".","3","36","1","806"
"23","23","retrieval","old_object","175","F63.jpg",".","1","36","1","964"
"23","23","retrieval","old_object","176","E23.jpg",".","3","36","1","635"
"23","23","retrieval","new_object","177","H67.jpg",".",".","37","1","738"
"23","23","retrieval","old_object","178","E28.jpg",".","3","36","1","897"
"23","23","retrieval","old_object","179","E46.jpg",".","3","36","1","929"
"23","23","retrieval","new_object","180","G44.jpg",".",".","37","1","785"
"23","23","retrieval","new_object","181","H29.jpg",".",".","37","1","635"
"23","23","retrieval","new_object","182","H47.jpg",".",".","37","1","713"
"23","23","retrieval","new_object","183","H41.jpg",".",".","37","1","710"
"23","23","retrieval","old_object","184","F35.jpg",".","1","37","0","1082"
"23","23","retrieval","old_object","185","F52.jpg",".","1","37","0","648"
"23","23","retrieval","old_object","186","F62.jpg",".","1","36","1","968"
"23","23","retrieval","new_object","187","G5.jpg",".",".","37","1","1003"
"23","23","retrieval","new_object","188","H71.jpg",".",".","37","1","737"
"23","23","retrieval","new_object","189","H77.jpg",".",".","37","1","746"
"23","23","retrieval","old_object","190","E71.jpg",".","3","36","1","764"
"23","23","retrieval","old_object","191","E26.jpg",".","3","36","1","1084"
"23","23","retrieval","new_object","192","H53.jpg",".",".","37","1","847"
"23","23","retrieval","new_object","193","G14.jpg",".",".","37","1","709"
"23","23","retrieval","new_object","194","H9.jpg",".",".","37","1","489"
"23","23","retrieval","old_object","195","E61.jpg",".","3","36","1","827"
"23","23","retrieval","old_object","196","E6.jpg",".","3","36","1","626"
"23","23","retrieval","new_object","197","G65.jpg",".",".","37","1","827"
"23","23","retrieval","old_object","199","E53.jpg",".","3","36","1","730"
"23","23","retrieval","new_object","200","G35.jpg",".",".","37","1","677"
"23","23","retrieval","new_object","201","G9.jpg",".",".","37","1","541"
"23","23","retrieval","old_object","202","E40.jpg",".","3","37","0","512"
"23","23","retrieval","old_object","203","F3.jpg",".","1","36","1","971"
"23","23","retrieval","new_object","204","G55.jpg",".",".","37","1","726"
"23","23","retrieval","new_object","205","G58.jpg",".",".","37","1","717"
"23","23","retrieval","old_object","206","E2.jpg",".","3","36","1","1051"
"23","23","retrieval","new_object","207","H74.jpg",".",".","37","1","929"
"23","23","retrieval","new_object","208","G34.jpg",".",".","37","1","1946"
"23","23","retrieval","old_object","209","F12.jpg",".","1","36","1","1077"
"23","23","retrieval","old_object","210","E36.jpg",".","3","37","0","860"
"23","23","retrieval","old_object","211","E49.jpg",".","3","36","1","787"
"23","23","retrieval","old_object","212","E27.jpg",".","3","36","1","785"
"23","23","retrieval","new_object","213","H27.jpg",".",".","37","1","798"
"23","23","retrieval","new_object","214","G59.jpg",".",".","36","0","1191"
"23","23","retrieval","old_object","215","F27.jpg",".","1","36","1","723"
"23","23","retrieval","new_object","216","G63.jpg",".",".","37","1","878"
"23","23","retrieval","old_object","217","F29.jpg",".","1","36","1","904"
"23","23","retrieval","old_object","218","E47.jpg",".","3","36","1","694"
"23","23","retrieval","old_object","219","F17.jpg",".","1","37","0","894"
"23","23","retrieval","old_object","220","E79.jpg",".","3","36","1","832"
"23","23","retrieval","old_object","221","E5.jpg",".","3","36","1","528"
"23","23","retrieval","new_object","222","H61.jpg",".",".","37","1","942"
"23","23","retrieval","new_object","223","G60.jpg",".",".","37","1","701"
"23","23","retrieval","new_object","224","G21.jpg",".",".","37","1","804"
"23","23","retrieval","new_object","225","G3.jpg",".",".","37","1","581"
"23","23","retrieval","new_object","226","G15.jpg",".",".","37","1","707"
"23","23","retrieval","new_object","227","G0.jpg",".",".","37","1","611"
"23","23","retrieval","new_object","228","G76.jpg",".",".","37","1","921"
"23","23","retrieval","old_object","229","F20.jpg",".","1","36","1","1194"
"23","23","retrieval","new_object","230","H64.jpg",".",".","37","1","842"
"23","23","retrieval","old_object","231","F43.jpg",".","1","37","0","1056"
"23","23","retrieval","old_object","232","F0.jpg",".","1","36","1","1050"
"23","23","retrieval","old_object","233","E12.jpg",".","3","36","1","675"
"23","23","retrieval","old_object","234","F76.jpg",".","1","37","0","1227"
"23","23","retrieval","old_object","235","E70.jpg",".","3","36","1","1744"
"23","23","retrieval","old_object","236","E19.jpg",".","3","36","1","1720"
"23","23","retrieval","new_object","237","G19.jpg",".",".","36","0","1187"
"23","23","retrieval","new_object","238","G8.jpg",".",".","37","1","763"
"23","23","retrieval","new_object","239","H66.jpg",".",".","37","1","809"
"23","23","retrieval","new_object","240","H35.jpg",".",".","37","1","818"
"23","23","retrieval","old_object","241","E59.jpg",".","3","36","1","826"
"23","23","retrieval","new_object","242","H55.jpg",".",".","37","1","632"
"23","23","retrieval","new_object","243","G52.jpg",".",".","37","1","728"
"23","23","retrieval","old_object","244","F39.jpg",".","1","36","1","809"
"23","23","retrieval","new_object","245","G53.jpg",".",".","37","1","789"
"23","23","retrieval","new_object","246","H49.jpg",".",".","37","1","698"
"23","23","retrieval","old_object","247","E25.jpg",".","3","36","1","743"
"23","23","retrieval","old_object","248","E38.jpg",".","3","37","0","1742"
"23","23","retrieval","old_object","249","F47.jpg",".","1","37","0","671"
"23","23","retrieval","new_object","250","H5.jpg",".",".","37","1","690"
"23","23","retrieval","old_object","251","E45.jpg",".","3","36","1","804"
"23","23","retrieval","old_object","252","E24.jpg",".","3","36","1","561"
"23","23","retrieval","old_object","253","E48.jpg",".","3","36","1","701"
"23","23","retrieval","new_object","254","H20.jpg",".",".","37","1","733"
"23","23","retrieval","old_object","255","E67.jpg",".","3","36","1","862"
"23","23","retrieval","new_object","256","H79.jpg",".",".","37","1","890"
"23","23","retrieval","new_object","257","G11.jpg",".",".","37","1","749"
"23","23","retrieval","old_object","258","F24.jpg",".","1","36","1","1263"
"23","23","retrieval","old_object","259","F33.jpg",".","1","36","1","730"
"23","23","retrieval","new_object","260","H0.jpg",".",".","37","1","821"
"23","23","retrieval","new_object","261","G36.jpg",".",".","37","1","709"
"23","23","retrieval","old_object","262","E68.jpg",".","3","36","1","710"
"23","23","retrieval","old_object","263","F56.jpg",".","1","36","1","740"
"23","23","retrieval","new_object","265","G61.jpg",".",".","37","1","793"
"23","23","retrieval","old_object","266","F48.jpg",".","1","36","1","979"
"23","23","retrieval","new_object","267","H21.jpg",".",".","37","1","1187"
"23","23","retrieval","new_object","268","G29.jpg",".",".","37","1","1123"
"23","23","retrieval","new_object","269","G67.jpg",".",".","37","1","811"
"23","23","retrieval","old_object","270","F23.jpg",".","1","37","0","1448"
"23","23","retrieval","new_object","271","G73.jpg",".",".","37","1","729"
"23","23","retrieval","old_object","272","E76.jpg",".","3","36","1","957"
"23","23","retrieval","new_object","273","G42.jpg",".",".","37","1","1065"
"23","23","retrieval","new_object","274","H72.jpg",".",".","37","1","767"
"23","23","retrieval","old_object","275","E9.jpg",".","3","36","1","869"
"23","23","retrieval","old_object","276","E18.jpg",".","3","36","1","679"
"23","23","retrieval","old_object","277","E17.jpg",".","3","36","1","589"
"23","23","retrieval","new_object","278","G23.jpg",".",".","37","1","665"
"23","23","retrieval","new_object","279","H24.jpg",".",".","37","1","730"
"23","23","retrieval","old_object","280","E55.jpg",".","3","36","1","756"
"23","23","retrieval","old_object","281","E32.jpg",".","3","36","1","522"
"23","23","retrieval","old_object","282","F75.jpg",".","1","37","0","1188"
"23","23","retrieval","new_object","283","G13.jpg",".",".","37","1","710"
"23","23","retrieval","new_object","284","H59.jpg",".",".","37","1","721"
"23","23","retrieval","old_object","285","F59.jpg",".","1","37","0","606"
"23","23","retrieval","old_object","286","F26.jpg",".","1","37","0","743"
"23","23","retrieval","new_object","287","H56.jpg",".",".","37","1","768"
"23","23","retrieval","old_object","288","F7.jpg",".","1","36","1","1119"
"23","23","retrieval","old_object","289","E7.jpg",".","3","36","1","630"
"23","23","retrieval","old_object","290","F21.jpg",".","1","37","0","1257"
"23","23","retrieval","new_object","291","H19.jpg",".",".","37","1","781"
"23","23","retrieval","old_object","292","F61.jpg",".","1","36","1","1162"
"23","23","retrieval","new_object","293","H50.jpg",".",".","37","1","751"
"23","23","retrieval","old_object","294","F42.jpg",".","1","36","1","1495"
"23","23","retrieval","old_object","295","E31.jpg",".","3","36","1","765"
"23","23","retrieval","old_object","296","E75.jpg",".","3","36","1","758"
"23","23","retrieval","old_object","297","F18.jpg",".","1","36","1","633"
"23","23","retrieval","old_object","298","E72.jpg",".","3","36","1","687"
"23","23","retrieval","old_object","299","E56.jpg",".","3","37","0","834"
"23","23","retrieval","old_object","300","F30.jpg",".","1","37","0","1146"
"23","23","retrieval","new_object","301","H51.jpg",".",".","37","1","850"
"23","23","retrieval","new_object","302","G79.jpg",".",".","37","1","874"
"23","23","retrieval","new_object","303","G28.jpg",".",".","37","1","905"
"23","23","retrieval","new_object","304","H44.jpg",".",".","37","1","763"
"23","23","retrieval","old_object","305","F11.jpg",".","1","36","1","1299"
"23","23","retrieval","new_object","306","H45.jpg",".",".","37","1","715"
"23","23","retrieval","new_object","307","H1.jpg",".",".","37","1","805"
"23","23","retrieval","old_object","308","F25.jpg",".","1","36","1","895"
"23","23","retrieval","old_object","309","E62.jpg",".","3","36","1","704"
"23","23","retrieval","new_object","310","G47.jpg",".",".","37","1","789"
"23","23","retrieval","old_object","311","E0.jpg",".","3","36","1","814"
"23","23","retrieval","new_object","312","G6.jpg",".",".","37","1","841"
"23","23","retrieval","old_object","313","E8.jpg",".","3","36","1","708"
"23","23","retrieval","old_object","314","F64.jpg",".","1","37","0","887"
"23","23","retrieval","old_object","315","F38.jpg",".","1","36","1","726"
"23","23","retrieval","new_object","316","G62.jpg",".",".","37","1","733"
"23","23","retrieval","new_object","317","H34.jpg",".",".","37","1","733"
"23","23","retrieval","new_object","318","G71.jpg",".",".","37","1","652"
"23","23","retrieval","new_object","319","G38.jpg",".",".","37","1","837"
"23","23","retrieval","old_object","320","E11.jpg",".","3","36","1","866"
"23","23","retrieval","old_object","321","F22.jpg",".","1","36","1","1091"
"23","23","retrieval","new_object","322","H7.jpg",".",".","37","1","684"
"23","23","retrieval","new_object","323","H10.jpg",".",".","37","1","966"
"23","23","retrieval","old_object","324","F16.jpg",".","1","36","1","742"
"23","23","retrieval","old_object","325","E64.jpg",".","","36","1","848"
"23","23","demographics_block","gender","1",".",".",".","female","1","18488"
"23","23","demographics_block","age","1",".",".",".","40","1","18488"
"23","23","demographics_block","education","1",".",".",".","college","1","18488"
"23","23","demographics_block","left_right_handed","2",".",".",".","Right","1","9133"
"23","23","demographics_block","raceoption1","2",".",".",".","","1","9133"
"23","23","demographics_block","raceoption2","2",".",".",".","","1","9133"
"23","23","demographics_block","raceoption3","2",".",".",".","","1","9133"
"23","23","demographics_block","raceoption4","2",".",".",".","","1","9133"
"23","23","demographics_block","raceoption5","2",".",".",".","","1","9133"
"23","23","demographics_block","raceoption6","2",".",".",".","","1","9133"
"23","23","demographics_block","raceoption7","2",".",".",".","6","1","9133"
"23","23","demographics_block","raceoption8","2",".",".",".","","1","9133"
"23","23","demographics_block","raceoption9","2",".",".",".","","1","9133"
"23","23","demographics_block","raceother","2",".",".",".","","1","9133"
"23","23","demographics_block","raceother","2",".",".",".","","1","9133"
"23","23","demographics_block","english_language","2",".",".",".","Yes","1","9133"
"23","23","demographics_block","other","2",".",".",".","","1","9133"
"23","23","demographics_block","eyesight","3",".",".",".","Yes","1","9514"
"23","23","demographics_block","colorblind","3",".",".",".","No","1","9514"
"25","25","encoding","encoding","1","E65.jpg","3",".","0","0","1000"
"25","25","encoding","encoding","2","E18.jpg","3",".","37","0","807"
"25","25","encoding","encoding","3","F20.jpg","1",".","0","0","1000"
"25","25","encoding","encoding","4","E54.jpg","3",".","37","0","167"
"25","25","encoding","encoding","5","E58.jpg","3",".","0","0","1000"
"25","25","encoding","encoding","6","E18.jpg","3",".","37","0","972"
"25","25","encoding","encoding","7","E49.jpg","3",".","0","0","1000"
"25","25","encoding","encoding","8","F68.jpg","1",".","0","0","1000"
"25","25","encoding","encoding","9","E35.jpg","3",".","0","0","1000"
"25","25","encoding","encoding","10","F41.jpg","1",".","0","0","1000"
"25","25","encoding","encoding","11","E28.jpg","3",".","37","0","895"
"25","25","encoding","encoding","12","E16.jpg","3",".","0","0","1000"
"25","25","encoding","encoding","13","E78.jpg","3",".","0","0","1000"
"25","25","encoding","encoding","14","F16.jpg","1",".","37","0","14"
"25","25","encoding","encoding","15","E32.jpg","3",".","0","0","1000"
"25","25","encoding","encoding","16","F28.jpg","1",".","0","0","1000"
"25","25","encoding","encoding","17","E40.jpg","3",".","0","0","1000"
"25","25","encoding","encoding","18","E45.jpg","3",".","0","0","1000"
"25","25","encoding","encoding","19","E44.jpg","3",".","0","0","1000"
"25","25","encoding","encoding","20","E3.jpg","3",".","0","0","1000"
"25","25","encoding","encoding","21","E63.jpg","3",".","0","0","1000"
"25","25","encoding","encoding","22","E55.jpg","3",".","0","0","1000"
"25","25","encoding","encoding","23","E20.jpg","3",".","0","0","1000"
"25","25","encoding","encoding","24","F4.jpg","1",".","0","0","1000"
"25","25","encoding","encoding","25","E60.jpg","3",".","0","0","1000"
"25","25","encoding","encoding","26","E1.jpg","3",".","0","0","1000"
"25","25","encoding","encoding","27","F58.jpg","1",".","0","0","1000"
"25","25","encoding","encoding","28","E70.jpg","3",".","0","0","1000"
"25","25","encoding","encoding","29","E33.jpg","3",".","0","0","1000"
"25","25","encoding","encoding","30","E37.jpg","3",".","37","0","108"
"25","25","encoding","encoding","31","E8.jpg","3",".","37","0","969"
"25","25","encoding","encoding","32","E32.jpg","3",".","0","0","1000"
"25","25","encoding","encoding","33","E77.jpg","3",".","37","0","966"
"25","25","encoding","encoding","34","E42.jpg","3",".","0","0","1000"
"25","25","encoding","encoding","35","E67.jpg","3",".","0","0","1000"
"25","25","encoding","encoding","36","F48.jpg","1",".","0","0","1000"
"25","25","encoding","encoding","37","E51.jpg","3",".","37","0","921"
"25","25","encoding","encoding","38","E30.jpg","3",".","0","0","1000"
"25","25","encoding","encoding","39","F2.jpg","1",".","37","0","806"
"25","25","encoding","encoding","40","F77.jpg","1",".","37","0","952"
"25","25","encoding","encoding","41","E28.jpg","3",".","37","0","697"
"25","25","encoding","encoding","42","E10.jpg","3",".","37","0","974"
"25","25","encoding","encoding","43","E41.jpg","3",".","37","0","859"
"25","25","encoding","encoding","44","E28.jpg","3",".","37","0","890"
"25","25","encoding","encoding","45","E22.jpg","3",".","37","0","817"
"25","25","encoding","encoding","46","F43.jpg","1",".","37","0","896"
"25","25","encoding","encoding","47","F9.jpg","1",".","0","0","1000"
"25","25","encoding","encoding","48","E29.jpg","3",".","0","0","1000"
"25","25","encoding","encoding","49","F0.jpg","1",".","37","0","910"
"25","25","encoding","encoding","50","E18.jpg","3",".","37","0","761"
"25","25","encoding","encoding","51","E43.jpg","3",".","37","0","892"
"25","25","encoding","encoding","52","E23.jpg","3",".","37","0","894"
"25","25","encoding","encoding","53","E44.jpg","3",".","37","0","971"
"25","25","encoding","encoding","54","F44.jpg","1",".","0","0","1000"
"25","25","encoding","encoding","55","F42.jpg","1",".","37","0","949"
"25","25","encoding","encoding","56","E48.jpg","3",".","37","0","936"
"25","25","encoding","encoding","57","E36.jpg","3",".","0","0","1000"
"25","25","encoding","encoding","58","E27.jpg","3",".","0","0","1000"
"25","25","encoding","encoding","59","F75.jpg","1",".","37","0","821"
"25","25","encoding","encoding","60","E77.jpg","3",".","0","0","1000"
"25","25","encoding","encoding","61","F47.jpg","1",".","0","0","1000"
"25","25","encoding","encoding","62","E14.jpg","3",".","37","0","959"
"25","25","encoding","encoding","63","E31.jpg","3",".","0","0","1000"
"25","25","encoding","encoding","64","E57.jpg","3",".","0","0","1000"
"25","25","encoding","encoding","65","E30.jpg","3",".","37","0","871"
"25","25","encoding","encoding","67","E73.jpg","3",".","0","0","1000"
"25","25","encoding","encoding","68","E62.jpg","3",".","0","0","1000"
"25","25","encoding","encoding","69","E34.jpg","3",".","37","0","868"
"25","25","encoding","encoding","70","E29.jpg","3",".","37","0","798"
"25","25","encoding","encoding","71","F25.jpg","1",".","37","0","880"
"25","25","encoding","encoding","72","E2.jpg","3",".","0","0","1000"
"25","25","encoding","encoding","73","E0.jpg","3",".","37","0","833"
"25","25","encoding","encoding","74","F29.jpg","1",".","37","0","883"
"25","25","encoding","encoding","75","E57.jpg","3",".","0","0","1000"
"25","25","encoding","encoding","76","E23.jpg","3",".","37","0","934"
"25","25","encoding","encoding","77","F37.jpg","1",".","0","0","1000"
"25","25","encoding","encoding","78","E17.jpg","3",".","0","0","1000"
"25","25","encoding","encoding","79","F60.jpg","1",".","0","0","1000"
"25","25","encoding","encoding","80","E39.jpg","3",".","37","0","871"
"25","25","encoding","encoding","81","F32.jpg","1",".","0","0","1000"
"25","25","encoding","encoding","82","E34.jpg","3",".","37","0","881"
"25","25","encoding","encoding","83","E39.jpg","3",".","37","0","824"
"25","25","encoding","encoding","84","F7.jpg","1",".","0","0","1000"
"25","25","encoding","encoding","85","E49.jpg","3",".","37","0","849"
"25","25","encoding","encoding","86","E66.jpg","3",".","0","0","1000"
"25","25","encoding","encoding","87","F10.jpg","1",".","37","0","926"
"25","25","encoding","encoding","88","F21.jpg","1",".","0","0","1000"
"25","25","encoding","encoding","89","E15.jpg","3",".","37","0","866"
"25","25","encoding","encoding","90","E6.jpg","3",".","37","0","778"
"25","25","encoding","encoding","91","E9.jpg","3",".","37","0","853"
"25","25","encoding","encoding","92","E36.jpg","3",".","37","0","697"
"25","25","encoding","encoding","93","F38.jpg","1",".","0","0","1000"
"25","25","encoding","encoding","94","E24.jpg","3",".","37","0","851"
"25","25","encoding","encoding","95","F11.jpg","1",".","0","0","1000"
"25","25","encoding","encoding","96","E5.jpg","3",".","36","0","904"
"25","25","encoding","encoding","97","E30.jpg","3",".","37","0","835"
"25","25","encoding","encoding","98","E58.jpg","3",".","37","0","851"
"25","25","encoding","encoding","99","F5.jpg","1",".","0","0","1000"
"25","25","encoding","encoding","100","E1.jpg","3",".","37","0","845"
"25","25","encoding","encoding","101","E68.jpg","3",".","37","0","829"
"25","25","encoding","encoding","102","E0.jpg","3",".","37","0","869"
"25","25","encoding","encoding","103","E71.jpg","3",".","37","0","977"
"25","25","encoding","encoding","104","E4.jpg","3",".","0","0","1000"
"25","25","encoding","encoding","105","E25.jpg","3",".","0","0","1000"
"25","25","encoding","encoding","106","F49.jpg","1",".","0","0","1000"
"25","25","encoding","encoding","107","E2.jpg","3",".","0","0","1000"
"25","25","encoding","encoding","108","E35.jpg","3",".","0","0","1000"
"25","25","encoding","encoding","109","E36.jpg","3",".","37","0","908"
"25","25","encoding","encoding","110","E53.jpg","3",".","0","0","1000"
"25","25","encoding","encoding","111","E51.jpg","3",".","37","0","885"
"25","25","encoding","encoding","112","E77.jpg","3",".","37","0","830"
"25","25","encoding","encoding","113","E19.jpg","3",".","0","0","1000"
"25","25","encoding","encoding","114","F62.jpg","1",".","0","0","1000"
"25","25","encoding","encoding","115","E29.jpg","3",".","0","0","1000"
"25","25","encoding","encoding","116","F40.jpg","1",".","0","0","1000"
"25","25","encoding","encoding","117","E15.jpg","3",".","0","0","1000"
"25","25","encoding","encoding","118","E27.jpg","3",".","36","0","894"
"25","25","encoding","encoding","119","E72.jpg","3",".","0","0","1000"
"25","25","encoding","encoding","120","E47.jpg","3",".","0","0","1000"
"25","25","encoding","encoding","121","E20.jpg","3",".","0","0","1000"
"25","25","encoding","encoding","122","E42.jpg","3",".","37","0","828"
"25","25","encoding","encoding","123","E8.jpg","3",".","37","0","873"
"25","25","encoding","encoding","124","E14.jpg","3",".","37","0","656"
"25","25","encoding","encoding","125","F30.jpg","1",".","0","0","1000"
"25","25","encoding","encoding","126","E74.jpg","3",".","37","0","787"
"25","25","encoding","encoding","127","F23.jpg","1",".","0","0","1000"
"25","25","encoding","encoding","128","F63.jpg","1",".","0","0","1000"
"25","25","encoding","encoding","129","E37.jpg","3",".","0","0","1000"
"25","25","encoding","encoding","130","E7.jpg","3",".","37","0","864"
"25","25","encoding","encoding","131","E38.jpg","3",".","0","0","1000"
"25","25","encoding","encoding","133","E78.jpg","3",".","0","0","1000"
"25","25","encoding","encoding","134","E11.jpg","3",".","0","0","1000"
"25","25","encoding","encoding","135","E5.jpg","3",".","0","0","1000"
"25","25","encoding","encoding","136","E23.jpg","3",".","0","0","1000"
"25","25","encoding","encoding","137","E32.jpg","3",".","0","0","1000"
"25","25","encoding","encoding","138","E65.jpg","3",".","0","0","1000"
"25","25","encoding","encoding","139","F69.jpg","1",".","0","0","1000"
"25","25","encoding","encoding","140","E38.jpg","3",".","37","0","909"
"25","25","encoding","encoding","141","E71.jpg","3",".","37","0","875"
"25","25","encoding","encoding","142","E64.jpg","3",".","0","0","1000"
"25","25","encoding","encoding","143","E9.jpg","3",".","37","0","870"
"25","25","encoding","encoding","144","F18.jpg","1",".","37","0","864"
"25","25","encoding","encoding","145","F59.jpg","1",".","37","0","783"
"25","25","encoding","encoding","146","E75.jpg","3",".","0","0","1000"
"25","25","encoding","encoding","147","F13.jpg","1",".","37","0","956"
"25","25","encoding","encoding","148","E69.jpg","3",".","37","0","947"
"25","25","encoding","encoding","149","E24.jpg","3",".","37","0","849"
"25","25","encoding","encoding","150","E33.jpg","3",".","0","0","1000"
"25","25","encoding","encoding","151","E56.jpg","3",".","0","0","1000"
"25","25","encoding","encoding","152","E67.jpg","3",".","37","0","910"
"25","25","encoding","encoding","153","E25.jpg","3",".","37","0","828"
"25","25","encoding","encoding","154","E41.jpg","3",".","0","0","1000"
"25","25","encoding","encoding","155","F27.jpg","1",".","37","0","930"
"25","25","encoding","encoding","156","F33.jpg","1",".","0","0","1000"
"25","25","encoding","encoding","157","F15.jpg","1",".","0","0","1000"
"25","25","encoding","encoding","158","F39.jpg","1",".","0","0","1000"
"25","25","encoding","encoding","159","E46.jpg","3",".","37","0","821"
"25","25","encoding","encoding","160","E26.jpg","3",".","0","0","1000"
"25","25","encoding","encoding","161","E40.jpg","3",".","37","0","901"
"25","25","encoding","encoding","162","E27.jpg","3",".","36","0","968"
"25","25","encoding","encoding","163","E72.jpg","3",".","0","0","1000"
"25","25","encoding","encoding","164","F57.jpg","1",".","0","0","1000"
"25","25","encoding","encoding","165","E6.jpg","3",".","37","0","929"
"25","25","encoding","encoding","166","E62.jpg","3",".","37","0","833"
"25","25","encoding","encoding","167","E31.jpg","3",".","0","0","1000"
"25","25","encoding","encoding","168","F71.jpg","1",".","37","0","736"
"25","25","encoding","encoding","169","E52.jpg","3",".","0","0","1000"
"25","25","encoding","encoding","170","E10.jpg","3",".","36","0","47"
"25","25","encoding","encoding","171","E66.jpg","3",".","0","0","1000"
"25","25","encoding","encoding","172","E12.jpg","3",".","0","0","1000"
"25","25","encoding","encoding","173","E55.jpg","3",".","37","0","782"
"25","25","encoding","encoding","174","E50.jpg","3",".","37","0","890"
"25","25","encoding","encoding","175","E11.jpg","3",".","0","0","1000"
"25","25","encoding","encoding","176","F74.jpg","1",".","0","0","1000"
"25","25","encoding","encoding","177","E3.jpg","3",".","37","0","957"
"25","25","encoding","encoding","178","E47.jpg","3",".","37","0","868"
"25","25","encoding","encoding","179","E21.jpg","3",".","37","0","703"
"25","25","encoding","encoding","180","E17.jpg","3",".","37","0","215"
"25","25","encoding","encoding","181","F50.jpg","1",".","0","0","1000"
"25","25","encoding","encoding","182","E26.jpg","3",".","0","0","1000"
"25","25","encoding","encoding","183","E66.jpg","3",".","37","0","10"
"25","25","encoding","encoding","184","F61.jpg","1",".","37","0","244"
"25","25","encoding","encoding","185","E20.jpg","3",".","37","0","899"
"25","25","encoding","encoding","186","E79.jpg","3",".","0","0","1000"
"25","25","encoding","encoding","187","F51.jpg","1",".","0","0","1000"
"25","25","encoding","encoding","188","E19.jpg","3",".","0","0","1000"
"25","25","encoding","encoding","189","E75.jpg","3",".","0","0","1000"
"25","25","encoding","encoding","190","E59.jpg","3",".","0","0","1000"
"25","25","encoding","encoding","191","E26.jpg","3",".","0","0","1000"
"25","25","encoding","encoding","192","E6.jpg","3",".","0","0","1000"
"25","25","encoding","encoding","193","E51.jpg","3",".","37","0","939"
"25","25","encoding","encoding","194","E61.jpg","3",".","0","0","1000"
"25","25","encoding","encoding","195","E14.jpg","3",".","0","0","1000"
"25","25","encoding","encoding","196","E78.jpg","3",".","37","0","956"
"25","25","encoding","encoding","197","F55.jpg","1",".","0","0","1000"
"25","25","encoding","encoding","199","E16.jpg","3",".","0","0","1000"
"25","25","encoding","encoding","200","E62.jpg","3",".","0","0","1000"
"25","25","encoding","encoding","201","F78.jpg","1",".","37","0","41"
"25","25","encoding","encoding","202","E3.jpg","3",".","0","0","1000"
"25","25","encoding","encoding","203","F24.jpg","1",".","0","0","1000"
"25","25","encoding","encoding","204","E22.jpg","3",".","0","0","1000"
"25","25","encoding","encoding","205","E33.jpg","3",".","0","0","1000"
"25","25","encoding","encoding","206","E13.jpg","3",".","0","0","1000"
"25","25","encoding","encoding","207","F52.jpg","1",".","36","0","45"
"25","25","encoding","encoding","208","E35.jpg","3",".","0","0","1000"
"25","25","encoding","encoding","209","E21.jpg","3",".","37","0","953"
"25","25","encoding","encoding","210","F73.jpg","1",".","37","0","919"
"25","25","encoding","encoding","211","E5.jpg","3",".","0","0","1000"
"25","25","encoding","encoding","212","F56.jpg","1",".","0","0","1000"
"25","25","encoding","encoding","213","E67.jpg","3",".","0","0","1000"
"25","25","encoding","encoding","214","F3.jpg","1",".","0","0","1000"
"25","25","encoding","encoding","215","E9.jpg","3",".","0","0","1000"
"25","25","encoding","encoding","216","E49.jpg","3",".","0","0","1000"
"25","25","encoding","encoding","217","E21.jpg","3",".","0","0","1000"
"25","25","encoding","encoding","218","E63.jpg","3",".","0","0","1000"
"25","25","encoding","encoding","219","E79.jpg","3",".","37","0","732"
"25","25","encoding","encoding","220","E2.jpg","3",".","0","0","1000"
"25","25","encoding","encoding","221","E79.jpg","3",".","0","0","1000"
"25","25","encoding","encoding","222","E65.jpg","3",".","0","0","1000"
"25","25","encoding","encoding","223","E54.jpg","3",".","37","0","890"
"25","25","encoding","encoding","224","E53.jpg","3",".","0","0","1000"
"25","25","encoding","encoding","225","E12.jpg","3",".","36","0","108"
"25","25","encoding","encoding","226","E13.jpg","3",".","0","0","1000"
"25","25","encoding","encoding","227","F31.jpg","1",".","0","0","1000"
"25","25","encoding","encoding","228","E57.jpg","3",".","0","0","1000"
"25","25","encoding","encoding","229","E70.jpg","3",".","0","0","1000"
"25","25","encoding","encoding","230","F53.jpg","1",".","0","0","1000"
"25","25","encoding","encoding","231","E61.jpg","3",".","37","0","876"
"25","25","encoding","encoding","232","E55.jpg","3",".","37","0","388"
"25","25","encoding","encoding","233","E52.jpg","3",".","0","0","1000"
"25","25","encoding","encoding","234","E74.jpg","3",".","0","0","1000"
"25","25","encoding","encoding","235","E56.jpg","3",".","37","0","217"
"25","25","encoding","encoding","236","E34.jpg","3",".","37","0","863"
"25","25","encoding","encoding","237","E52.jpg","3",".","0","0","1000"
"25","25","encoding","encoding","238","E46.jpg","3",".","0","0","1000"
"25","25","encoding","encoding","239","E15.jpg","3",".","0","0","1000"
"25","25","encoding","encoding","240","E47.jpg","3",".","0","0","1000"
"25","25","encoding","encoding","241","E1.jpg","3",".","37","0","266"
"25","25","encoding","encoding","242","F65.jpg","1",".","0","0","1000"
"25","25","encoding","encoding","243","F12.jpg","1",".","37","0","821"
"25","25","encoding","encoding","244","F6.jpg","1",".","37","0","195"
"25","25","encoding","encoding","245","F22.jpg","1",".","0","0","1000"
"25","25","encoding","encoding","246","E75.jpg","3",".","0","0","1000"
"25","25","encoding","encoding","247","E73.jpg","3",".","37","0","967"
"25","25","encoding","encoding","248","E43.jpg","3",".","0","0","1000"
"25","25","encoding","encoding","249","E59.jpg","3",".","37","0","936"
"25","25","encoding","encoding","250","E16.jpg","3",".","37","0","766"
"25","25","encoding","encoding","251","E4.jpg","3",".","0","0","1000"
"25","25","encoding","encoding","252","F76.jpg","1",".","0","0","1000"
"25","25","encoding","encoding","253","F54.jpg","1",".","0","0","1000"
"25","25","encoding","encoding","254","F45.jpg","1",".","0","0","1000"
"25","25","encoding","encoding","255","F46.jpg","1",".","0","0","1000"
"25","25","encoding","encoding","256","E0.jpg","3",".","0","0","1000"
"25","25","encoding","encoding","257","E71.jpg","3",".","0","0","1000"
"25","25","encoding","encoding","258","F8.jpg","1",".","37","0","160"
"25","25","encoding","encoding","259","E38.jpg","3",".","0","0","1000"
"25","25","encoding","encoding","260","E64.jpg","3",".","0","0","1000"
"25","25","encoding","encoding","261","F1.jpg","1",".","0","0","1000"
"25","25","encoding","encoding","262","E76.jpg","3",".","0","0","1000"
"25","25","encoding","encoding","263","F67.jpg","1",".","37","0","844"
"25","25","encoding","encoding","265","E8.jpg","3",".","37","0","915"
"25","25","encoding","encoding","266","E44.jpg","3",".","37","0","627"
"25","25","encoding","encoding","267","E7.jpg","3",".","37","0","145"
"25","25","encoding","encoding","268","E68.jpg","3",".","37","0","981"
"25","25","encoding","encoding","269","E48.jpg","3",".","0","0","1000"
"25","25","encoding","encoding","270","E58.jpg","3",".","37","0","978"
"25","25","encoding","encoding","271","F26.jpg","1",".","0","0","1000"
"25","25","encoding","encoding","272","E7.jpg","3",".","0","0","1000"
"25","25","encoding","encoding","273","F19.jpg","1",".","0","0","1000"
"25","25","encoding","encoding","274","E69.jpg","3",".","0","0","1000"
"25","25","encoding","encoding","275","E43.jpg","3",".","0","0","1000"
"25","25","encoding","encoding","276","E42.jpg","3",".","0","0","1000"
"25","25","encoding","encoding","277","E59.jpg","3",".","37","0","876"
"25","25","encoding","encoding","278","E31.jpg","3",".","0","0","1000"
"25","25","encoding","encoding","279","E74.jpg","3",".","0","0","1000"
"25","25","encoding","encoding","280","F35.jpg","1",".","0","0","1000"
"25","25","encoding","encoding","281","E13.jpg","3",".","36","0","951"
"25","25","encoding","encoding","282","F34.jpg","1",".","0","0","1000"
"25","25","encoding","encoding","283","E70.jpg","3",".","0","0","1000"
"25","25","encoding","encoding","284","F36.jpg","1",".","37","0","923"
"25","25","encoding","encoding","285","E4.jpg","3",".","37","0","382"
"25","25","encoding","encoding","286","E64.jpg","3",".","0","0","1000"
"25","25","encoding","encoding","287","F70.jpg","1",".","37","0","623"
"25","25","encoding","encoding","288","E12.jpg","3",".","37","0","916"
"25","25","encoding","encoding","289","E68.jpg","3",".","36","0","950"
"25","25","encoding","encoding","290","E41.jpg","3",".","0","0","1000"
"25","25","encoding","encoding","291","E11.jpg","3",".","0","0","1000"
"25","25","encoding","encoding","292","E56.jpg","3",".","0","0","1000"
"25","25","encoding","encoding","293","E53.jpg","3",".","0","0","1000"
"25","25","encoding","encoding","294","E24.jpg","3",".","37","0","934"
"25","25","encoding","encoding","295","E22.jpg","3",".","0","0","1000"
"25","25","encoding","encoding","296","F72.jpg","1",".","0","0","1000"
"25","25","encoding","encoding","297","E17.jpg","3",".","37","0","921"
"25","25","encoding","encoding","298","E40.jpg","3",".","0","0","1000"
"25","25","encoding","encoding","299","E25.jpg","3",".","37","0","878"
"25","25","encoding","encoding","300","E50.jpg","3",".","37","0","904"
"25","25","encoding","encoding","301","E19.jpg","3",".","0","0","1000"
"25","25","encoding","encoding","302","E61.jpg","3",".","37","0","928"
"25","25","encoding","encoding","303","E39.jpg","3",".","37","0","914"
"25","25","encoding","encoding","304","E63.jpg","3",".","0","0","1000"
"25","25","encoding","encoding","305","E60.jpg","3",".","37","0","953"
"25","25","encoding","encoding","306","E73.jpg","3",".","0","0","1000"
"25","25","encoding","encoding","307","E72.jpg","3",".","0","0","1000"
"25","25","encoding","encoding","308","E54.jpg","3",".","0","0","1000"
"25","25","encoding","encoding","309","F64.jpg","1",".","0","0","1000"
"25","25","encoding","encoding","310","F14.jpg","1",".","0","0","1000"
"25","25","encoding","encoding","311","E46.jpg","3",".","37","0","857"
"25","25","encoding","encoding","312","F79.jpg","1",".","0","0","1000"
"25","25","encoding","encoding","313","F17.jpg","1",".","0","0","1000"
"25","25","encoding","encoding","314","E50.jpg","3",".","0","0","1000"
"25","25","encoding","encoding","315","E48.jpg","3",".","37","0","891"
"25","25","encoding","encoding","316","E37.jpg","3",".","37","0","926"
"25","25","encoding","encoding","317","E76.jpg","3",".","0","0","1000"
"25","25","encoding","encoding","318","E45.jpg","3",".","0","0","1000"
"25","25","encoding","encoding","319","E10.jpg","3",".","0","0","1000"
"25","25","encoding","encoding","320","E69.jpg","3",".","0","0","1000"
"25","25","encoding","encoding","321","E76.jpg","3",".","0","0","1000"
"25","25","encoding","encoding","322","E60.jpg","3",".","37","0","925"
"25","25","encoding","encoding","323","F66.jpg","1",".","0","0","1000"
"25","25","encoding","encoding","324","E45.jpg","3",".","37","0","40"
"25","25","encoding","encoding","325","E65.jpg","",".","37","0","930"
"25","25","retrieval","new_object","1","G25.jpg",".",".","0","0","2000"
"25","25","retrieval","old_object","2","E64.jpg",".","3","0","0","2000"
"25","25","retrieval","old_object","3","F49.jpg",".","1","36","1","1467"
"25","25","retrieval","old_object","4","F69.jpg",".","1","37","0","1679"
"25","25","retrieval","old_object","5","E41.jpg",".","3","36","1","1607"
"25","25","retrieval","new_object","6","H26.jpg",".",".","37","1","1140"
"25","25","retrieval","old_object","7","E37.jpg",".","3","37","0","1140"
"25","25","retrieval","old_object","8","F70.jpg",".","1","36","1","1351"
"25","25","retrieval","old_object","9","E4.jpg",".","3","36","1","1094"
"25","25","retrieval","old_object","10","F32.jpg",".","1","37","0","1521"
"25","25","retrieval","new_object","11","G68.jpg",".",".","37","1","1597"
"25","25","retrieval","new_object","12","H49.jpg",".",".","37","1","1544"
"25","25","retrieval","old_object","13","E21.jpg",".","3","36","1","1433"
"25","25","retrieval","old_object","14","F40.jpg",".","1","36","1","1954"
"25","25","retrieval","new_object","15","H3.jpg",".",".","36","0","1409"
"25","25","retrieval","new_object","16","H29.jpg",".",".","37","1","1276"
"25","25","retrieval","new_object","17","G52.jpg",".",".","37","1","1536"
"25","25","retrieval","old_object","18","E33.jpg",".","3","36","1","1310"
"25","25","retrieval","old_object","19","F51.jpg",".","1","37","0","1296"
"25","25","retrieval","old_object","20","F73.jpg",".","1","36","1","1515"
"25","25","retrieval","old_object","21","F74.jpg",".","1","37","0","1160"
"25","25","retrieval","old_object","22","F68.jpg",".","1","36","1","1826"
"25","25","retrieval","new_object","23","H25.jpg",".",".","37","1","1535"
"25","25","retrieval","old_object","24","F65.jpg",".","1","36","1","1368"
"25","25","retrieval","old_object","25","F10.jpg",".","1","37","0","1781"
"25","25","retrieval","old_object","26","E30.jpg",".","3","36","1","1722"
"25","25","retrieval","new_object","27","G72.jpg",".",".","36","0","1407"
"25","25","retrieval","new_object","28","H6.jpg",".",".","37","1","1271"
"25","25","retrieval","old_object","29","E43.jpg",".","3","36","1","1586"
"25","25","retrieval","new_object","30","H39.jpg",".",".","36","0","1927"
"25","25","retrieval","new_object","31","H62.jpg",".",".","37","1","1302"
"25","25","retrieval","new_object","32","G42.jpg",".",".","37","1","1404"
"25","25","retrieval","new_object","33","G79.jpg",".",".","37","1","1770"
"25","25","retrieval","new_object","34","G76.jpg",".",".","37","1","1289"
"25","25","retrieval","old_object","35","F5.jpg",".","1","36","1","1398"
"25","25","retrieval","new_object","36","G77.jpg",".",".","37","1","1467"
"25","25","retrieval","old_object","37","E58.jpg",".","3","36","1","1286"
"25","25","retrieval","old_object","38","E14.jpg",".","3","36","1","1772"
"25","25","retrieval","old_object","39","E34.jpg",".","3","36","1","1110"
"25","25","retrieval","old_object","40","F58.jpg",".","1","36","1","1154"
"25","25","retrieval","old_object","41","E50.jpg",".","3","36","1","1187"
"25","25","retrieval","old_object","42","F46.jpg",".","1","37","0","1385"
"25","25","retrieval","old_object","43","F15.jpg",".","1","36","1","1577"
"25","25","retrieval","new_object","44","G14.jpg",".",".","37","1","1443"
"25","25","retrieval","new_object","45","G57.jpg",".",".","37","1","1815"
"25","25","retrieval","old_object","46","F79.jpg",".","1","36","1","1253"
"25","25","retrieval","old_object","47","F34.jpg",".","1","36","1","1570"
"25","25","retrieval","old_object","48","E13.jpg",".","3","36","1","1574"
"25","25","retrieval","new_object","49","H53.jpg",".",".","37","1","1426"
"25","25","retrieval","new_object","50","G39.jpg",".",".","37","1","1421"
"25","25","retrieval","new_object","51","G73.jpg",".",".","37","1","1094"
"25","25","retrieval","new_object","52","G37.jpg",".",".","37","1","1204"
"25","25","retrieval","new_object","53","G18.jpg",".",".","37","1","1278"
"25","25","retrieval","new_object","54","G19.jpg",".",".","37","1","1437"
"25","25","retrieval","old_object","55","E78.jpg",".","3","37","0","1251"
"25","25","retrieval","new_object","56","G30.jpg",".",".","37","1","1494"
"25","25","retrieval","old_object","57","F13.jpg",".","1","37","0","1177"
"25","25","retrieval","new_object","58","G17.jpg",".",".","37","1","1352"
"25","25","retrieval","new_object","59","G10.jpg",".",".","37","1","1209"
"25","25","retrieval","new_object","60","H14.jpg",".",".","37","1","1211"
"25","25","retrieval","new_object","61","G8.jpg",".",".","0","0","2000"
"25","25","retrieval","old_object","62","E77.jpg",".","3","37","0","1613"
"25","25","retrieval","old_object","63","F37.jpg",".","1","37","0","1901"
"25","25","retrieval","new_object","64","H37.jpg",".",".","37","1","1306"
"25","25","retrieval","new_object","65","H68.jpg",".",".","37","1","1353"
"25","25","retrieval","new_object","67","H45.jpg",".",".","0","0","2000"
"25","25","retrieval","new_object","68","H61.jpg",".",".","37","1","1674"
"25","25","retrieval","old_object","69","E39.jpg",".","3","36","1","1333"
"25","25","retrieval","old_object","70","F67.jpg",".","1","37","0","1331"
"25","25","retrieval","old_object","71","E63.jpg",".","3","36","1","1568"
"25","25","retrieval","new_object","72","G15.jpg",".",".","0","0","2000"
"25","25","retrieval","old_object","73","F19.jpg",".","1","36","1","1533"
"25","25","retrieval","new_object","74","G44.jpg",".",".","37","1","1028"
"25","25","retrieval","old_object","75","F50.jpg",".","1","0","0","2000"
"25","25","retrieval","new_object","76","G6.jpg",".",".","0","0","2000"
"25","25","retrieval","old_object","77","F57.jpg",".","1","36","1","1460"
"25","25","retrieval","old_object","78","E66.jpg",".","3","37","0","1105"
"25","25","retrieval","old_object","79","E1.jpg",".","3","36","1","1286"
"25","25","retrieval","new_object","80","H41.jpg",".",".","37","1","1899"
"25","25","retrieval","new_object","81","H11.jpg",".",".","37","1","1477"
"25","25","retrieval","old_object","82","E22.jpg",".","3","36","1","1299"
"25","25","retrieval","new_object","83","H69.jpg",".",".","37","1","1165"
"25","25","retrieval","old_object","84","F72.jpg",".","1","37","0","1281"
"25","25","retrieval","old_object","85","F41.jpg",".","1","36","1","1300"
"25","25","retrieval","old_object","86","E10.jpg",".","3","37","0","1607"
"25","25","retrieval","new_object","87","H77.jpg",".",".","37","1","1336"
"25","25","retrieval","old_object","88","F44.jpg",".","1","36","1","1338"
"25","25","retrieval","new_object","89","G27.jpg",".",".","37","1","1253"
"25","25","retrieval","old_object","90","F78.jpg",".","1","37","0","1595"
"25","25","retrieval","old_object","91","E73.jpg",".","3","36","1","1390"
"25","25","retrieval","new_object","92","G26.jpg",".",".","37","1","1506"
"25","25","retrieval","new_object","93","H63.jpg",".",".","37","1","1602"
"25","25","retrieval","old_object","94","F8.jpg",".","1","0","0","2000"
"25","25","retrieval","new_object","95","G46.jpg",".",".","37","1","1419"
"25","25","retrieval","new_object","96","H0.jpg",".",".","37","1","1420"
"25","25","retrieval","old_object","97","F66.jpg",".","1","0","0","2000"
"25","25","retrieval","new_object","98","H42.jpg",".",".","37","1","1168"
"25","25","retrieval","new_object","99","H5.jpg",".",".","37","1","1774"
"25","25","retrieval","new_object","100","G29.jpg",".",".","37","1","1446"
"25","25","retrieval","new_object","101","H27.jpg",".",".","37","1","1579"
"25","25","retrieval","old_object","102","F55.jpg",".","1","37","0","1432"
"25","25","retrieval","old_object","103","E51.jpg",".","3","36","1","1281"
"25","25","retrieval","old_object","104","F9.jpg",".","1","36","1","1723"
"25","25","retrieval","old_object","105","E16.jpg",".","3","36","1","1175"
"25","25","retrieval","old_object","106","F60.jpg",".","1","36","1","1452"
"25","25","retrieval","new_object","107","G41.jpg",".",".","37","1","1331"
"25","25","retrieval","new_object","108","G16.jpg",".",".","37","1","1499"
"25","25","retrieval","old_object","109","F54.jpg",".","1","36","1","1233"
"25","25","retrieval","new_object","110","H1.jpg",".",".","37","1","1797"
"25","25","retrieval","new_object","111","G78.jpg",".",".","37","1","1671"
"25","25","retrieval","new_object","112","H13.jpg",".",".","37","1","1552"
"25","25","retrieval","new_object","113","G31.jpg",".",".","37","1","1524"
"25","25","retrieval","old_object","114","E69.jpg",".","3","36","1","1084"
"25","25","retrieval","old_object","115","F2.jpg",".","1","37","0","1186"
"25","25","retrieval","new_object","116","G75.jpg",".",".","37","1","1866"
"25","25","retrieval","new_object","117","H4.jpg",".",".","37","1","1288"
"25","25","retrieval","old_object","118","E42.jpg",".","3","37","0","1185"
"25","25","retrieval","new_object","119","G56.jpg",".",".","37","1","1069"
"25","25","retrieval","old_object","120","E65.jpg",".","3","36","1","1309"
"25","25","retrieval","old_object","121","F14.jpg",".","1","36","1","1614"
"25","25","retrieval","old_object","122","F31.jpg",".","1","36","1","1315"
"25","25","retrieval","old_object","123","E54.jpg",".","3","36","1","1541"
"25","25","retrieval","new_object","124","H23.jpg",".",".","37","1","1480"
"25","25","retrieval","new_object","125","H44.jpg",".",".","37","1","1398"
"25","25","retrieval","old_object","126","E15.jpg",".","3","37","0","1468"
"25","25","retrieval","new_object","127","H64.jpg",".",".","37","1","1187"
"25","25","retrieval","old_object","128","E3.jpg",".","3","36","1","1169"
"25","25","retrieval","new_object","129","G50.jpg",".",".","37","1","1303"
"25","25","retrieval","old_object","130","E35.jpg",".","3","36","1","1596"
"25","25","retrieval","old_object","131","F36.jpg",".","1","36","1","1318"
"25","25","retrieval","old_object","133","F4.jpg",".","1","37","0","1687"
"25","25","retrieval","new_object","134","H51.jpg",".",".","37","1","990"
"25","25","retrieval","old_object","135","F77.jpg",".","1","37","0","1135"
"25","25","retrieval","old_object","136","F53.jpg",".","1","37","0","1127"
"25","25","retrieval","new_object","137","G32.jpg",".",".","36","0","1687"
"25","25","retrieval","new_object","138","H40.jpg",".",".","37","1","1423"
"25","25","retrieval","old_object","139","E57.jpg",".","3","36","1","1608"
"25","25","retrieval","new_object","140","G22.jpg",".",".","37","1","1253"
"25","25","retrieval","old_object","141","F1.jpg",".","1","37","0","1158"
"25","25","retrieval","old_object","142","F71.jpg",".","1","37","0","1100"
"25","25","retrieval","new_object","143","H60.jpg",".",".","37","1","1752"
"25","25","retrieval","old_object","144","E20.jpg",".","3","36","1","1070"
"25","25","retrieval","old_object","145","E60.jpg",".","3","36","1","1141"
"25","25","retrieval","new_object","146","G74.jpg",".",".","37","1","1126"
"25","25","retrieval","new_object","147","G65.jpg",".",".","37","1","1245"
"25","25","retrieval","old_object","148","E52.jpg",".","3","36","1","1131"
"25","25","retrieval","old_object","149","F28.jpg",".","1","37","0","1264"
"25","25","retrieval","old_object","150","E74.jpg",".","3","36","1","1193"
"25","25","retrieval","old_object","151","E29.jpg",".","3","36","1","939"
"25","25","retrieval","old_object","152","F6.jpg",".","1","36","1","1268"
"25","25","retrieval","new_object","153","G13.jpg",".",".","37","1","1286"
"25","25","retrieval","old_object","154","F45.jpg",".","1","0","0","2000"
"25","25","retrieval","old_object","155","E44.jpg",".","3","36","1","1122"
"25","25","retrieval","new_object","156","H58.jpg",".",".","37","1","1308"
"25","25","retrieval","old_object","157","F63.jpg",".","1","36","1","1357"
"25","25","retrieval","new_object","158","H71.jpg",".",".","37","1","1108"
"25","25","retrieval","new_object","159","G67.jpg",".",".","37","1","1130"
"25","25","retrieval","new_object","160","G36.jpg",".",".","37","1","1501"
"25","25","retrieval","new_object","161","H32.jpg",".",".","37","1","1206"
"25","25","retrieval","new_object","162","G23.jpg",".",".","37","1","1269"
"25","25","retrieval","old_object","163","E23.jpg",".","3","36","1","1428"
"25","25","retrieval","old_object","164","E28.jpg",".","3","37","0","1417"
"25","25","retrieval","old_object","165","E46.jpg",".","3","36","1","1306"
"25","25","retrieval","new_object","166","H33.jpg",".",".","37","1","1127"
"25","25","retrieval","new_object","167","H28.jpg",".",".","37","1","1849"
"25","25","retrieval","new_object","168","H38.jpg",".",".","37","1","993"
"25","25","retrieval","old_object","169","F35.jpg",".","1","37","0","1506"
"25","25","retrieval","new_object","170","G63.jpg",".",".","37","1","1230"
"25","25","retrieval","new_object","171","G4.jpg",".",".","37","1","1527"
"25","25","retrieval","old_object","172","F52.jpg",".","1","37","0","1092"
"25","25","retrieval","new_object","173","H52.jpg",".",".","37","1","1394"
"25","25","retrieval","new_object","174","H59.jpg",".",".","37","1","1979"
"25","25","retrieval","old_object","175","F62.jpg",".","1","36","1","1297"
"25","25","retrieval","new_object","176","G24.jpg",".",".","36","0","1204"
"25","25","retrieval","new_object","177","G58.jpg",".",".","36","0","1078"
"25","25","retrieval","old_object","178","E71.jpg",".","3","36","1","1062"
"25","25","retrieval","old_object","179","E26.jpg",".","3","36","1","1018"
"25","25","retrieval","new_object","180","H50.jpg",".",".","37","1","1291"
"25","25","retrieval","old_object","181","E61.jpg",".","3","36","1","1268"
"25","25","retrieval","new_object","182","G59.jpg",".",".","36","0","1791"
"25","25","retrieval","old_object","183","E6.jpg",".","3","36","1","1202"
"25","25","retrieval","new_object","184","G1.jpg",".",".","36","0","1529"
"25","25","retrieval","old_object","185","E53.jpg",".","3","36","1","1495"
"25","25","retrieval","new_object","186","H15.jpg",".",".","37","1","1246"
"25","25","retrieval","new_object","187","H34.jpg",".",".","36","0","1916"
"25","25","retrieval","old_object","188","E40.jpg",".","3","36","1","1297"
"25","25","retrieval","new_object","189","G5.jpg",".",".","37","1","1477"
"25","25","retrieval","new_object","190","H56.jpg",".",".","37","1","1149"
"25","25","retrieval","new_object","191","G66.jpg",".",".","37","1","1629"
"25","25","retrieval","old_object","192","F3.jpg",".","1","37","0","1129"
"25","25","retrieval","new_object","193","G11.jpg",".",".","37","1","1027"
"25","25","retrieval","new_object","194","H36.jpg",".",".","37","1","1074"
"25","25","retrieval","new_object","195","G49.jpg",".",".","37","1","1170"
"25","25","retrieval","new_object","196","H10.jpg",".",".","37","1","1617"
"25","25","retrieval","new_object","197","G40.jpg",".",".","37","1","1410"
"25","25","retrieval","new_object","199","G55.jpg",".",".","37","1","1380"
"25","25","retrieval","old_object","200","E2.jpg",".","3","36","1","1178"
"25","25","retrieval","new_object","201","H67.jpg",".",".","37","1","1732"
"25","25","retrieval","old_object","202","F12.jpg",".","1","37","0","1310"
"25","25","retrieval","new_object","203","H20.jpg",".",".","37","1","1219"
"25","25","retrieval","old_object","204","E36.jpg",".","3","36","1","1593"
"25","25","retrieval","new_object","205","G35.jpg",".",".","37","1","1456"
"25","25","retrieval","new_object","206","H2.jpg",".",".","37","1","1382"
"25","25","retrieval","new_object","207","G61.jpg",".",".","37","1","1405"
"25","25","retrieval","old_object","208","E49.jpg",".","3","37","0","1008"
"25","25","retrieval","old_object","209","E27.jpg",".","3","36","1","1294"
"25","25","retrieval","new_object","210","H75.jpg",".",".","37","1","1663"
"25","25","retrieval","old_object","211","F27.jpg",".","1","37","0","1541"
"25","25","retrieval","old_object","212","F29.jpg",".","1","37","0","1487"
"25","25","retrieval","new_object","213","H7.jpg",".",".","37","1","1377"
"25","25","retrieval","old_object","214","E47.jpg",".","3","0","0","2000"
"25","25","retrieval","new_object","215","G38.jpg",".",".","37","1","1501"
"25","25","retrieval","new_object","216","G33.jpg",".",".","37","1","1170"
"25","25","retrieval","new_object","217","H30.jpg",".",".","37","1","1114"
"25","25","retrieval","old_object","218","F17.jpg",".","1","37","0","979"
"25","25","retrieval","new_object","219","H74.jpg",".",".","37","1","1224"
"25","25","retrieval","new_object","220","G53.jpg",".",".","37","1","1482"
"25","25","retrieval","old_object","221","E79.jpg",".","3","36","1","1151"
"25","25","retrieval","new_object","222","G20.jpg",".",".","37","1","1206"
"25","25","retrieval","old_object","223","E5.jpg",".","3","36","1","1311"
"25","25","retrieval","old_object","224","F20.jpg",".","1","37","0","1516"
"25","25","retrieval","new_object","225","G47.jpg",".",".","37","1","1225"
"25","25","retrieval","new_object","226","G45.jpg",".",".","37","1","1370"
"25","25","retrieval","new_object","227","H24.jpg",".",".","37","1","1234"
"25","25","retrieval","old_object","228","F43.jpg",".","1","37","0","1194"
"25","25","retrieval","old_object","229","F0.jpg",".","1","37","0","1141"
"25","25","retrieval","new_object","230","G28.jpg",".",".","37","1","1235"
"25","25","retrieval","old_object","231","E12.jpg",".","3","36","1","1409"
"25","25","retrieval","old_object","232","F76.jpg",".","1","36","1","1413"
"25","25","retrieval","new_object","233","G54.jpg",".",".","37","1","1144"
"25","25","retrieval","new_object","234","H22.jpg",".",".","37","1","1560"
"25","25","retrieval","old_object","235","E70.jpg",".","3","36","1","1298"
"25","25","retrieval","old_object","236","E19.jpg",".","3","36","1","1315"
"25","25","retrieval","new_object","237","H79.jpg",".",".","37","1","1273"
"25","25","retrieval","new_object","238","G34.jpg",".",".","37","1","1529"
"25","25","retrieval","old_object","239","E59.jpg",".","3","37","0","1063"
"25","25","retrieval","new_object","240","H16.jpg",".",".","37","1","1449"
"25","25","retrieval","old_object","241","F39.jpg",".","1","36","1","1654"
"25","25","retrieval","old_object","242","E25.jpg",".","3","36","1","1271"
"25","25","retrieval","new_object","243","H72.jpg",".",".","36","0","1598"
"25","25","retrieval","old_object","244","E38.jpg",".","3","36","1","1101"
"25","25","retrieval","new_object","245","G62.jpg",".",".","37","1","1155"
"25","25","retrieval","old_object","246","F47.jpg",".","1","37","0","1399"
"25","25","retrieval","old_object","247","E45.jpg",".","3","0","0","2000"
"25","25","retrieval","new_object","248","G3.jpg",".",".","37","1","1148"
"25","25","retrieval","new_object","249","G0.jpg",".",".","0","0","2000"
"25","25","retrieval","new_object","250","H70.jpg",".",".","36","0","1910"
"25","25","retrieval","new_object","251","G21.jpg",".",".","37","1","1206"
"25","25","retrieval","new_object","252","H47.jpg",".",".","37","1","1024"
"25","25","retrieval","old_object","253","E24.jpg",".","3","36","1","1723"
"25","25","retrieval","old_object","254","E48.jpg",".","3","36","1","1263"
"25","25","retrieval","old_object","255","E67.jpg",".","3","36","1","1127"
"25","25","retrieval","old_object","256","F24.jpg",".","1","36","1","1078"
"25","25","retrieval","old_object","257","F33.jpg",".","1","37","0","1623"
"25","25","retrieval","old_object","258","E68.jpg",".","3","36","1","1209"
"25","25","retrieval","new_object","259","H8.jpg",".",".","37","1","1189"
"25","25","retrieval","new_object","260","H35.jpg",".",".","37","1","1254"
"25","25","retrieval","old_object","261","F56.jpg",".","1","36","1","1754"
"25","25","retrieval","new_object","262","G9.jpg",".",".","37","1","1252"
"25","25","retrieval","new_object","263","H73.jpg",".",".","37","1","1503"
"25","25","retrieval","new_object","265","H19.jpg",".",".","37","1","1392"
"25","25","retrieval","old_object","266","F48.jpg",".","1","37","0","1083"
"25","25","retrieval","new_object","267","H18.jpg",".",".","37","1","1136"
"25","25","retrieval","old_object","268","F23.jpg",".","1","37","0","1356"
"25","25","retrieval","new_object","269","G69.jpg",".",".","37","1","1020"
"25","25","retrieval","new_object","270","G48.jpg",".",".","37","1","1457"
"25","25","retrieval","old_object","271","E76.jpg",".","3","37","0","1278"
"25","25","retrieval","old_object","272","E9.jpg",".","3","37","0","1274"
"25","25","retrieval","new_object","273","G60.jpg",".",".","37","1","1407"
"25","25","retrieval","new_object","274","H21.jpg",".",".","37","1","1563"
"25","25","retrieval","old_object","275","E18.jpg",".","3","36","1","1324"
"25","25","retrieval","old_object","276","E17.jpg",".","3","37","0","1619"
"25","25","retrieval","old_object","277","E55.jpg",".","3","36","1","1168"
"25","25","retrieval","new_object","278","H43.jpg",".",".","37","1","1480"
"25","25","retrieval","new_object","279","H31.jpg",".",".","36","0","1551"
"25","25","retrieval","new_object","280","H46.jpg",".",".","37","1","1625"
"25","25","retrieval","old_object","281","E32.jpg",".","3","36","1","1526"
"25","25","retrieval","old_object","282","F75.jpg",".","1","36","1","1268"
"25","25","retrieval","old_object","283","F59.jpg",".","1","37","0","1146"
"25","25","retrieval","old_object","284","F26.jpg",".","1","36","1","1123"
"25","25","retrieval","old_object","285","F7.jpg",".","1","37","0","1681"
"25","25","retrieval","old_object","286","E7.jpg",".","3","36","1","1089"
"25","25","retrieval","old_object","287","F21.jpg",".","1","36","1","1221"
"25","25","retrieval","old_object","288","F61.jpg",".","1","36","1","1278"
"25","25","retrieval","old_object","289","F42.jpg",".","1","36","1","1895"
"25","25","retrieval","new_object","290","H65.jpg",".",".","37","1","1438"
"25","25","retrieval","new_object","291","G43.jpg",".",".","0","0","2000"
"25","25","retrieval","old_object","292","E31.jpg",".","3","36","1","1154"
"25","25","retrieval","new_object","293","H57.jpg",".",".","37","1","1241"
"25","25","retrieval","old_object","294","E75.jpg",".","3","36","1","1248"
"25","25","retrieval","new_object","295","H66.jpg",".",".","37","1","1282"
"25","25","retrieval","new_object","296","G71.jpg",".",".","36","0","1495"
"25","25","retrieval","old_object","297","F18.jpg",".","1","37","0","1241"
"25","25","retrieval","new_object","298","G51.jpg",".",".","37","1","1303"
"25","25","retrieval","old_object","299","E72.jpg",".","3","36","1","1178"
"25","25","retrieval","old_object","300","E56.jpg",".","3","36","1","1477"
"25","25","retrieval","old_object","301","F30.jpg",".","1","36","1","1903"
"25","25","retrieval","new_object","302","G7.jpg",".",".","37","1","1209"
"25","25","retrieval","old_object","303","F11.jpg",".","1","36","1","1364"
"25","25","retrieval","old_object","304","F25.jpg",".","1","36","1","1609"
"25","25","retrieval","old_object","305","E62.jpg",".","3","36","1","1099"
"25","25","retrieval","new_object","306","G2.jpg",".",".","36","0","1468"
"25","25","retrieval","old_object","307","E0.jpg",".","3","36","1","1116"
"25","25","retrieval","new_object","308","H12.jpg",".",".","36","0","1474"
"25","25","retrieval","new_object","309","H55.jpg",".",".","37","1","1125"
"25","25","retrieval","old_object","310","E8.jpg",".","3","36","1","1359"
"25","25","retrieval","old_object","311","F64.jpg",".","1","36","1","1564"
"25","25","retrieval","old_object","312","F38.jpg",".","1","36","1","1711"
"25","25","retrieval","old_object","313","E11.jpg",".","3","36","1","1081"
"25","25","retrieval","old_object","314","F22.jpg",".","1","37","0","1325"
"25","25","retrieval","new_object","315","G12.jpg",".",".","37","1","1201"
"25","25","retrieval","new_object","316","H48.jpg",".",".","37","1","1415"
"25","25","retrieval","new_object","317","G70.jpg",".",".","37","1","1391"
"25","25","retrieval","old_object","318","F16.jpg",".","1","36","1","1128"
"25","25","retrieval","new_object","319","H17.jpg",".",".","37","1","1381"
"25","25","retrieval","new_object","320","H76.jpg",".",".","37","1","1157"
"25","25","retrieval","new_object","321","H9.jpg",".",".","37","1","1176"
"25","25","retrieval","old_object","322","E64.jpg",".","","36","1","1198"
"25","25","retrieval","new_object","323","G64.jpg",".",".","37","1","1104"
"25","25","retrieval","new_object","324","H54.jpg",".",".","0","0","2000"
"25","25","retrieval","new_object","325","H78.jpg",".",".","37","1","1542"
"25","25","demographics_block","gender","1",".",".",".","female","1","65449"
"25","25","demographics_block","age","1",".",".",".","59","1","65449"
"25","25","demographics_block","education","1",".",".",".","4","1","65449"
"25","25","demographics_block","left_right_handed","2",".",".",".","Right","1","37132"
"25","25","demographics_block","raceoption1","2",".",".",".","0","1","37132"
"25","25","demographics_block","raceoption2","2",".",".",".","","1","37132"
"25","25","demographics_block","raceoption3","2",".",".",".","","1","37132"
"25","25","demographics_block","raceoption4","2",".",".",".","","1","37132"
"25","25","demographics_block","raceoption5","2",".",".",".","","1","37132"
"25","25","demographics_block","raceoption6","2",".",".",".","","1","37132"
"25","25","demographics_block","raceoption7","2",".",".",".","","1","37132"
"25","25","demographics_block","raceoption8","2",".",".",".","","1","37132"
"25","25","demographics_block","raceoption9","2",".",".",".","","1","37132"
"25","25","demographics_block","raceother","2",".",".",".","","1","37132"
"25","25","demographics_block","raceother","2",".",".",".","","1","37132"
"25","25","demographics_block","english_language","2",".",".",".","Yes","1","37132"
"25","25","demographics_block","other","2",".",".",".","","1","37132"
"25","25","demographics_block","eyesight","3",".",".",".","Yes","1","24730"
"25","25","demographics_block","colorblind","3",".",".",".","No","1","24730"
