"group","subject","blockcode","trialcode","trialnum","stimulus","encoding_condition","old_object_condition","response","correct","latency"
"3","3","encoding","encoding","1","D43.jpg","3",".","0","0","1000"
"3","3","encoding","encoding","2","D60.jpg","3",".","0","0","1000"
"3","3","encoding","encoding","3","D22.jpg","3",".","37","0","881"
"3","3","encoding","encoding","4","D66.jpg","3",".","37","0","923"
"3","3","encoding","encoding","5","D16.jpg","3",".","37","0","969"
"3","3","encoding","encoding","6","C74.jpg","1",".","37","0","826"
"3","3","encoding","encoding","7","D73.jpg","3",".","37","0","764"
"3","3","encoding","encoding","8","D16.jpg","3",".","37","0","707"
"3","3","encoding","encoding","9","D7.jpg","3",".","37","0","813"
"3","3","encoding","encoding","10","C69.jpg","1",".","37","0","827"
"3","3","encoding","encoding","11","D7.jpg","3",".","37","0","753"
"3","3","encoding","encoding","12","D45.jpg","3",".","36","0","901"
"3","3","encoding","encoding","13","D33.jpg","3",".","37","0","885"
"3","3","encoding","encoding","14","D15.jpg","3",".","37","0","983"
"3","3","encoding","encoding","15","C47.jpg","1",".","37","0","924"
"3","3","encoding","encoding","16","C60.jpg","1",".","0","0","1000"
"3","3","encoding","encoding","17","D8.jpg","3",".","37","0","925"
"3","3","encoding","encoding","18","D35.jpg","3",".","37","0","698"
"3","3","encoding","encoding","19","C33.jpg","1",".","37","0","743"
"3","3","encoding","encoding","20","C73.jpg","1",".","36","0","960"
"3","3","encoding","encoding","21","D68.jpg","3",".","0","0","1000"
"3","3","encoding","encoding","22","D17.jpg","3",".","0","0","1000"
"3","3","encoding","encoding","23","C12.jpg","1",".","37","0","814"
"3","3","encoding","encoding","24","D21.jpg","3",".","37","0","736"
"3","3","encoding","encoding","25","D48.jpg","3",".","37","0","704"
"3","3","encoding","encoding","26","C11.jpg","1",".","37","0","865"
"3","3","encoding","encoding","27","C14.jpg","1",".","37","0","766"
"3","3","encoding","encoding","28","D58.jpg","3",".","36","0","702"
"3","3","encoding","encoding","29","D63.jpg","3",".","37","0","716"
"3","3","encoding","encoding","30","D29.jpg","3",".","36","0","826"
"3","3","encoding","encoding","31","D27.jpg","3",".","37","0","586"
"3","3","encoding","encoding","32","D50.jpg","3",".","37","0","636"
"3","3","encoding","encoding","33","C27.jpg","1",".","37","0","633"
"3","3","encoding","encoding","34","D71.jpg","3",".","37","0","686"
"3","3","encoding","encoding","35","C36.jpg","1",".","37","0","751"
"3","3","encoding","encoding","36","C16.jpg","1",".","37","0","680"
"3","3","encoding","encoding","37","D23.jpg","3",".","37","0","625"
"3","3","encoding","encoding","38","D6.jpg","3",".","37","0","808"
"3","3","encoding","encoding","39","C63.jpg","1",".","37","0","753"
"3","3","encoding","encoding","40","C53.jpg","1",".","37","0","832"
"3","3","encoding","encoding","41","D6.jpg","3",".","37","0","671"
"3","3","encoding","encoding","42","C26.jpg","1",".","37","0","624"
"3","3","encoding","encoding","43","D6.jpg","3",".","37","0","593"
"3","3","encoding","encoding","44","D19.jpg","3",".","37","0","594"
"3","3","encoding","encoding","45","D58.jpg","3",".","36","0","479"
"3","3","encoding","encoding","46","D61.jpg","3",".","37","0","616"
"3","3","encoding","encoding","47","C58.jpg","1",".","36","0","967"
"3","3","encoding","encoding","48","C35.jpg","1",".","37","0","628"
"3","3","encoding","encoding","49","D40.jpg","3",".","37","0","790"
"3","3","encoding","encoding","50","D13.jpg","3",".","37","0","880"
"3","3","encoding","encoding","51","D76.jpg","3",".","37","0","546"
"3","3","encoding","encoding","52","D39.jpg","3",".","37","0","736"
"3","3","encoding","encoding","53","D49.jpg","3",".","0","0","1000"
"3","3","encoding","encoding","54","D62.jpg","3",".","0","0","1000"
"3","3","encoding","encoding","55","D12.jpg","3",".","37","0","762"
"3","3","encoding","encoding","56","D57.jpg","3",".","36","0","898"
"3","3","encoding","encoding","57","D41.jpg","3",".","0","0","1000"
"3","3","encoding","encoding","58","C67.jpg","1",".","36","0","802"
"3","3","encoding","encoding","59","D51.jpg","3",".","37","0","965"
"3","3","encoding","encoding","60","D31.jpg","3",".","37","0","740"
"3","3","encoding","encoding","61","C62.jpg","1",".","37","0","702"
"3","3","encoding","encoding","62","D70.jpg","3",".","37","0","868"
"3","3","encoding","encoding","63","D14.jpg","3",".","37","0","632"
"3","3","encoding","encoding","64","C38.jpg","1",".","37","0","727"
"3","3","encoding","encoding","65","C5.jpg","1",".","37","0","892"
"3","3","encoding","encoding","67","C61.jpg","1",".","37","0","943"
"3","3","encoding","encoding","68","D28.jpg","3",".","37","0","787"
"3","3","encoding","encoding","69","D32.jpg","3",".","37","0","774"
"3","3","encoding","encoding","70","D38.jpg","3",".","37","0","695"
"3","3","encoding","encoding","71","D20.jpg","3",".","37","0","681"
"3","3","encoding","encoding","72","D37.jpg","3",".","37","0","626"
"3","3","encoding","encoding","73","D60.jpg","3",".","37","0","550"
"3","3","encoding","encoding","74","D72.jpg","3",".","37","0","723"
"3","3","encoding","encoding","75","D3.jpg","3",".","37","0","573"
"3","3","encoding","encoding","76","D38.jpg","3",".","37","0","580"
"3","3","encoding","encoding","77","C23.jpg","1",".","37","0","897"
"3","3","encoding","encoding","78","C76.jpg","1",".","37","0","792"
"3","3","encoding","encoding","79","D64.jpg","3",".","0","0","1000"
"3","3","encoding","encoding","80","D37.jpg","3",".","37","0","608"
"3","3","encoding","encoding","81","D40.jpg","3",".","37","0","626"
"3","3","encoding","encoding","82","D9.jpg","3",".","37","0","706"
"3","3","encoding","encoding","83","D18.jpg","3",".","37","0","753"
"3","3","encoding","encoding","84","D55.jpg","3",".","37","0","748"
"3","3","encoding","encoding","85","D14.jpg","3",".","37","0","533"
"3","3","encoding","encoding","86","C52.jpg","1",".","37","0","658"
"3","3","encoding","encoding","87","D4.jpg","3",".","37","0","838"
"3","3","encoding","encoding","88","D65.jpg","3",".","37","0","691"
"3","3","encoding","encoding","89","D24.jpg","3",".","37","0","775"
"3","3","encoding","encoding","90","D22.jpg","3",".","37","0","600"
"3","3","encoding","encoding","91","D69.jpg","3",".","37","0","826"
"3","3","encoding","encoding","92","D60.jpg","3",".","37","0","668"
"3","3","encoding","encoding","93","D32.jpg","3",".","37","0","694"
"3","3","encoding","encoding","94","C31.jpg","1",".","37","0","564"
"3","3","encoding","encoding","95","D56.jpg","3",".","37","0","732"
"3","3","encoding","encoding","96","D35.jpg","3",".","37","0","534"
"3","3","encoding","encoding","97","D46.jpg","3",".","37","0","679"
"3","3","encoding","encoding","98","C17.jpg","1",".","37","0","528"
"3","3","encoding","encoding","99","D36.jpg","3",".","37","0","743"
"3","3","encoding","encoding","100","D2.jpg","3",".","37","0","673"
"3","3","encoding","encoding","101","D15.jpg","3",".","37","0","717"
"3","3","encoding","encoding","102","C21.jpg","1",".","37","0","730"
"3","3","encoding","encoding","103","D5.jpg","3",".","37","0","588"
"3","3","encoding","encoding","104","D39.jpg","3",".","37","0","551"
"3","3","encoding","encoding","105","C45.jpg","1",".","37","0","608"
"3","3","encoding","encoding","106","D42.jpg","3",".","37","0","670"
"3","3","encoding","encoding","107","D63.jpg","3",".","37","0","626"
"3","3","encoding","encoding","108","D30.jpg","3",".","36","0","948"
"3","3","encoding","encoding","109","D59.jpg","3",".","37","0","704"
"3","3","encoding","encoding","110","D28.jpg","3",".","37","0","671"
"3","3","encoding","encoding","111","C42.jpg","1",".","37","0","735"
"3","3","encoding","encoding","112","D43.jpg","3",".","37","0","564"
"3","3","encoding","encoding","113","C44.jpg","1",".","37","0","526"
"3","3","encoding","encoding","114","D53.jpg","3",".","37","0","644"
"3","3","encoding","encoding","115","D10.jpg","3",".","36","0","865"
"3","3","encoding","encoding","116","C79.jpg","1",".","36","0","816"
"3","3","encoding","encoding","117","C7.jpg","1",".","36","0","715"
"3","3","encoding","encoding","118","D39.jpg","3",".","37","0","626"
"3","3","encoding","encoding","119","D50.jpg","3",".","37","0","613"
"3","3","encoding","encoding","120","D5.jpg","3",".","37","0","642"
"3","3","encoding","encoding","121","D44.jpg","3",".","37","0","791"
"3","3","encoding","encoding","122","C25.jpg","1",".","37","0","683"
"3","3","encoding","encoding","123","D56.jpg","3",".","37","0","528"
"3","3","encoding","encoding","124","D18.jpg","3",".","37","0","716"
"3","3","encoding","encoding","125","D74.jpg","3",".","37","0","833"
"3","3","encoding","encoding","126","D10.jpg","3",".","36","0","715"
"3","3","encoding","encoding","127","D67.jpg","3",".","36","0","778"
"3","3","encoding","encoding","128","D44.jpg","3",".","37","0","612"
"3","3","encoding","encoding","129","D78.jpg","3",".","37","0","716"
"3","3","encoding","encoding","130","C71.jpg","1",".","37","0","720"
"3","3","encoding","encoding","131","D34.jpg","3",".","37","0","931"
"3","3","encoding","encoding","133","D3.jpg","3",".","37","0","638"
"3","3","encoding","encoding","134","D42.jpg","3",".","37","0","643"
"3","3","encoding","encoding","135","D61.jpg","3",".","37","0","740"
"3","3","encoding","encoding","136","D26.jpg","3",".","0","0","1000"
"3","3","encoding","encoding","137","D57.jpg","3",".","37","0","545"
"3","3","encoding","encoding","138","C19.jpg","1",".","36","0","669"
"3","3","encoding","encoding","139","C56.jpg","1",".","36","0","733"
"3","3","encoding","encoding","140","D77.jpg","3",".","37","0","595"
"3","3","encoding","encoding","141","D5.jpg","3",".","37","0","652"
"3","3","encoding","encoding","142","C37.jpg","1",".","37","0","864"
"3","3","encoding","encoding","143","C70.jpg","1",".","37","0","907"
"3","3","encoding","encoding","144","D67.jpg","3",".","0","0","1000"
"3","3","encoding","encoding","145","C30.jpg","1",".","37","0","661"
"3","3","encoding","encoding","146","C75.jpg","1",".","37","0","628"
"3","3","encoding","encoding","147","D50.jpg","3",".","37","0","605"
"3","3","encoding","encoding","148","D10.jpg","3",".","36","0","651"
"3","3","encoding","encoding","149","D46.jpg","3",".","37","0","601"
"3","3","encoding","encoding","150","C46.jpg","1",".","37","0","869"
"3","3","encoding","encoding","151","D26.jpg","3",".","36","0","730"
"3","3","encoding","encoding","152","D11.jpg","3",".","37","0","637"
"3","3","encoding","encoding","153","D3.jpg","3",".","37","0","574"
"3","3","encoding","encoding","154","D66.jpg","3",".","37","0","599"
"3","3","encoding","encoding","155","D1.jpg","3",".","37","0","874"
"3","3","encoding","encoding","156","D31.jpg","3",".","37","0","719"
"3","3","encoding","encoding","157","D52.jpg","3",".","37","0","725"
"3","3","encoding","encoding","158","D67.jpg","3",".","36","0","598"
"3","3","encoding","encoding","159","D54.jpg","3",".","36","0","749"
"3","3","encoding","encoding","160","C0.jpg","1",".","36","0","654"
"3","3","encoding","encoding","161","D23.jpg","3",".","37","0","616"
"3","3","encoding","encoding","162","D42.jpg","3",".","37","0","621"
"3","3","encoding","encoding","163","C59.jpg","1",".","37","0","548"
"3","3","encoding","encoding","164","D0.jpg","3",".","37","0","639"
"3","3","encoding","encoding","165","D62.jpg","3",".","36","0","649"
"3","3","encoding","encoding","166","C66.jpg","1",".","37","0","577"
"3","3","encoding","encoding","167","D8.jpg","3",".","37","0","545"
"3","3","encoding","encoding","168","D11.jpg","3",".","37","0","607"
"3","3","encoding","encoding","169","D47.jpg","3",".","37","0","697"
"3","3","encoding","encoding","170","D78.jpg","3",".","37","0","614"
"3","3","encoding","encoding","171","D51.jpg","3",".","37","0","732"
"3","3","encoding","encoding","172","C3.jpg","1",".","37","0","561"
"3","3","encoding","encoding","173","D73.jpg","3",".","37","0","545"
"3","3","encoding","encoding","174","D36.jpg","3",".","37","0","630"
"3","3","encoding","encoding","175","D52.jpg","3",".","37","0","554"
"3","3","encoding","encoding","176","C77.jpg","1",".","36","0","658"
"3","3","encoding","encoding","177","D45.jpg","3",".","36","0","708"
"3","3","encoding","encoding","178","D29.jpg","3",".","36","0","702"
"3","3","encoding","encoding","179","D47.jpg","3",".","37","0","643"
"3","3","encoding","encoding","180","D37.jpg","3",".","37","0","617"
"3","3","encoding","encoding","181","D15.jpg","3",".","37","0","559"
"3","3","encoding","encoding","182","D12.jpg","3",".","37","0","668"
"3","3","encoding","encoding","183","C24.jpg","1",".","37","0","686"
"3","3","encoding","encoding","184","D9.jpg","3",".","37","0","574"
"3","3","encoding","encoding","185","C39.jpg","1",".","37","0","771"
"3","3","encoding","encoding","186","D29.jpg","3",".","36","0","661"
"3","3","encoding","encoding","187","C4.jpg","1",".","37","0","775"
"3","3","encoding","encoding","188","C49.jpg","1",".","37","0","671"
"3","3","encoding","encoding","189","D53.jpg","3",".","37","0","641"
"3","3","encoding","encoding","190","D64.jpg","3",".","37","0","705"
"3","3","encoding","encoding","191","D73.jpg","3",".","37","0","578"
"3","3","encoding","encoding","192","D45.jpg","3",".","36","0","672"
"3","3","encoding","encoding","193","D75.jpg","3",".","36","0","705"
"3","3","encoding","encoding","194","D17.jpg","3",".","36","0","726"
"3","3","encoding","encoding","195","D76.jpg","3",".","37","0","697"
"3","3","encoding","encoding","196","D64.jpg","3",".","37","0","599"
"3","3","encoding","encoding","197","D24.jpg","3",".","37","0","540"
"3","3","encoding","encoding","199","D59.jpg","3",".","37","0","667"
"3","3","encoding","encoding","200","D77.jpg","3",".","37","0","621"
"3","3","encoding","encoding","201","C48.jpg","1",".","37","0","562"
"3","3","encoding","encoding","202","D74.jpg","3",".","37","0","581"
"3","3","encoding","encoding","203","D79.jpg","3",".","37","0","607"
"3","3","encoding","encoding","204","C54.jpg","1",".","37","0","605"
"3","3","encoding","encoding","205","D70.jpg","3",".","37","0","537"
"3","3","encoding","encoding","206","C13.jpg","1",".","37","0","776"
"3","3","encoding","encoding","207","D78.jpg","3",".","37","0","638"
"3","3","encoding","encoding","208","D34.jpg","3",".","37","0","597"
"3","3","encoding","encoding","209","D38.jpg","3",".","37","0","491"
"3","3","encoding","encoding","210","D25.jpg","3",".","37","0","776"
"3","3","encoding","encoding","211","D31.jpg","3",".","37","0","623"
"3","3","encoding","encoding","212","D53.jpg","3",".","37","0","656"
"3","3","encoding","encoding","213","C9.jpg","1",".","37","0","834"
"3","3","encoding","encoding","214","D63.jpg","3",".","37","0","565"
"3","3","encoding","encoding","215","D28.jpg","3",".","37","0","653"
"3","3","encoding","encoding","216","C1.jpg","1",".","37","0","652"
"3","3","encoding","encoding","217","D57.jpg","3",".","36","0","663"
"3","3","encoding","encoding","218","D41.jpg","3",".","0","0","1000"
"3","3","encoding","encoding","219","D55.jpg","3",".","37","0","666"
"3","3","encoding","encoding","220","D18.jpg","3",".","37","0","675"
"3","3","encoding","encoding","221","D66.jpg","3",".","37","0","614"
"3","3","encoding","encoding","222","C32.jpg","1",".","37","0","668"
"3","3","encoding","encoding","223","D71.jpg","3",".","37","0","586"
"3","3","encoding","encoding","224","D54.jpg","3",".","36","0","623"
"3","3","encoding","encoding","225","D79.jpg","3",".","37","0","719"
"3","3","encoding","encoding","226","D33.jpg","3",".","37","0","675"
"3","3","encoding","encoding","227","D8.jpg","3",".","37","0","571"
"3","3","encoding","encoding","228","D21.jpg","3",".","37","0","599"
"3","3","encoding","encoding","229","C20.jpg","1",".","37","0","771"
"3","3","encoding","encoding","230","C22.jpg","1",".","37","0","618"
"3","3","encoding","encoding","231","D36.jpg","3",".","37","0","617"
"3","3","encoding","encoding","232","D74.jpg","3",".","37","0","513"
"3","3","encoding","encoding","233","D14.jpg","3",".","37","0","542"
"3","3","encoding","encoding","234","D34.jpg","3",".","37","0","579"
"3","3","encoding","encoding","235","D54.jpg","3",".","36","0","597"
"3","3","encoding","encoding","236","D61.jpg","3",".","37","0","824"
"3","3","encoding","encoding","237","D56.jpg","3",".","37","0","640"
"3","3","encoding","encoding","238","D44.jpg","3",".","37","0","623"
"3","3","encoding","encoding","239","D4.jpg","3",".","37","0","908"
"3","3","encoding","encoding","240","D1.jpg","3",".","37","0","910"
"3","3","encoding","encoding","241","D21.jpg","3",".","37","0","751"
"3","3","encoding","encoding","242","D20.jpg","3",".","37","0","894"
"3","3","encoding","encoding","243","D23.jpg","3",".","37","0","522"
"3","3","encoding","encoding","244","C8.jpg","1",".","37","0","854"
"3","3","encoding","encoding","245","D65.jpg","3",".","37","0","651"
"3","3","encoding","encoding","246","D49.jpg","3",".","36","0","603"
"3","3","encoding","encoding","247","C68.jpg","1",".","37","0","642"
"3","3","encoding","encoding","248","D43.jpg","3",".","37","0","573"
"3","3","encoding","encoding","249","C51.jpg","1",".","37","0","644"
"3","3","encoding","encoding","250","D16.jpg","3",".","37","0","660"
"3","3","encoding","encoding","251","D25.jpg","3",".","36","0","711"
"3","3","encoding","encoding","252","D19.jpg","3",".","37","0","658"
"3","3","encoding","encoding","253","D68.jpg","3",".","37","0","766"
"3","3","encoding","encoding","254","D76.jpg","3",".","37","0","537"
"3","3","encoding","encoding","255","D24.jpg","3",".","37","0","526"
"3","3","encoding","encoding","256","D72.jpg","3",".","37","0","736"
"3","3","encoding","encoding","257","D41.jpg","3",".","36","0","707"
"3","3","encoding","encoding","258","C41.jpg","1",".","37","0","683"
"3","3","encoding","encoding","259","D20.jpg","3",".","37","0","597"
"3","3","encoding","encoding","260","C15.jpg","1",".","37","0","653"
"3","3","encoding","encoding","261","C6.jpg","1",".","37","0","706"
"3","3","encoding","encoding","262","C43.jpg","1",".","37","0","661"
"3","3","encoding","encoding","263","D71.jpg","3",".","37","0","539"
"3","3","encoding","encoding","265","D75.jpg","3",".","36","0","705"
"3","3","encoding","encoding","266","D32.jpg","3",".","37","0","768"
"3","3","encoding","encoding","267","D17.jpg","3",".","36","0","828"
"3","3","encoding","encoding","268","C50.jpg","1",".","37","0","702"
"3","3","encoding","encoding","269","D46.jpg","3",".","37","0","770"
"3","3","encoding","encoding","270","D69.jpg","3",".","36","0","920"
"3","3","encoding","encoding","271","D35.jpg","3",".","37","0","946"
"3","3","encoding","encoding","272","D26.jpg","3",".","36","0","726"
"3","3","encoding","encoding","273","D52.jpg","3",".","37","0","508"
"3","3","encoding","encoding","274","D12.jpg","3",".","37","0","632"
"3","3","encoding","encoding","275","D70.jpg","3",".","37","0","501"
"3","3","encoding","encoding","276","D30.jpg","3",".","37","0","898"
"3","3","encoding","encoding","277","D48.jpg","3",".","37","0","769"
"3","3","encoding","encoding","278","C28.jpg","1",".","37","0","607"
"3","3","encoding","encoding","279","D69.jpg","3",".","36","0","588"
"3","3","encoding","encoding","280","C40.jpg","1",".","37","0","621"
"3","3","encoding","encoding","281","D27.jpg","3",".","37","0","646"
"3","3","encoding","encoding","282","D11.jpg","3",".","37","0","579"
"3","3","encoding","encoding","283","D49.jpg","3",".","36","0","591"
"3","3","encoding","encoding","284","D13.jpg","3",".","37","0","582"
"3","3","encoding","encoding","285","D65.jpg","3",".","37","0","510"
"3","3","encoding","encoding","286","C29.jpg","1",".","37","0","614"
"3","3","encoding","encoding","287","C10.jpg","1",".","37","0","614"
"3","3","encoding","encoding","288","D68.jpg","3",".","37","0","652"
"3","3","encoding","encoding","289","D77.jpg","3",".","37","0","518"
"3","3","encoding","encoding","290","C18.jpg","1",".","37","0","708"
"3","3","encoding","encoding","291","D51.jpg","3",".","37","0","708"
"3","3","encoding","encoding","292","C34.jpg","1",".","37","0","583"
"3","3","encoding","encoding","293","D0.jpg","3",".","37","0","552"
"3","3","encoding","encoding","294","D59.jpg","3",".","37","0","515"
"3","3","encoding","encoding","295","C78.jpg","1",".","37","0","573"
"3","3","encoding","encoding","296","C2.jpg","1",".","37","0","535"
"3","3","encoding","encoding","297","D48.jpg","3",".","37","0","521"
"3","3","encoding","encoding","298","D1.jpg","3",".","37","0","841"
"3","3","encoding","encoding","299","D62.jpg","3",".","37","0","895"
"3","3","encoding","encoding","300","D72.jpg","3",".","37","0","552"
"3","3","encoding","encoding","301","C72.jpg","1",".","37","0","571"
"3","3","encoding","encoding","302","D33.jpg","3",".","37","0","461"
"3","3","encoding","encoding","303","C65.jpg","1",".","37","0","523"
"3","3","encoding","encoding","304","D30.jpg","3",".","36","0","772"
"3","3","encoding","encoding","305","D25.jpg","3",".","36","0","717"
"3","3","encoding","encoding","306","D2.jpg","3",".","37","0","692"
"3","3","encoding","encoding","307","D79.jpg","3",".","37","0","711"
"3","3","encoding","encoding","308","D7.jpg","3",".","37","0","598"
"3","3","encoding","encoding","309","C57.jpg","1",".","37","0","849"
"3","3","encoding","encoding","310","D55.jpg","3",".","37","0","566"
"3","3","encoding","encoding","311","C55.jpg","1",".","37","0","674"
"3","3","encoding","encoding","312","D22.jpg","3",".","37","0","664"
"3","3","encoding","encoding","313","D27.jpg","3",".","37","0","622"
"3","3","encoding","encoding","314","D2.jpg","3",".","37","0","595"
"3","3","encoding","encoding","315","D9.jpg","3",".","37","0","561"
"3","3","encoding","encoding","316","D13.jpg","3",".","37","0","464"
"3","3","encoding","encoding","317","D19.jpg","3",".","37","0","606"
"3","3","encoding","encoding","318","D58.jpg","3",".","36","0","600"
"3","3","encoding","encoding","319","C64.jpg","1",".","37","0","739"
"3","3","encoding","encoding","320","D75.jpg","3",".","36","0","694"
"3","3","encoding","encoding","321","D47.jpg","3",".","37","0","735"
"3","3","encoding","encoding","322","D0.jpg","3",".","37","0","568"
"3","3","encoding","encoding","323","D4.jpg","3",".","37","0","643"
"3","3","encoding","encoding","324","D40.jpg","3",".","37","0","732"
"3","3","encoding","encoding","325","D43.jpg","",".","37","0","593"
"3","3","retrieval","new_object","1","A11.jpg",".",".","37","1","1355"
"3","3","retrieval","new_object","2","A45.jpg",".",".","37","1","915"
"3","3","retrieval","new_object","3","A52.jpg",".",".","37","1","690"
"3","3","retrieval","old_object","4","C30.jpg",".","1","36","1","1189"
"3","3","retrieval","old_object","5","D23.jpg",".","3","36","1","757"
"3","3","retrieval","new_object","6","B64.jpg",".",".","37","1","773"
"3","3","retrieval","old_object","7","D72.jpg",".","3","36","1","1083"
"3","3","retrieval","new_object","8","B65.jpg",".",".","37","1","997"
"3","3","retrieval","old_object","9","D73.jpg",".","3","36","1","1470"
"3","3","retrieval","old_object","10","D43.jpg",".","3","36","1","763"
"3","3","retrieval","new_object","11","A75.jpg",".",".","37","1","915"
"3","3","retrieval","old_object","12","C44.jpg",".","1","37","0","1222"
"3","3","retrieval","old_object","13","C58.jpg",".","1","36","1","1503"
"3","3","retrieval","old_object","14","D2.jpg",".","3","36","1","1051"
"3","3","retrieval","new_object","15","B41.jpg",".",".","37","1","917"
"3","3","retrieval","new_object","16","A39.jpg",".",".","37","1","1177"
"3","3","retrieval","old_object","17","C10.jpg",".","1","36","1","981"
"3","3","retrieval","new_object","18","A54.jpg",".",".","37","1","894"
"3","3","retrieval","new_object","19","A44.jpg",".",".","37","1","1026"
"3","3","retrieval","old_object","20","D63.jpg",".","3","36","1","983"
"3","3","retrieval","old_object","21","C50.jpg",".","1","36","1","953"
"3","3","retrieval","old_object","22","D64.jpg",".","3","36","1","893"
"3","3","retrieval","old_object","23","D19.jpg",".","3","36","1","788"
"3","3","retrieval","new_object","24","B75.jpg",".",".","37","1","781"
"3","3","retrieval","new_object","25","B66.jpg",".",".","37","1","793"
"3","3","retrieval","old_object","26","D33.jpg",".","3","36","1","728"
"3","3","retrieval","old_object","27","C56.jpg",".","1","36","1","1416"
"3","3","retrieval","old_object","28","C19.jpg",".","1","37","0","1207"
"3","3","retrieval","new_object","29","B56.jpg",".",".","37","1","1136"
"3","3","retrieval","new_object","30","B48.jpg",".",".","37","1","1261"
"3","3","retrieval","old_object","31","D10.jpg",".","3","36","1","794"
"3","3","retrieval","old_object","32","D25.jpg",".","3","36","1","751"
"3","3","retrieval","old_object","33","D46.jpg",".","3","36","1","750"
"3","3","retrieval","old_object","34","C2.jpg",".","1","36","1","826"
"3","3","retrieval","new_object","35","B42.jpg",".",".","37","1","782"
"3","3","retrieval","old_object","36","D49.jpg",".","3","36","1","969"
"3","3","retrieval","new_object","37","B18.jpg",".",".","37","1","910"
"3","3","retrieval","new_object","38","B79.jpg",".",".","37","1","1494"
"3","3","retrieval","new_object","39","A20.jpg",".",".","37","1","1353"
"3","3","retrieval","new_object","40","A63.jpg",".",".","37","1","1440"
"3","3","retrieval","old_object","41","D21.jpg",".","3","36","1","784"
"3","3","retrieval","old_object","42","D48.jpg",".","3","36","1","782"
"3","3","retrieval","new_object","43","B47.jpg",".",".","37","1","969"
"3","3","retrieval","old_object","44","C21.jpg",".","1","36","1","1068"
"3","3","retrieval","old_object","45","D76.jpg",".","3","36","1","820"
"3","3","retrieval","old_object","46","C12.jpg",".","1","36","1","1040"
"3","3","retrieval","old_object","47","C22.jpg",".","1","36","1","1038"
"3","3","retrieval","new_object","48","B21.jpg",".",".","37","1","846"
"3","3","retrieval","new_object","49","A40.jpg",".",".","37","1","963"
"3","3","retrieval","new_object","50","A59.jpg",".",".","37","1","945"
"3","3","retrieval","new_object","51","A36.jpg",".",".","37","1","1021"
"3","3","retrieval","new_object","52","A37.jpg",".",".","37","1","943"
"3","3","retrieval","new_object","53","B40.jpg",".",".","37","1","852"
"3","3","retrieval","new_object","54","B44.jpg",".",".","37","1","748"
"3","3","retrieval","old_object","55","D12.jpg",".","3","36","1","733"
"3","3","retrieval","old_object","56","C20.jpg",".","1","36","1","828"
"3","3","retrieval","new_object","57","B20.jpg",".",".","37","1","876"
"3","3","retrieval","old_object","58","C34.jpg",".","1","36","1","927"
"3","3","retrieval","new_object","59","B16.jpg",".",".","37","1","1056"
"3","3","retrieval","old_object","60","D78.jpg",".","3","36","1","1106"
"3","3","retrieval","old_object","61","C39.jpg",".","1","36","1","931"
"3","3","retrieval","new_object","62","B74.jpg",".",".","37","1","961"
"3","3","retrieval","old_object","63","D20.jpg",".","3","36","1","966"
"3","3","retrieval","old_object","64","C70.jpg",".","1","37","0","1252"
"3","3","retrieval","new_object","65","A25.jpg",".",".","37","1","1068"
"3","3","retrieval","new_object","67","A7.jpg",".",".","37","1","798"
"3","3","retrieval","old_object","68","C57.jpg",".","1","36","1","993"
"3","3","retrieval","old_object","69","C27.jpg",".","1","37","0","1144"
"3","3","retrieval","new_object","70","B54.jpg",".",".","37","1","805"
"3","3","retrieval","new_object","71","A65.jpg",".",".","37","1","1242"
"3","3","retrieval","old_object","72","C64.jpg",".","1","36","1","866"
"3","3","retrieval","new_object","73","A69.jpg",".",".","37","1","977"
"3","3","retrieval","new_object","74","B37.jpg",".",".","37","1","830"
"3","3","retrieval","new_object","75","A74.jpg",".",".","37","1","868"
"3","3","retrieval","new_object","76","A14.jpg",".",".","37","1","1083"
"3","3","retrieval","new_object","77","A21.jpg",".",".","37","1","857"
"3","3","retrieval","old_object","78","C15.jpg",".","1","36","1","967"
"3","3","retrieval","new_object","79","A70.jpg",".",".","37","1","821"
"3","3","retrieval","old_object","80","C35.jpg",".","1","36","1","1055"
"3","3","retrieval","old_object","81","D11.jpg",".","3","36","1","822"
"3","3","retrieval","new_object","82","B35.jpg",".",".","37","1","911"
"3","3","retrieval","old_object","83","D51.jpg",".","3","36","1","867"
"3","3","retrieval","new_object","84","A79.jpg",".",".","37","1","1127"
"3","3","retrieval","old_object","85","C62.jpg",".","1","37","0","1084"
"3","3","retrieval","old_object","86","C11.jpg",".","1","36","1","1019"
"3","3","retrieval","new_object","87","B36.jpg",".",".","37","1","878"
"3","3","retrieval","old_object","88","D56.jpg",".","3","36","1","910"
"3","3","retrieval","new_object","89","A67.jpg",".",".","37","1","744"
"3","3","retrieval","new_object","90","B68.jpg",".",".","37","1","1134"
"3","3","retrieval","old_object","91","D69.jpg",".","3","36","1","809"
"3","3","retrieval","old_object","92","C68.jpg",".","1","36","1","1129"
"3","3","retrieval","new_object","93","A77.jpg",".",".","37","1","966"
"3","3","retrieval","new_object","94","A6.jpg",".",".","37","1","999"
"3","3","retrieval","new_object","95","B27.jpg",".",".","37","1","889"
"3","3","retrieval","old_object","96","C3.jpg",".","1","0","0","2000"
"3","3","retrieval","old_object","97","C13.jpg",".","1","36","1","1143"
"3","3","retrieval","old_object","98","D14.jpg",".","3","36","1","779"
"3","3","retrieval","old_object","99","C69.jpg",".","1","36","1","907"
"3","3","retrieval","new_object","100","A73.jpg",".",".","37","1","752"
"3","3","retrieval","new_object","101","B13.jpg",".",".","37","1","856"
"3","3","retrieval","old_object","102","C14.jpg",".","1","37","0","948"
"3","3","retrieval","old_object","103","C4.jpg",".","1","36","1","877"
"3","3","retrieval","old_object","104","C54.jpg",".","1","36","1","778"
"3","3","retrieval","new_object","105","A17.jpg",".",".","37","1","844"
"3","3","retrieval","new_object","106","B78.jpg",".",".","37","1","1033"
"3","3","retrieval","old_object","107","D70.jpg",".","3","37","0","816"
"3","3","retrieval","old_object","108","C38.jpg",".","1","37","0","1265"
"3","3","retrieval","new_object","109","A13.jpg",".",".","37","1","1116"
"3","3","retrieval","old_object","110","C77.jpg",".","1","36","1","1386"
"3","3","retrieval","new_object","111","B19.jpg",".",".","37","1","797"
"3","3","retrieval","new_object","112","B60.jpg",".",".","37","1","1083"
"3","3","retrieval","old_object","113","C60.jpg",".","1","37","0","1254"
"3","3","retrieval","new_object","114","B34.jpg",".",".","37","1","1135"
"3","3","retrieval","old_object","115","D3.jpg",".","3","36","1","808"
"3","3","retrieval","new_object","116","B26.jpg",".",".","37","1","959"
"3","3","retrieval","old_object","117","C48.jpg",".","1","36","1","1004"
"3","3","retrieval","old_object","118","C7.jpg",".","1","37","0","1284"
"3","3","retrieval","old_object","119","C28.jpg",".","1","36","1","939"
"3","3","retrieval","old_object","120","D5.jpg",".","3","36","1","779"
"3","3","retrieval","old_object","121","D39.jpg",".","3","36","1","921"
"3","3","retrieval","old_object","122","D31.jpg",".","3","36","1","924"
"3","3","retrieval","old_object","123","C23.jpg",".","1","36","1","1036"
"3","3","retrieval","new_object","124","A26.jpg",".",".","37","1","1117"
"3","3","retrieval","old_object","125","C51.jpg",".","1","36","1","1152"
"3","3","retrieval","old_object","126","D79.jpg",".","3","36","1","778"
"3","3","retrieval","new_object","127","A3.jpg",".",".","37","1","796"
"3","3","retrieval","new_object","128","B3.jpg",".",".","37","1","856"
"3","3","retrieval","old_object","129","C42.jpg",".","1","37","0","1508"
"3","3","retrieval","new_object","130","B17.jpg",".",".","37","1","796"
"3","3","retrieval","old_object","131","C63.jpg",".","1","37","0","1500"
"3","3","retrieval","new_object","133","B5.jpg",".",".","37","1","989"
"3","3","retrieval","new_object","134","A19.jpg",".",".","37","1","1162"
"3","3","retrieval","old_object","135","D27.jpg",".","3","36","1","1169"
"3","3","retrieval","old_object","136","D62.jpg",".","3","36","1","939"
"3","3","retrieval","new_object","137","B63.jpg",".",".","37","1","871"
"3","3","retrieval","old_object","138","C26.jpg",".","1","36","1","1002"
"3","3","retrieval","old_object","139","D9.jpg",".","3","36","1","825"
"3","3","retrieval","old_object","140","D40.jpg",".","3","36","1","837"
"3","3","retrieval","old_object","141","C0.jpg",".","1","37","0","856"
"3","3","retrieval","new_object","142","B45.jpg",".",".","37","1","1062"
"3","3","retrieval","new_object","143","B52.jpg",".",".","37","1","1063"
"3","3","retrieval","new_object","144","B39.jpg",".",".","37","1","1108"
"3","3","retrieval","new_object","145","B2.jpg",".",".","37","1","999"
"3","3","retrieval","old_object","146","C6.jpg",".","1","36","1","1010"
"3","3","retrieval","new_object","147","B8.jpg",".",".","36","0","890"
"3","3","retrieval","new_object","148","A68.jpg",".",".","37","1","1248"
"3","3","retrieval","old_object","149","D28.jpg",".","3","36","1","838"
"3","3","retrieval","new_object","150","B32.jpg",".",".","37","1","965"
"3","3","retrieval","old_object","151","C18.jpg",".","1","36","1","859"
"3","3","retrieval","old_object","152","D18.jpg",".","3","36","1","771"
"3","3","retrieval","new_object","153","B62.jpg",".",".","37","1","951"
"3","3","retrieval","new_object","154","A76.jpg",".",".","36","0","1055"
"3","3","retrieval","new_object","155","A10.jpg",".",".","36","0","1365"
"3","3","retrieval","old_object","156","C76.jpg",".","1","36","1","891"
"3","3","retrieval","new_object","157","A15.jpg",".",".","37","1","1280"
"3","3","retrieval","new_object","158","B12.jpg",".",".","37","1","1244"
"3","3","retrieval","old_object","159","C16.jpg",".","1","36","1","932"
"3","3","retrieval","old_object","160","C1.jpg",".","1","36","1","1000"
"3","3","retrieval","old_object","161","D77.jpg",".","3","36","1","720"
"3","3","retrieval","old_object","162","C40.jpg",".","1","36","1","859"
"3","3","retrieval","old_object","163","D32.jpg",".","3","36","1","897"
"3","3","retrieval","new_object","164","B4.jpg",".",".","37","1","855"
"3","3","retrieval","new_object","165","A55.jpg",".",".","37","1","953"
"3","3","retrieval","old_object","166","D16.jpg",".","3","36","1","1028"
"3","3","retrieval","new_object","167","B46.jpg",".",".","37","1","941"
"3","3","retrieval","new_object","168","B76.jpg",".",".","37","1","1099"
"3","3","retrieval","new_object","169","A35.jpg",".",".","37","1","861"
"3","3","retrieval","old_object","170","C45.jpg",".","1","36","1","1020"
"3","3","retrieval","old_object","171","C66.jpg",".","1","36","1","947"
"3","3","retrieval","new_object","172","B25.jpg",".",".","37","1","768"
"3","3","retrieval","old_object","173","C79.jpg",".","1","36","1","832"
"3","3","retrieval","old_object","174","D6.jpg",".","3","36","1","941"
"3","3","retrieval","new_object","175","A60.jpg",".",".","36","0","910"
"3","3","retrieval","new_object","176","A30.jpg",".",".","37","1","1109"
"3","3","retrieval","old_object","177","C49.jpg",".","1","36","1","891"
"3","3","retrieval","new_object","178","A24.jpg",".",".","37","1","1044"
"3","3","retrieval","new_object","179","B53.jpg",".",".","37","1","818"
"3","3","retrieval","old_object","180","C47.jpg",".","1","36","1","773"
"3","3","retrieval","old_object","181","C65.jpg",".","1","37","0","795"
"3","3","retrieval","old_object","182","C43.jpg",".","1","36","1","1209"
"3","3","retrieval","old_object","183","D54.jpg",".","3","36","1","777"
"3","3","retrieval","new_object","184","B50.jpg",".",".","37","1","821"
"3","3","retrieval","new_object","185","A5.jpg",".",".","37","1","1188"
"3","3","retrieval","old_object","186","D17.jpg",".","3","36","1","1007"
"3","3","retrieval","old_object","187","D15.jpg",".","3","36","1","854"
"3","3","retrieval","new_object","188","B70.jpg",".",".","36","0","915"
"3","3","retrieval","old_object","189","C41.jpg",".","1","36","1","1024"
"3","3","retrieval","new_object","190","A0.jpg",".",".","37","1","970"
"3","3","retrieval","old_object","191","D4.jpg",".","3","36","1","1013"
"3","3","retrieval","old_object","192","C72.jpg",".","1","36","1","868"
"3","3","retrieval","new_object","193","A28.jpg",".",".","37","1","1247"
"3","3","retrieval","new_object","194","B29.jpg",".",".","37","1","1088"
"3","3","retrieval","new_object","195","B31.jpg",".",".","37","1","752"
"3","3","retrieval","new_object","196","A61.jpg",".",".","37","1","971"
"3","3","retrieval","old_object","197","C29.jpg",".","1","37","0","1219"
"3","3","retrieval","old_object","199","C31.jpg",".","1","37","0","1011"
"3","3","retrieval","old_object","200","D59.jpg",".","3","36","1","944"
"3","3","retrieval","old_object","201","D50.jpg",".","3","36","1","864"
"3","3","retrieval","new_object","202","A47.jpg",".",".","37","1","793"
"3","3","retrieval","new_object","203","B77.jpg",".",".","37","1","1174"
"3","3","retrieval","new_object","204","B73.jpg",".",".","37","1","1145"
"3","3","retrieval","new_object","205","A58.jpg",".",".","37","1","813"
"3","3","retrieval","new_object","206","A18.jpg",".",".","37","1","829"
"3","3","retrieval","old_object","207","C52.jpg",".","1","37","0","807"
"3","3","retrieval","new_object","208","B33.jpg",".",".","37","1","787"
"3","3","retrieval","old_object","209","D8.jpg",".","3","36","1","746"
"3","3","retrieval","new_object","210","B22.jpg",".",".","37","1","1081"
"3","3","retrieval","old_object","211","D29.jpg",".","3","36","1","889"
"3","3","retrieval","old_object","212","C46.jpg",".","1","36","1","876"
"3","3","retrieval","old_object","213","D1.jpg",".","3","36","1","860"
"3","3","retrieval","new_object","214","B10.jpg",".",".","37","1","1077"
"3","3","retrieval","new_object","215","A48.jpg",".",".","37","1","1067"
"3","3","retrieval","old_object","216","C25.jpg",".","1","36","1","899"
"3","3","retrieval","old_object","217","D24.jpg",".","3","36","1","917"
"3","3","retrieval","old_object","218","D35.jpg",".","3","36","1","897"
"3","3","retrieval","new_object","219","A29.jpg",".",".","37","1","936"
"3","3","retrieval","old_object","220","D65.jpg",".","3","36","1","888"
"3","3","retrieval","old_object","221","C33.jpg",".","1","36","1","840"
"3","3","retrieval","new_object","222","B7.jpg",".",".","37","1","869"
"3","3","retrieval","old_object","223","C8.jpg",".","1","36","1","1013"
"3","3","retrieval","old_object","224","C75.jpg",".","1","36","1","1385"
"3","3","retrieval","new_object","225","B11.jpg",".",".","37","1","840"
"3","3","retrieval","old_object","226","C59.jpg",".","1","36","1","972"
"3","3","retrieval","new_object","227","A43.jpg",".",".","37","1","1187"
"3","3","retrieval","old_object","228","D36.jpg",".","3","36","1","864"
"3","3","retrieval","new_object","229","B28.jpg",".",".","37","1","804"
"3","3","retrieval","old_object","230","D53.jpg",".","3","36","1","854"
"3","3","retrieval","new_object","231","A71.jpg",".",".","37","1","745"
"3","3","retrieval","old_object","232","C61.jpg",".","1","36","1","886"
"3","3","retrieval","new_object","233","B24.jpg",".",".","37","1","982"
"3","3","retrieval","new_object","234","A27.jpg",".",".","37","1","1209"
"3","3","retrieval","new_object","235","A53.jpg",".",".","37","1","832"
"3","3","retrieval","new_object","236","A57.jpg",".",".","37","1","929"
"3","3","retrieval","old_object","237","D67.jpg",".","3","36","1","879"
"3","3","retrieval","old_object","238","D58.jpg",".","3","36","1","760"
"3","3","retrieval","old_object","239","C9.jpg",".","1","37","0","1465"
"3","3","retrieval","old_object","240","D44.jpg",".","3","36","1","1035"
"3","3","retrieval","old_object","241","D0.jpg",".","3","36","1","860"
"3","3","retrieval","new_object","242","B49.jpg",".",".","37","1","859"
"3","3","retrieval","new_object","243","B61.jpg",".",".","37","1","814"
"3","3","retrieval","new_object","244","A51.jpg",".",".","37","1","855"
"3","3","retrieval","new_object","245","A23.jpg",".",".","37","1","972"
"3","3","retrieval","old_object","246","D57.jpg",".","3","36","1","752"
"3","3","retrieval","old_object","247","D7.jpg",".","3","37","0","1509"
"3","3","retrieval","new_object","248","B71.jpg",".",".","37","1","837"
"3","3","retrieval","new_object","249","A46.jpg",".",".","37","1","834"
"3","3","retrieval","new_object","250","A22.jpg",".",".","37","1","950"
"3","3","retrieval","old_object","251","C5.jpg",".","1","37","0","1480"
"3","3","retrieval","new_object","252","A38.jpg",".",".","37","1","666"
"3","3","retrieval","new_object","253","A56.jpg",".",".","37","1","864"
"3","3","retrieval","new_object","254","B23.jpg",".",".","37","1","1061"
"3","3","retrieval","new_object","255","B67.jpg",".",".","37","1","859"
"3","3","retrieval","old_object","256","C37.jpg",".","1","36","1","1229"
"3","3","retrieval","old_object","257","C73.jpg",".","1","37","0","1430"
"3","3","retrieval","old_object","258","C74.jpg",".","1","36","1","986"
"3","3","retrieval","old_object","259","D47.jpg",".","3","36","1","906"
"3","3","retrieval","new_object","260","A16.jpg",".",".","36","0","1434"
"3","3","retrieval","new_object","261","B69.jpg",".",".","37","1","912"
"3","3","retrieval","old_object","262","D61.jpg",".","3","36","1","1082"
"3","3","retrieval","new_object","263","B6.jpg",".",".","37","1","884"
"3","3","retrieval","old_object","265","D55.jpg",".","3","36","1","962"
"3","3","retrieval","new_object","266","B51.jpg",".",".","37","1","785"
"3","3","retrieval","new_object","267","A62.jpg",".",".","37","1","847"
"3","3","retrieval","old_object","268","D22.jpg",".","3","36","1","801"
"3","3","retrieval","old_object","269","D34.jpg",".","3","36","1","763"
"3","3","retrieval","old_object","270","C24.jpg",".","1","36","1","1049"
"3","3","retrieval","new_object","271","A49.jpg",".",".","37","1","1337"
"3","3","retrieval","new_object","272","B9.jpg",".",".","37","1","820"
"3","3","retrieval","new_object","273","B57.jpg",".",".","37","1","1039"
"3","3","retrieval","new_object","274","B1.jpg",".",".","36","0","1430"
"3","3","retrieval","old_object","275","D38.jpg",".","3","36","1","681"
"3","3","retrieval","new_object","276","A33.jpg",".",".","37","1","739"
"3","3","retrieval","new_object","277","A2.jpg",".",".","37","1","802"
"3","3","retrieval","new_object","278","A8.jpg",".",".","37","1","946"
"3","3","retrieval","old_object","279","D13.jpg",".","3","36","1","738"
"3","3","retrieval","old_object","280","C78.jpg",".","1","36","1","802"
"3","3","retrieval","new_object","281","A34.jpg",".",".","37","1","908"
"3","3","retrieval","new_object","282","A31.jpg",".",".","37","1","745"
"3","3","retrieval","old_object","283","D60.jpg",".","3","36","1","792"
"3","3","retrieval","new_object","284","B59.jpg",".",".","36","0","1390"
"3","3","retrieval","new_object","285","A42.jpg",".",".","37","1","875"
"3","3","retrieval","old_object","286","D66.jpg",".","3","36","1","809"
"3","3","retrieval","new_object","287","A50.jpg",".",".","37","1","833"
"3","3","retrieval","new_object","288","A41.jpg",".",".","37","1","829"
"3","3","retrieval","old_object","289","C67.jpg",".","1","37","0","871"
"3","3","retrieval","old_object","290","C32.jpg",".","1","37","0","737"
"3","3","retrieval","new_object","291","A32.jpg",".",".","37","1","690"
"3","3","retrieval","old_object","292","D52.jpg",".","3","36","1","949"
"3","3","retrieval","new_object","293","B14.jpg",".",".","37","1","815"
"3","3","retrieval","new_object","294","B0.jpg",".",".","37","1","894"
"3","3","retrieval","old_object","295","D68.jpg",".","3","36","1","982"
"3","3","retrieval","old_object","296","D41.jpg",".","3","36","1","771"
"3","3","retrieval","new_object","297","B38.jpg",".",".","37","1","723"
"3","3","retrieval","old_object","298","D74.jpg",".","3","36","1","845"
"3","3","retrieval","new_object","299","B15.jpg",".",".","37","1","777"
"3","3","retrieval","new_object","300","A78.jpg",".",".","37","1","882"
"3","3","retrieval","old_object","301","D37.jpg",".","3","36","1","750"
"3","3","retrieval","old_object","302","C17.jpg",".","1","37","0","842"
"3","3","retrieval","new_object","303","A1.jpg",".",".","37","1","787"
"3","3","retrieval","new_object","304","A12.jpg",".",".","37","1","828"
"3","3","retrieval","new_object","305","B43.jpg",".",".","37","1","814"
"3","3","retrieval","new_object","306","A64.jpg",".",".","37","1","817"
"3","3","retrieval","new_object","307","B30.jpg",".",".","37","1","837"
"3","3","retrieval","new_object","308","B55.jpg",".",".","37","1","771"
"3","3","retrieval","old_object","309","D26.jpg",".","3","36","1","749"
"3","3","retrieval","new_object","310","B72.jpg",".",".","37","1","803"
"3","3","retrieval","old_object","311","D42.jpg",".","3","36","1","827"
"3","3","retrieval","new_object","312","B58.jpg",".",".","37","1","1001"
"3","3","retrieval","new_object","313","A9.jpg",".",".","37","1","750"
"3","3","retrieval","new_object","314","A66.jpg",".",".","37","1","779"
"3","3","retrieval","old_object","315","D45.jpg",".","3","36","1","722"
"3","3","retrieval","new_object","316","A72.jpg",".",".","37","1","750"
"3","3","retrieval","new_object","317","A4.jpg",".",".","37","1","894"
"3","3","retrieval","old_object","318","D30.jpg",".","3","36","1","838"
"3","3","retrieval","old_object","319","D75.jpg",".","3","36","1","991"
"3","3","retrieval","old_object","320","C53.jpg",".","1","36","1","1049"
"3","3","retrieval","old_object","321","C71.jpg",".","1","36","1","949"
"3","3","retrieval","old_object","322","D71.jpg",".","3","36","1","755"
"3","3","retrieval","old_object","323","C36.jpg",".","1","37","0","1039"
"3","3","retrieval","new_object","324","A73.jpg",".",".","37","1","691"
"3","3","retrieval","old_object","325","C55.jpg",".","1","37","0","825"
"3","3","demographics_block","gender","1",".",".",".","male","1","4293488735"
"3","3","demographics_block","age","1",".",".",".","74","1","4293488735"
"3","3","demographics_block","education","1",".",".",".","13","1","4293488735"
"3","3","demographics_block","left_right_handed","2",".",".",".","Right","1","4293463919"
"3","3","demographics_block","raceoption1","2",".",".",".","0","1","4293463919"
"3","3","demographics_block","raceoption2","2",".",".",".","","1","4293463919"
"3","3","demographics_block","raceoption3","2",".",".",".","","1","4293463919"
"3","3","demographics_block","raceoption4","2",".",".",".","","1","4293463919"
"3","3","demographics_block","raceoption5","2",".",".",".","","1","4293463919"
"3","3","demographics_block","raceoption6","2",".",".",".","","1","4293463919"
"3","3","demographics_block","raceoption7","2",".",".",".","","1","4293463919"
"3","3","demographics_block","raceoption8","2",".",".",".","","1","4293463919"
"3","3","demographics_block","raceoption9","2",".",".",".","","1","4293463919"
"3","3","demographics_block","raceother","2",".",".",".","","1","4293463919"
"3","3","demographics_block","raceother","2",".",".",".","","1","4293463919"
"3","3","demographics_block","english_language","2",".",".",".","Yes","1","4293463919"
"3","3","demographics_block","other","2",".",".",".","","1","4293463919"
"3","3","demographics_block","eyesight","3",".",".",".","Yes","1","4293451292"
"3","3","demographics_block","colorblind","3",".",".",".","No","1","4293451292"
"5","5","encoding","encoding","1","D43.jpg","3",".","37","0","986"
"5","5","encoding","encoding","2","D60.jpg","3",".","36","0","762"
"5","5","encoding","encoding","3","D22.jpg","3",".","37","0","973"
"5","5","encoding","encoding","4","D66.jpg","3",".","37","0","768"
"5","5","encoding","encoding","5","D16.jpg","3",".","37","0","762"
"5","5","encoding","encoding","6","C74.jpg","1",".","37","0","573"
"5","5","encoding","encoding","7","D73.jpg","3",".","37","0","784"
"5","5","encoding","encoding","8","D16.jpg","3",".","37","0","530"
"5","5","encoding","encoding","9","D7.jpg","3",".","37","0","533"
"5","5","encoding","encoding","10","C69.jpg","1",".","37","0","600"
"5","5","encoding","encoding","11","D7.jpg","3",".","37","0","434"
"5","5","encoding","encoding","12","D45.jpg","3",".","37","0","501"
"5","5","encoding","encoding","13","D33.jpg","3",".","37","0","768"
"5","5","encoding","encoding","14","D15.jpg","3",".","37","0","602"
"5","5","encoding","encoding","15","C47.jpg","1",".","37","0","525"
"5","5","encoding","encoding","16","C60.jpg","1",".","37","0","560"
"5","5","encoding","encoding","17","D8.jpg","3",".","37","0","490"
"5","5","encoding","encoding","18","D35.jpg","3",".","37","0","621"
"5","5","encoding","encoding","19","C33.jpg","1",".","0","0","1000"
"5","5","encoding","encoding","20","C73.jpg","1",".","36","0","739"
"5","5","encoding","encoding","21","D68.jpg","3",".","37","0","517"
"5","5","encoding","encoding","22","D17.jpg","3",".","37","0","584"
"5","5","encoding","encoding","23","C12.jpg","1",".","37","0","523"
"5","5","encoding","encoding","24","D21.jpg","3",".","37","0","541"
"5","5","encoding","encoding","25","D48.jpg","3",".","37","0","528"
"5","5","encoding","encoding","26","C11.jpg","1",".","37","0","507"
"5","5","encoding","encoding","27","C14.jpg","1",".","37","0","477"
"5","5","encoding","encoding","28","D58.jpg","3",".","0","0","1000"
"5","5","encoding","encoding","29","D63.jpg","3",".","37","0","555"
"5","5","encoding","encoding","30","D29.jpg","3",".","37","0","693"
"5","5","encoding","encoding","31","D27.jpg","3",".","37","0","424"
"5","5","encoding","encoding","32","D50.jpg","3",".","37","0","467"
"5","5","encoding","encoding","33","C27.jpg","1",".","37","0","509"
"5","5","encoding","encoding","34","D71.jpg","3",".","37","0","584"
"5","5","encoding","encoding","35","C36.jpg","1",".","37","0","731"
"5","5","encoding","encoding","36","C16.jpg","1",".","37","0","741"
"5","5","encoding","encoding","37","D23.jpg","3",".","37","0","664"
"5","5","encoding","encoding","38","D6.jpg","3",".","37","0","787"
"5","5","encoding","encoding","39","C63.jpg","1",".","37","0","541"
"5","5","encoding","encoding","40","C53.jpg","1",".","37","0","520"
"5","5","encoding","encoding","41","D6.jpg","3",".","37","0","603"
"5","5","encoding","encoding","42","C26.jpg","1",".","37","0","637"
"5","5","encoding","encoding","43","D6.jpg","3",".","37","0","576"
"5","5","encoding","encoding","44","D19.jpg","3",".","37","0","667"
"5","5","encoding","encoding","45","D58.jpg","3",".","36","0","789"
"5","5","encoding","encoding","46","D61.jpg","3",".","37","0","672"
"5","5","encoding","encoding","47","C58.jpg","1",".","36","0","811"
"5","5","encoding","encoding","48","C35.jpg","1",".","37","0","637"
"5","5","encoding","encoding","49","D40.jpg","3",".","37","0","520"
"5","5","encoding","encoding","50","D13.jpg","3",".","37","0","499"
"5","5","encoding","encoding","51","D76.jpg","3",".","37","0","502"
"5","5","encoding","encoding","52","D39.jpg","3",".","37","0","552"
"5","5","encoding","encoding","53","D49.jpg","3",".","37","0","787"
"5","5","encoding","encoding","54","D62.jpg","3",".","0","0","1000"
"5","5","encoding","encoding","55","D12.jpg","3",".","37","0","456"
"5","5","encoding","encoding","56","D57.jpg","3",".","37","0","587"
"5","5","encoding","encoding","57","D41.jpg","3",".","37","0","686"
"5","5","encoding","encoding","58","C67.jpg","1",".","36","0","736"
"5","5","encoding","encoding","59","D51.jpg","3",".","37","0","643"
"5","5","encoding","encoding","60","D31.jpg","3",".","37","0","590"
"5","5","encoding","encoding","61","C62.jpg","1",".","37","0","688"
"5","5","encoding","encoding","62","D70.jpg","3",".","37","0","643"
"5","5","encoding","encoding","63","D14.jpg","3",".","37","0","638"
"5","5","encoding","encoding","64","C38.jpg","1",".","37","0","640"
"5","5","encoding","encoding","65","C5.jpg","1",".","36","0","915"
"5","5","encoding","encoding","67","C61.jpg","1",".","37","0","575"
"5","5","encoding","encoding","68","D28.jpg","3",".","37","0","587"
"5","5","encoding","encoding","69","D32.jpg","3",".","37","0","693"
"5","5","encoding","encoding","70","D38.jpg","3",".","37","0","672"
"5","5","encoding","encoding","71","D20.jpg","3",".","37","0","699"
"5","5","encoding","encoding","72","D37.jpg","3",".","37","0","669"
"5","5","encoding","encoding","73","D60.jpg","3",".","36","0","872"
"5","5","encoding","encoding","74","D72.jpg","3",".","37","0","586"
"5","5","encoding","encoding","75","D3.jpg","3",".","37","0","677"
"5","5","encoding","encoding","76","D38.jpg","3",".","37","0","608"
"5","5","encoding","encoding","77","C23.jpg","1",".","37","0","610"
"5","5","encoding","encoding","78","C76.jpg","1",".","37","0","621"
"5","5","encoding","encoding","79","D64.jpg","3",".","37","0","873"
"5","5","encoding","encoding","80","D37.jpg","3",".","37","0","554"
"5","5","encoding","encoding","81","D40.jpg","3",".","37","0","517"
"5","5","encoding","encoding","82","D9.jpg","3",".","37","0","648"
"5","5","encoding","encoding","83","D18.jpg","3",".","37","0","658"
"5","5","encoding","encoding","84","D55.jpg","3",".","37","0","701"
"5","5","encoding","encoding","85","D14.jpg","3",".","37","0","528"
"5","5","encoding","encoding","86","C52.jpg","1",".","37","0","634"
"5","5","encoding","encoding","87","D4.jpg","3",".","37","0","781"
"5","5","encoding","encoding","88","D65.jpg","3",".","37","0","552"
"5","5","encoding","encoding","89","D24.jpg","3",".","37","0","642"
"5","5","encoding","encoding","90","D22.jpg","3",".","37","0","573"
"5","5","encoding","encoding","91","D69.jpg","3",".","36","0","920"
"5","5","encoding","encoding","92","D60.jpg","3",".","36","0","674"
"5","5","encoding","encoding","93","D32.jpg","3",".","37","0","445"
"5","5","encoding","encoding","94","C31.jpg","1",".","37","0","560"
"5","5","encoding","encoding","95","D56.jpg","3",".","37","0","514"
"5","5","encoding","encoding","96","D35.jpg","3",".","37","0","517"
"5","5","encoding","encoding","97","D46.jpg","3",".","37","0","496"
"5","5","encoding","encoding","98","C17.jpg","1",".","37","0","531"
"5","5","encoding","encoding","99","D36.jpg","3",".","37","0","733"
"5","5","encoding","encoding","100","D2.jpg","3",".","37","0","632"
"5","5","encoding","encoding","101","D15.jpg","3",".","37","0","579"
"5","5","encoding","encoding","102","C21.jpg","1",".","37","0","645"
"5","5","encoding","encoding","103","D5.jpg","3",".","37","0","520"
"5","5","encoding","encoding","104","D39.jpg","3",".","37","0","603"
"5","5","encoding","encoding","105","C45.jpg","1",".","37","0","573"
"5","5","encoding","encoding","106","D42.jpg","3",".","37","0","544"
"5","5","encoding","encoding","107","D63.jpg","3",".","37","0","579"
"5","5","encoding","encoding","108","D30.jpg","3",".","37","0","765"
"5","5","encoding","encoding","109","D59.jpg","3",".","37","0","976"
"5","5","encoding","encoding","110","D28.jpg","3",".","37","0","571"
"5","5","encoding","encoding","111","C42.jpg","1",".","37","0","637"
"5","5","encoding","encoding","112","D43.jpg","3",".","37","0","648"
"5","5","encoding","encoding","113","C44.jpg","1",".","37","0","579"
"5","5","encoding","encoding","114","D53.jpg","3",".","37","0","645"
"5","5","encoding","encoding","115","D10.jpg","3",".","36","0","672"
"5","5","encoding","encoding","116","C79.jpg","1",".","36","0","659"
"5","5","encoding","encoding","117","C7.jpg","1",".","36","0","669"
"5","5","encoding","encoding","118","D39.jpg","3",".","37","0","592"
"5","5","encoding","encoding","119","D50.jpg","3",".","37","0","539"
"5","5","encoding","encoding","120","D5.jpg","3",".","37","0","549"
"5","5","encoding","encoding","121","D44.jpg","3",".","37","0","576"
"5","5","encoding","encoding","122","C25.jpg","1",".","37","0","595"
"5","5","encoding","encoding","123","D56.jpg","3",".","37","0","525"
"5","5","encoding","encoding","124","D18.jpg","3",".","37","0","656"
"5","5","encoding","encoding","125","D74.jpg","3",".","37","0","627"
"5","5","encoding","encoding","126","D10.jpg","3",".","36","0","574"
"5","5","encoding","encoding","127","D67.jpg","3",".","36","0","744"
"5","5","encoding","encoding","128","D44.jpg","3",".","37","0","659"
"5","5","encoding","encoding","129","D78.jpg","3",".","37","0","670"
"5","5","encoding","encoding","130","C71.jpg","1",".","37","0","648"
"5","5","encoding","encoding","131","D34.jpg","3",".","0","0","1000"
"5","5","encoding","encoding","133","D3.jpg","3",".","37","0","583"
"5","5","encoding","encoding","134","D42.jpg","3",".","37","0","602"
"5","5","encoding","encoding","135","D61.jpg","3",".","36","0","892"
"5","5","encoding","encoding","136","D26.jpg","3",".","36","0","703"
"5","5","encoding","encoding","137","D57.jpg","3",".","36","0","658"
"5","5","encoding","encoding","138","C19.jpg","1",".","37","0","852"
"5","5","encoding","encoding","139","C56.jpg","1",".","37","0","791"
"5","5","encoding","encoding","140","D77.jpg","3",".","37","0","562"
"5","5","encoding","encoding","141","D5.jpg","3",".","37","0","500"
"5","5","encoding","encoding","142","C37.jpg","1",".","37","0","711"
"5","5","encoding","encoding","143","C70.jpg","1",".","37","0","546"
"5","5","encoding","encoding","144","D67.jpg","3",".","36","0","780"
"5","5","encoding","encoding","145","C30.jpg","1",".","37","0","535"
"5","5","encoding","encoding","146","C75.jpg","1",".","37","0","642"
"5","5","encoding","encoding","147","D50.jpg","3",".","37","0","540"
"5","5","encoding","encoding","148","D10.jpg","3",".","36","0","535"
"5","5","encoding","encoding","149","D46.jpg","3",".","37","0","514"
"5","5","encoding","encoding","150","C46.jpg","1",".","37","0","540"
"5","5","encoding","encoding","151","D26.jpg","3",".","36","0","574"
"5","5","encoding","encoding","152","D11.jpg","3",".","37","0","553"
"5","5","encoding","encoding","153","D3.jpg","3",".","37","0","428"
"5","5","encoding","encoding","154","D66.jpg","3",".","37","0","454"
"5","5","encoding","encoding","155","D1.jpg","3",".","36","0","657"
"5","5","encoding","encoding","156","D31.jpg","3",".","37","0","420"
"5","5","encoding","encoding","157","D52.jpg","3",".","37","0","734"
"5","5","encoding","encoding","158","D67.jpg","3",".","36","0","609"
"5","5","encoding","encoding","159","D54.jpg","3",".","36","0","668"
"5","5","encoding","encoding","160","C0.jpg","1",".","36","0","606"
"5","5","encoding","encoding","161","D23.jpg","3",".","37","0","537"
"5","5","encoding","encoding","162","D42.jpg","3",".","37","0","492"
"5","5","encoding","encoding","163","C59.jpg","1",".","37","0","494"
"5","5","encoding","encoding","164","D0.jpg","3",".","37","0","505"
"5","5","encoding","encoding","165","D62.jpg","3",".","37","0","676"
"5","5","encoding","encoding","166","C66.jpg","1",".","37","0","510"
"5","5","encoding","encoding","167","D8.jpg","3",".","37","0","497"
"5","5","encoding","encoding","168","D11.jpg","3",".","37","0","572"
"5","5","encoding","encoding","169","D47.jpg","3",".","37","0","502"
"5","5","encoding","encoding","170","D78.jpg","3",".","37","0","521"
"5","5","encoding","encoding","171","D51.jpg","3",".","37","0","524"
"5","5","encoding","encoding","172","C3.jpg","1",".","37","0","542"
"5","5","encoding","encoding","173","D73.jpg","3",".","37","0","465"
"5","5","encoding","encoding","174","D36.jpg","3",".","37","0","588"
"5","5","encoding","encoding","175","D52.jpg","3",".","37","0","510"
"5","5","encoding","encoding","176","C77.jpg","1",".","36","0","553"
"5","5","encoding","encoding","177","D45.jpg","3",".","36","0","972"
"5","5","encoding","encoding","178","D29.jpg","3",".","36","0","606"
"5","5","encoding","encoding","179","D47.jpg","3",".","37","0","545"
"5","5","encoding","encoding","180","D37.jpg","3",".","37","0","548"
"5","5","encoding","encoding","181","D15.jpg","3",".","37","0","526"
"5","5","encoding","encoding","182","D12.jpg","3",".","37","0","545"
"5","5","encoding","encoding","183","C24.jpg","1",".","37","0","572"
"5","5","encoding","encoding","184","D9.jpg","3",".","37","0","431"
"5","5","encoding","encoding","185","C39.jpg","1",".","37","0","729"
"5","5","encoding","encoding","186","D29.jpg","3",".","36","0","548"
"5","5","encoding","encoding","187","C4.jpg","1",".","37","0","751"
"5","5","encoding","encoding","188","C49.jpg","1",".","37","0","585"
"5","5","encoding","encoding","189","D53.jpg","3",".","37","0","516"
"5","5","encoding","encoding","190","D64.jpg","3",".","37","0","655"
"5","5","encoding","encoding","191","D73.jpg","3",".","37","0","497"
"5","5","encoding","encoding","192","D45.jpg","3",".","36","0","596"
"5","5","encoding","encoding","193","D75.jpg","3",".","36","0","511"
"5","5","encoding","encoding","194","D17.jpg","3",".","36","0","753"
"5","5","encoding","encoding","195","D76.jpg","3",".","37","0","524"
"5","5","encoding","encoding","196","D64.jpg","3",".","37","0","607"
"5","5","encoding","encoding","197","D24.jpg","3",".","37","0","529"
"5","5","encoding","encoding","199","D59.jpg","3",".","37","0","711"
"5","5","encoding","encoding","200","D77.jpg","3",".","37","0","482"
"5","5","encoding","encoding","201","C48.jpg","1",".","37","0","493"
"5","5","encoding","encoding","202","D74.jpg","3",".","37","0","463"
"5","5","encoding","encoding","203","D79.jpg","3",".","37","0","578"
"5","5","encoding","encoding","204","C54.jpg","1",".","37","0","469"
"5","5","encoding","encoding","205","D70.jpg","3",".","37","0","439"
"5","5","encoding","encoding","206","C13.jpg","1",".","37","0","634"
"5","5","encoding","encoding","207","D78.jpg","3",".","37","0","477"
"5","5","encoding","encoding","208","D34.jpg","3",".","37","0","599"
"5","5","encoding","encoding","209","D38.jpg","3",".","37","0","514"
"5","5","encoding","encoding","210","D25.jpg","3",".","37","0","781"
"5","5","encoding","encoding","211","D31.jpg","3",".","37","0","543"
"5","5","encoding","encoding","212","D53.jpg","3",".","37","0","562"
"5","5","encoding","encoding","213","C9.jpg","1",".","37","0","709"
"5","5","encoding","encoding","214","D63.jpg","3",".","37","0","496"
"5","5","encoding","encoding","215","D28.jpg","3",".","37","0","522"
"5","5","encoding","encoding","216","C1.jpg","1",".","37","0","621"
"5","5","encoding","encoding","217","D57.jpg","3",".","36","0","560"
"5","5","encoding","encoding","218","D41.jpg","3",".","36","0","986"
"5","5","encoding","encoding","219","D55.jpg","3",".","37","0","565"
"5","5","encoding","encoding","220","D18.jpg","3",".","37","0","568"
"5","5","encoding","encoding","221","D66.jpg","3",".","37","0","458"
"5","5","encoding","encoding","222","C32.jpg","1",".","37","0","453"
"5","5","encoding","encoding","223","D71.jpg","3",".","37","0","480"
"5","5","encoding","encoding","224","D54.jpg","3",".","36","0","514"
"5","5","encoding","encoding","225","D79.jpg","3",".","37","0","453"
"5","5","encoding","encoding","226","D33.jpg","3",".","37","0","504"
"5","5","encoding","encoding","227","D8.jpg","3",".","37","0","481"
"5","5","encoding","encoding","228","D21.jpg","3",".","37","0","469"
"5","5","encoding","encoding","229","C20.jpg","1",".","37","0","488"
"5","5","encoding","encoding","230","C22.jpg","1",".","37","0","514"
"5","5","encoding","encoding","231","D36.jpg","3",".","37","0","565"
"5","5","encoding","encoding","232","D74.jpg","3",".","37","0","528"
"5","5","encoding","encoding","233","D14.jpg","3",".","37","0","489"
"5","5","encoding","encoding","234","D34.jpg","3",".","37","0","485"
"5","5","encoding","encoding","235","D54.jpg","3",".","36","0","552"
"5","5","encoding","encoding","236","D61.jpg","3",".","37","0","643"
"5","5","encoding","encoding","237","D56.jpg","3",".","37","0","540"
"5","5","encoding","encoding","238","D44.jpg","3",".","37","0","527"
"5","5","encoding","encoding","239","D4.jpg","3",".","37","0","635"
"5","5","encoding","encoding","240","D1.jpg","3",".","36","0","788"
"5","5","encoding","encoding","241","D21.jpg","3",".","37","0","511"
"5","5","encoding","encoding","242","D20.jpg","3",".","37","0","570"
"5","5","encoding","encoding","243","D23.jpg","3",".","37","0","468"
"5","5","encoding","encoding","244","C8.jpg","1",".","37","0","479"
"5","5","encoding","encoding","245","D65.jpg","3",".","37","0","514"
"5","5","encoding","encoding","246","D49.jpg","3",".","36","0","660"
"5","5","encoding","encoding","247","C68.jpg","1",".","37","0","463"
"5","5","encoding","encoding","248","D43.jpg","3",".","37","0","498"
"5","5","encoding","encoding","249","C51.jpg","1",".","37","0","580"
"5","5","encoding","encoding","250","D16.jpg","3",".","37","0","568"
"5","5","encoding","encoding","251","D25.jpg","3",".","36","0","642"
"5","5","encoding","encoding","252","D19.jpg","3",".","37","0","508"
"5","5","encoding","encoding","253","D68.jpg","3",".","37","0","711"
"5","5","encoding","encoding","254","D76.jpg","3",".","37","0","482"
"5","5","encoding","encoding","255","D24.jpg","3",".","37","0","460"
"5","5","encoding","encoding","256","D72.jpg","3",".","37","0","463"
"5","5","encoding","encoding","257","D41.jpg","3",".","36","0","682"
"5","5","encoding","encoding","258","C41.jpg","1",".","37","0","524"
"5","5","encoding","encoding","259","D20.jpg","3",".","37","0","479"
"5","5","encoding","encoding","260","C15.jpg","1",".","37","0","546"
"5","5","encoding","encoding","261","C6.jpg","1",".","37","0","428"
"5","5","encoding","encoding","262","C43.jpg","1",".","37","0","623"
"5","5","encoding","encoding","263","D71.jpg","3",".","37","0","450"
"5","5","encoding","encoding","265","D75.jpg","3",".","36","0","575"
"5","5","encoding","encoding","266","D32.jpg","3",".","37","0","562"
"5","5","encoding","encoding","267","D17.jpg","3",".","37","0","701"
"5","5","encoding","encoding","268","C50.jpg","1",".","37","0","511"
"5","5","encoding","encoding","269","D46.jpg","3",".","37","0","474"
"5","5","encoding","encoding","270","D69.jpg","3",".","37","0","653"
"5","5","encoding","encoding","271","D35.jpg","3",".","37","0","447"
"5","5","encoding","encoding","272","D26.jpg","3",".","36","0","514"
"5","5","encoding","encoding","273","D52.jpg","3",".","37","0","581"
"5","5","encoding","encoding","274","D12.jpg","3",".","37","0","455"
"5","5","encoding","encoding","275","D70.jpg","3",".","37","0","418"
"5","5","encoding","encoding","276","D30.jpg","3",".","36","0","925"
"5","5","encoding","encoding","277","D48.jpg","3",".","37","0","527"
"5","5","encoding","encoding","278","C28.jpg","1",".","37","0","546"
"5","5","encoding","encoding","279","D69.jpg","3",".","37","0","701"
"5","5","encoding","encoding","280","C40.jpg","1",".","37","0","535"
"5","5","encoding","encoding","281","D27.jpg","3",".","37","0","506"
"5","5","encoding","encoding","282","D11.jpg","3",".","37","0","525"
"5","5","encoding","encoding","283","D49.jpg","3",".","36","0","551"
"5","5","encoding","encoding","284","D13.jpg","3",".","37","0","618"
"5","5","encoding","encoding","285","D65.jpg","3",".","37","0","485"
"5","5","encoding","encoding","286","C29.jpg","1",".","37","0","455"
"5","5","encoding","encoding","287","C10.jpg","1",".","37","0","466"
"5","5","encoding","encoding","288","D68.jpg","3",".","37","0","573"
"5","5","encoding","encoding","289","D77.jpg","3",".","37","0","512"
"5","5","encoding","encoding","290","C18.jpg","1",".","37","0","434"
"5","5","encoding","encoding","291","D51.jpg","3",".","37","0","477"
"5","5","encoding","encoding","292","C34.jpg","1",".","37","0","495"
"5","5","encoding","encoding","293","D0.jpg","3",".","37","0","522"
"5","5","encoding","encoding","294","D59.jpg","3",".","37","0","629"
"5","5","encoding","encoding","295","C78.jpg","1",".","37","0","520"
"5","5","encoding","encoding","296","C2.jpg","1",".","37","0","434"
"5","5","encoding","encoding","297","D48.jpg","3",".","37","0","445"
"5","5","encoding","encoding","298","D1.jpg","3",".","36","0","640"
"5","5","encoding","encoding","299","D62.jpg","3",".","37","0","666"
"5","5","encoding","encoding","300","D72.jpg","3",".","37","0","485"
"5","5","encoding","encoding","301","C72.jpg","1",".","37","0","416"
"5","5","encoding","encoding","302","D33.jpg","3",".","37","0","434"
"5","5","encoding","encoding","303","C65.jpg","1",".","37","0","509"
"5","5","encoding","encoding","304","D30.jpg","3",".","36","0","568"
"5","5","encoding","encoding","305","D25.jpg","3",".","36","0","602"
"5","5","encoding","encoding","306","D2.jpg","3",".","37","0","485"
"5","5","encoding","encoding","307","D79.jpg","3",".","37","0","440"
"5","5","encoding","encoding","308","D7.jpg","3",".","37","0","418"
"5","5","encoding","encoding","309","C57.jpg","1",".","37","0","781"
"5","5","encoding","encoding","310","D55.jpg","3",".","37","0","440"
"5","5","encoding","encoding","311","C55.jpg","1",".","37","0","746"
"5","5","encoding","encoding","312","D22.jpg","3",".","37","0","605"
"5","5","encoding","encoding","313","D27.jpg","3",".","37","0","487"
"5","5","encoding","encoding","314","D2.jpg","3",".","37","0","450"
"5","5","encoding","encoding","315","D9.jpg","3",".","37","0","581"
"5","5","encoding","encoding","316","D13.jpg","3",".","37","0","480"
"5","5","encoding","encoding","317","D19.jpg","3",".","37","0","522"
"5","5","encoding","encoding","318","D58.jpg","3",".","37","0","868"
"5","5","encoding","encoding","319","C64.jpg","1",".","37","0","671"
"5","5","encoding","encoding","320","D75.jpg","3",".","36","0","554"
"5","5","encoding","encoding","321","D47.jpg","3",".","37","0","533"
"5","5","encoding","encoding","322","D0.jpg","3",".","37","0","463"
"5","5","encoding","encoding","323","D4.jpg","3",".","37","0","570"
"5","5","encoding","encoding","324","D40.jpg","3",".","37","0","476"
"5","5","encoding","encoding","325","D43.jpg","",".","37","0","471"
"5","5","retrieval","old_object","1","C30.jpg",".","1","37","0","1304"
"5","5","retrieval","new_object","2","B69.jpg",".",".","37","1","1163"
"5","5","retrieval","old_object","3","D23.jpg",".","3","36","1","749"
"5","5","retrieval","new_object","4","B39.jpg",".",".","37","1","1512"
"5","5","retrieval","new_object","5","A28.jpg",".",".","37","1","1115"
"5","5","retrieval","old_object","6","D72.jpg",".","3","36","1","869"
"5","5","retrieval","new_object","7","B22.jpg",".",".","37","1","1104"
"5","5","retrieval","old_object","8","D73.jpg",".","3","36","1","851"
"5","5","retrieval","old_object","9","D43.jpg",".","3","36","1","709"
"5","5","retrieval","new_object","10","B27.jpg",".",".","37","1","736"
"5","5","retrieval","new_object","11","B37.jpg",".",".","37","1","1107"
"5","5","retrieval","new_object","12","A63.jpg",".",".","37","1","1037"
"5","5","retrieval","new_object","13","B8.jpg",".",".","37","1","1256"
"5","5","retrieval","old_object","14","C44.jpg",".","1","36","1","1603"
"5","5","retrieval","new_object","15","A52.jpg",".",".","37","1","981"
"5","5","retrieval","old_object","16","C58.jpg",".","1","36","1","1120"
"5","5","retrieval","old_object","17","D2.jpg",".","3","36","1","691"
"5","5","retrieval","old_object","18","C10.jpg",".","1","36","1","926"
"5","5","retrieval","new_object","19","B16.jpg",".",".","37","1","784"
"5","5","retrieval","new_object","20","A73.jpg",".",".","37","1","795"
"5","5","retrieval","new_object","21","A37.jpg",".",".","37","1","990"
"5","5","retrieval","new_object","22","B28.jpg",".",".","37","1","704"
"5","5","retrieval","old_object","23","D63.jpg",".","3","37","0","1179"
"5","5","retrieval","new_object","24","B41.jpg",".",".","37","1","886"
"5","5","retrieval","old_object","25","C50.jpg",".","1","37","0","680"
"5","5","retrieval","old_object","26","D64.jpg",".","3","36","1","675"
"5","5","retrieval","new_object","27","B12.jpg",".",".","37","1","590"
"5","5","retrieval","new_object","28","A40.jpg",".",".","37","1","832"
"5","5","retrieval","old_object","29","D19.jpg",".","3","36","1","635"
"5","5","retrieval","old_object","30","D33.jpg",".","3","36","1","686"
"5","5","retrieval","new_object","31","B14.jpg",".",".","37","1","688"
"5","5","retrieval","old_object","32","C56.jpg",".","1","36","1","787"
"5","5","retrieval","old_object","33","C19.jpg",".","1","36","1","702"
"5","5","retrieval","new_object","34","B11.jpg",".",".","37","1","743"
"5","5","retrieval","new_object","35","A69.jpg",".",".","37","1","842"
"5","5","retrieval","new_object","36","A33.jpg",".",".","37","1","957"
"5","5","retrieval","new_object","37","A5.jpg",".",".","37","1","729"
"5","5","retrieval","new_object","38","A35.jpg",".",".","37","1","595"
"5","5","retrieval","old_object","39","D10.jpg",".","3","36","1","766"
"5","5","retrieval","new_object","40","A65.jpg",".",".","37","1","768"
"5","5","retrieval","old_object","41","D25.jpg",".","3","36","1","699"
"5","5","retrieval","new_object","42","B56.jpg",".",".","37","1","797"
"5","5","retrieval","new_object","43","B9.jpg",".",".","37","1","992"
"5","5","retrieval","new_object","44","B68.jpg",".",".","37","1","762"
"5","5","retrieval","new_object","45","B52.jpg",".",".","37","1","997"
"5","5","retrieval","old_object","46","D46.jpg",".","3","36","1","1064"
"5","5","retrieval","old_object","47","C2.jpg",".","1","37","0","794"
"5","5","retrieval","new_object","48","A76.jpg",".",".","37","1","797"
"5","5","retrieval","old_object","49","D49.jpg",".","3","36","1","648"
"5","5","retrieval","old_object","50","D21.jpg",".","3","36","1","794"
"5","5","retrieval","old_object","51","D48.jpg",".","3","37","0","1365"
"5","5","retrieval","new_object","52","B59.jpg",".",".","37","1","896"
"5","5","retrieval","new_object","53","B50.jpg",".",".","37","1","771"
"5","5","retrieval","new_object","54","B25.jpg",".",".","37","1","637"
"5","5","retrieval","new_object","55","B20.jpg",".",".","37","1","672"
"5","5","retrieval","new_object","56","A75.jpg",".",".","37","1","931"
"5","5","retrieval","old_object","57","C21.jpg",".","1","36","1","725"
"5","5","retrieval","old_object","58","D76.jpg",".","3","36","1","752"
"5","5","retrieval","new_object","59","A39.jpg",".",".","37","1","683"
"5","5","retrieval","old_object","60","C12.jpg",".","1","37","0","821"
"5","5","retrieval","new_object","61","B33.jpg",".",".","37","1","592"
"5","5","retrieval","new_object","62","A4.jpg",".",".","37","1","715"
"5","5","retrieval","new_object","63","A59.jpg",".",".","37","1","1365"
"5","5","retrieval","old_object","64","C22.jpg",".","1","36","1","792"
"5","5","retrieval","new_object","65","A66.jpg",".",".","37","1","747"
"5","5","retrieval","new_object","67","B18.jpg",".",".","37","1","1731"
"5","5","retrieval","old_object","68","D12.jpg",".","3","36","1","870"
"5","5","retrieval","old_object","69","C20.jpg",".","1","37","0","929"
"5","5","retrieval","new_object","70","B15.jpg",".",".","37","1","676"
"5","5","retrieval","new_object","71","A77.jpg",".",".","37","1","1014"
"5","5","retrieval","new_object","72","A13.jpg",".",".","37","1","1057"
"5","5","retrieval","new_object","73","B71.jpg",".",".","37","1","1012"
"5","5","retrieval","old_object","74","C34.jpg",".","1","36","1","750"
"5","5","retrieval","new_object","75","A70.jpg",".",".","37","1","785"
"5","5","retrieval","old_object","76","D78.jpg",".","3","36","1","868"
"5","5","retrieval","old_object","77","C39.jpg",".","1","36","1","1246"
"5","5","retrieval","new_object","78","B47.jpg",".",".","0","0","2000"
"5","5","retrieval","new_object","79","B43.jpg",".",".","37","1","764"
"5","5","retrieval","new_object","80","B58.jpg",".",".","37","1","678"
"5","5","retrieval","new_object","81","B34.jpg",".",".","37","1","865"
"5","5","retrieval","new_object","82","A41.jpg",".",".","37","1","780"
"5","5","retrieval","new_object","83","B0.jpg",".",".","37","1","910"
"5","5","retrieval","old_object","84","D20.jpg",".","3","36","1","689"
"5","5","retrieval","new_object","85","A47.jpg",".",".","36","0","996"
"5","5","retrieval","old_object","86","C70.jpg",".","1","36","1","774"
"5","5","retrieval","old_object","87","C57.jpg",".","1","36","1","793"
"5","5","retrieval","old_object","88","C27.jpg",".","1","37","0","924"
"5","5","retrieval","old_object","89","C64.jpg",".","1","36","1","934"
"5","5","retrieval","old_object","90","C15.jpg",".","1","37","0","689"
"5","5","retrieval","old_object","91","C35.jpg",".","1","36","1","891"
"5","5","retrieval","old_object","92","D11.jpg",".","3","36","1","815"
"5","5","retrieval","old_object","93","D51.jpg",".","3","36","1","672"
"5","5","retrieval","new_object","94","A51.jpg",".",".","37","1","1043"
"5","5","retrieval","old_object","95","C62.jpg",".","1","36","1","974"
"5","5","retrieval","new_object","96","A54.jpg",".",".","36","0","960"
"5","5","retrieval","old_object","97","C11.jpg",".","1","36","1","963"
"5","5","retrieval","old_object","98","D56.jpg",".","3","36","1","694"
"5","5","retrieval","old_object","99","D69.jpg",".","3","36","1","808"
"5","5","retrieval","old_object","100","C68.jpg",".","1","36","1","795"
"5","5","retrieval","new_object","101","A31.jpg",".",".","37","1","806"
"5","5","retrieval","old_object","102","C3.jpg",".","1","37","0","1056"
"5","5","retrieval","new_object","103","A61.jpg",".",".","37","1","995"
"5","5","retrieval","old_object","104","C13.jpg",".","1","36","1","886"
"5","5","retrieval","new_object","105","B13.jpg",".",".","37","1","744"
"5","5","retrieval","new_object","106","A30.jpg",".",".","37","1","859"
"5","5","retrieval","old_object","107","D14.jpg",".","3","36","1","766"
"5","5","retrieval","new_object","108","B45.jpg",".",".","37","1","848"
"5","5","retrieval","new_object","109","B53.jpg",".",".","37","1","1059"
"5","5","retrieval","new_object","110","B21.jpg",".",".","37","1","702"
"5","5","retrieval","new_object","111","A78.jpg",".",".","36","0","912"
"5","5","retrieval","new_object","112","A21.jpg",".",".","37","1","827"
"5","5","retrieval","new_object","113","A17.jpg",".",".","37","1","702"
"5","5","retrieval","new_object","114","A34.jpg",".",".","37","1","593"
"5","5","retrieval","old_object","115","C69.jpg",".","1","37","0","787"
"5","5","retrieval","new_object","116","A16.jpg",".",".","37","1","678"
"5","5","retrieval","old_object","117","C14.jpg",".","1","37","0","761"
"5","5","retrieval","old_object","118","C4.jpg",".","1","36","1","1595"
"5","5","retrieval","old_object","119","C54.jpg",".","1","37","0","718"
"5","5","retrieval","new_object","120","B42.jpg",".",".","37","1","601"
"5","5","retrieval","new_object","121","B46.jpg",".",".","37","1","947"
"5","5","retrieval","new_object","122","A19.jpg",".",".","37","1","750"
"5","5","retrieval","old_object","123","D70.jpg",".","3","36","1","657"
"5","5","retrieval","old_object","124","C38.jpg",".","1","36","1","852"
"5","5","retrieval","old_object","125","C77.jpg",".","1","36","1","1438"
"5","5","retrieval","old_object","126","C60.jpg",".","1","36","1","809"
"5","5","retrieval","new_object","127","A15.jpg",".",".","37","1","868"
"5","5","retrieval","new_object","128","A44.jpg",".",".","37","1","774"
"5","5","retrieval","old_object","129","D3.jpg",".","3","36","1","753"
"5","5","retrieval","old_object","130","C48.jpg",".","1","37","0","836"
"5","5","retrieval","old_object","131","C7.jpg",".","1","36","1","1302"
"5","5","retrieval","new_object","133","B38.jpg",".",".","37","1","1008"
"5","5","retrieval","new_object","134","B72.jpg",".",".","37","1","722"
"5","5","retrieval","new_object","135","B54.jpg",".",".","37","1","557"
"5","5","retrieval","old_object","136","C28.jpg",".","1","36","1","712"
"5","5","retrieval","old_object","137","D5.jpg",".","3","36","1","578"
"5","5","retrieval","new_object","138","A1.jpg",".",".","37","1","933"
"5","5","retrieval","old_object","139","D39.jpg",".","3","36","1","856"
"5","5","retrieval","new_object","140","B55.jpg",".",".","37","1","658"
"5","5","retrieval","old_object","141","D31.jpg",".","3","36","1","1028"
"5","5","retrieval","old_object","142","C23.jpg",".","1","36","1","743"
"5","5","retrieval","old_object","143","C51.jpg",".","1","36","1","627"
"5","5","retrieval","old_object","144","D79.jpg",".","3","36","1","676"
"5","5","retrieval","new_object","145","A50.jpg",".",".","37","1","647"
"5","5","retrieval","old_object","146","C42.jpg",".","1","36","1","835"
"5","5","retrieval","old_object","147","C63.jpg",".","1","36","1","756"
"5","5","retrieval","new_object","148","A42.jpg",".",".","37","1","559"
"5","5","retrieval","new_object","149","A24.jpg",".",".","37","1","954"
"5","5","retrieval","new_object","150","A7.jpg",".",".","37","1","1212"
"5","5","retrieval","new_object","151","B29.jpg",".",".","37","1","1199"
"5","5","retrieval","old_object","152","D27.jpg",".","3","36","1","826"
"5","5","retrieval","new_object","153","B64.jpg",".",".","37","1","612"
"5","5","retrieval","new_object","154","B44.jpg",".",".","37","1","679"
"5","5","retrieval","old_object","155","D62.jpg",".","3","36","1","722"
"5","5","retrieval","old_object","156","C26.jpg",".","1","36","1","612"
"5","5","retrieval","old_object","157","D9.jpg",".","3","36","1","663"
"5","5","retrieval","new_object","158","A38.jpg",".",".","37","1","634"
"5","5","retrieval","old_object","159","D40.jpg",".","3","36","1","685"
"5","5","retrieval","old_object","160","C0.jpg",".","1","36","1","823"
"5","5","retrieval","old_object","161","C6.jpg",".","1","37","0","706"
"5","5","retrieval","old_object","162","D28.jpg",".","3","36","1","637"
"5","5","retrieval","old_object","163","C18.jpg",".","1","36","1","663"
"5","5","retrieval","old_object","164","D18.jpg",".","3","36","1","554"
"5","5","retrieval","new_object","165","B61.jpg",".",".","37","1","741"
"5","5","retrieval","old_object","166","C76.jpg",".","1","36","1","727"
"5","5","retrieval","new_object","167","A26.jpg",".",".","37","1","690"
"5","5","retrieval","old_object","168","C16.jpg",".","1","36","1","757"
"5","5","retrieval","new_object","169","A67.jpg",".",".","37","1","671"
"5","5","retrieval","new_object","170","A43.jpg",".",".","37","1","1066"
"5","5","retrieval","old_object","171","C1.jpg",".","1","37","0","901"
"5","5","retrieval","old_object","172","D77.jpg",".","3","36","1","647"
"5","5","retrieval","old_object","173","C40.jpg",".","1","36","1","1042"
"5","5","retrieval","old_object","174","D32.jpg",".","3","36","1","605"
"5","5","retrieval","new_object","175","B51.jpg",".",".","37","1","591"
"5","5","retrieval","new_object","176","A25.jpg",".",".","37","1","602"
"5","5","retrieval","new_object","177","B3.jpg",".",".","37","1","813"
"5","5","retrieval","old_object","178","D16.jpg",".","3","36","1","680"
"5","5","retrieval","old_object","179","C45.jpg",".","1","36","1","706"
"5","5","retrieval","new_object","180","A48.jpg",".",".","37","1","621"
"5","5","retrieval","old_object","181","C66.jpg",".","1","37","0","760"
"5","5","retrieval","new_object","182","A79.jpg",".",".","37","1","706"
"5","5","retrieval","old_object","183","C79.jpg",".","1","36","1","901"
"5","5","retrieval","new_object","184","A22.jpg",".",".","37","1","656"
"5","5","retrieval","old_object","185","D6.jpg",".","3","36","1","674"
"5","5","retrieval","new_object","186","B17.jpg",".",".","37","1","613"
"5","5","retrieval","new_object","187","B2.jpg",".",".","37","1","768"
"5","5","retrieval","new_object","188","B24.jpg",".",".","37","1","602"
"5","5","retrieval","old_object","189","C49.jpg",".","1","37","0","581"
"5","5","retrieval","new_object","190","A36.jpg",".",".","37","1","616"
"5","5","retrieval","new_object","191","A62.jpg",".",".","36","0","938"
"5","5","retrieval","old_object","192","C47.jpg",".","1","36","1","693"
"5","5","retrieval","new_object","193","B1.jpg",".",".","37","1","960"
"5","5","retrieval","old_object","194","C65.jpg",".","1","36","1","1154"
"5","5","retrieval","new_object","195","A6.jpg",".",".","37","1","652"
"5","5","retrieval","new_object","196","A20.jpg",".",".","37","1","896"
"5","5","retrieval","old_object","197","C43.jpg",".","1","36","1","794"
"5","5","retrieval","new_object","199","B30.jpg",".",".","37","1","723"
"5","5","retrieval","old_object","200","D54.jpg",".","3","36","1","694"
"5","5","retrieval","old_object","201","D17.jpg",".","3","36","1","680"
"5","5","retrieval","old_object","202","D15.jpg",".","3","36","1","675"
"5","5","retrieval","new_object","203","A46.jpg",".",".","37","1","662"
"5","5","retrieval","old_object","204","C41.jpg",".","1","37","0","792"
"5","5","retrieval","old_object","205","D4.jpg",".","3","36","1","675"
"5","5","retrieval","old_object","206","C72.jpg",".","1","36","1","590"
"5","5","retrieval","new_object","207","B6.jpg",".",".","37","1","800"
"5","5","retrieval","old_object","208","C29.jpg",".","1","37","0","819"
"5","5","retrieval","old_object","209","C31.jpg",".","1","36","1","918"
"5","5","retrieval","new_object","210","B49.jpg",".",".","37","1","656"
"5","5","retrieval","new_object","211","A9.jpg",".",".","37","1","851"
"5","5","retrieval","new_object","212","A11.jpg",".",".","37","1","638"
"5","5","retrieval","new_object","213","A18.jpg",".",".","37","1","744"
"5","5","retrieval","new_object","214","A27.jpg",".",".","37","1","595"
"5","5","retrieval","new_object","215","A71.jpg",".",".","37","1","502"
"5","5","retrieval","old_object","216","D59.jpg",".","3","36","1","672"
"5","5","retrieval","new_object","217","B78.jpg",".",".","37","1","699"
"5","5","retrieval","new_object","218","A23.jpg",".",".","37","1","686"
"5","5","retrieval","old_object","219","D50.jpg",".","3","36","1","745"
"5","5","retrieval","old_object","220","C52.jpg",".","1","36","1","883"
"5","5","retrieval","new_object","221","A45.jpg",".",".","37","1","662"
"5","5","retrieval","new_object","222","A57.jpg",".",".","37","1","705"
"5","5","retrieval","old_object","223","D8.jpg",".","3","36","1","755"
"5","5","retrieval","old_object","224","D29.jpg",".","3","36","1","686"
"5","5","retrieval","old_object","225","C46.jpg",".","1","37","0","745"
"5","5","retrieval","new_object","226","B75.jpg",".",".","37","1","643"
"5","5","retrieval","new_object","227","B10.jpg",".",".","37","1","494"
"5","5","retrieval","new_object","228","B67.jpg",".",".","37","1","761"
"5","5","retrieval","old_object","229","D1.jpg",".","3","36","1","603"
"5","5","retrieval","new_object","230","A3.jpg",".",".","37","1","886"
"5","5","retrieval","old_object","231","C25.jpg",".","1","36","1","705"
"5","5","retrieval","old_object","232","D24.jpg",".","3","36","1","684"
"5","5","retrieval","new_object","233","A29.jpg",".",".","37","1","598"
"5","5","retrieval","old_object","234","D35.jpg",".","3","36","1","697"
"5","5","retrieval","old_object","235","D65.jpg",".","3","36","1","612"
"5","5","retrieval","old_object","236","C33.jpg",".","1","36","1","614"
"5","5","retrieval","new_object","237","B19.jpg",".",".","37","1","753"
"5","5","retrieval","old_object","238","C8.jpg",".","1","36","1","916"
"5","5","retrieval","old_object","239","C75.jpg",".","1","36","1","646"
"5","5","retrieval","new_object","240","A55.jpg",".",".","37","1","769"
"5","5","retrieval","new_object","241","A72.jpg",".",".","37","1","988"
"5","5","retrieval","old_object","242","C59.jpg",".","1","36","1","654"
"5","5","retrieval","old_object","243","D36.jpg",".","3","36","1","593"
"5","5","retrieval","old_object","244","D53.jpg",".","3","36","1","676"
"5","5","retrieval","new_object","245","B5.jpg",".",".","37","1","734"
"5","5","retrieval","old_object","246","C61.jpg",".","1","36","1","609"
"5","5","retrieval","old_object","247","D67.jpg",".","3","36","1","580"
"5","5","retrieval","old_object","248","D58.jpg",".","3","36","1","534"
"5","5","retrieval","old_object","249","C9.jpg",".","1","36","1","609"
"5","5","retrieval","new_object","250","A12.jpg",".",".","37","1","660"
"5","5","retrieval","old_object","251","D44.jpg",".","3","36","1","758"
"5","5","retrieval","old_object","252","D0.jpg",".","3","36","1","656"
"5","5","retrieval","new_object","253","B73.jpg",".",".","37","1","771"
"5","5","retrieval","new_object","254","B36.jpg",".",".","37","1","518"
"5","5","retrieval","old_object","255","D57.jpg",".","3","36","1","544"
"5","5","retrieval","new_object","256","B31.jpg",".",".","37","1","803"
"5","5","retrieval","old_object","257","D7.jpg",".","3","37","0","1606"
"5","5","retrieval","old_object","258","C5.jpg",".","1","36","1","664"
"5","5","retrieval","old_object","259","C37.jpg",".","1","36","1","1283"
"5","5","retrieval","old_object","260","C73.jpg",".","1","37","0","726"
"5","5","retrieval","new_object","261","B70.jpg",".",".","37","1","552"
"5","5","retrieval","old_object","262","C74.jpg",".","1","37","0","483"
"5","5","retrieval","new_object","263","B65.jpg",".",".","36","0","614"
"5","5","retrieval","new_object","265","A0.jpg",".",".","0","0","2000"
"5","5","retrieval","new_object","266","B66.jpg",".",".","0","0","2000"
"5","5","retrieval","old_object","267","D47.jpg",".","3","37","0","711"
"5","5","retrieval","new_object","268","A2.jpg",".",".","0","0","2000"
"5","5","retrieval","new_object","269","B7.jpg",".",".","0","0","2000"
"5","5","retrieval","new_object","270","A53.jpg",".",".","0","0","2000"
"5","5","retrieval","old_object","271","D61.jpg",".","3","37","0","577"
"5","5","retrieval","old_object","272","D55.jpg",".","3","37","0","668"
"5","5","retrieval","old_object","273","D22.jpg",".","3","37","0","567"
"5","5","retrieval","old_object","274","D34.jpg",".","3","37","0","625"
"5","5","retrieval","new_object","275","A68.jpg",".",".","0","0","2000"
"5","5","retrieval","new_object","276","A32.jpg",".",".","0","0","2000"
"5","5","retrieval","new_object","277","B48.jpg",".",".","0","0","2000"
"5","5","retrieval","new_object","278","A14.jpg",".",".","0","0","2000"
"5","5","retrieval","old_object","279","C24.jpg",".","1","0","0","2000"
"5","5","retrieval","old_object","280","D38.jpg",".","3","37","0","649"
"5","5","retrieval","new_object","281","B35.jpg",".",".","0","0","2000"
"5","5","retrieval","old_object","282","D13.jpg",".","3","37","0","647"
"5","5","retrieval","old_object","283","C78.jpg",".","1","37","0","722"
"5","5","retrieval","old_object","284","D60.jpg",".","3","37","0","620"
"5","5","retrieval","new_object","285","A8.jpg",".",".","0","0","2000"
"5","5","retrieval","old_object","286","D66.jpg",".","3","37","0","578"
"5","5","retrieval","new_object","287","B23.jpg",".",".","0","0","2000"
"5","5","retrieval","new_object","288","B32.jpg",".",".","0","0","2000"
"5","5","retrieval","new_object","289","A74.jpg",".",".","0","0","2000"
"5","5","retrieval","old_object","290","C67.jpg",".","1","37","0","636"
"5","5","retrieval","new_object","291","B63.jpg",".",".","0","0","2000"
"5","5","retrieval","old_object","292","C32.jpg",".","1","0","0","2000"
"5","5","retrieval","old_object","293","D52.jpg",".","3","0","0","2000"
"5","5","retrieval","new_object","294","B26.jpg",".",".","0","0","2000"
"5","5","retrieval","old_object","295","D68.jpg",".","3","37","0","674"
"5","5","retrieval","new_object","296","A49.jpg",".",".","0","0","2000"
"5","5","retrieval","new_object","297","A60.jpg",".",".","0","0","2000"
"5","5","retrieval","old_object","298","D41.jpg",".","3","37","0","594"
"5","5","retrieval","old_object","299","D74.jpg",".","3","0","0","2000"
"5","5","retrieval","new_object","300","B4.jpg",".",".","0","0","2000"
"5","5","retrieval","new_object","301","A58.jpg",".",".","0","0","2000"
"5","5","retrieval","old_object","302","D37.jpg",".","3","0","0","2000"
"5","5","retrieval","old_object","303","C17.jpg",".","1","0","0","2000"
"5","5","retrieval","old_object","304","D26.jpg",".","3","37","0","553"
"5","5","retrieval","new_object","305","B60.jpg",".",".","0","0","2000"
"5","5","retrieval","old_object","306","D42.jpg",".","3","37","0","566"
"5","5","retrieval","new_object","307","B76.jpg",".",".","0","0","2000"
"5","5","retrieval","new_object","308","A56.jpg",".",".","0","0","2000"
"5","5","retrieval","old_object","309","D45.jpg",".","3","37","0","606"
"5","5","retrieval","new_object","310","A64.jpg",".",".","37","1","1145"
"5","5","retrieval","old_object","311","D30.jpg",".","3","37","0","628"
"5","5","retrieval","new_object","312","B74.jpg",".",".","0","0","2000"
"5","5","retrieval","new_object","313","B77.jpg",".",".","0","0","2000"
"5","5","retrieval","new_object","314","B79.jpg",".",".","0","0","2000"
"5","5","retrieval","new_object","315","B40.jpg",".",".","0","0","2000"
"5","5","retrieval","new_object","316","A10.jpg",".",".","0","0","2000"
"5","5","retrieval","old_object","317","D75.jpg",".","3","37","0","668"
"5","5","retrieval","old_object","318","C53.jpg",".","1","37","0","863"
"5","5","retrieval","old_object","319","C71.jpg",".","1","0","0","2000"
"5","5","retrieval","old_object","320","D71.jpg",".","3","37","0","628"
"5","5","retrieval","old_object","321","C36.jpg",".","1","37","0","607"
"5","5","retrieval","new_object","322","B62.jpg",".",".","0","0","2000"
"5","5","retrieval","new_object","323","B57.jpg",".",".","37","1","644"
"5","5","retrieval","old_object","324","C55.jpg",".","1","37","0","1039"
"5","5","retrieval","old_object","325","C30.jpg",".","","37","0","593"
"5","5","demographics_block","gender","1",".",".",".","Male","1","39853"
"5","5","demographics_block","age","1",".",".",".","48","1","39853"
"5","5","demographics_block","education","1",".",".",".","14","1","39853"
"5","5","demographics_block","left_right_handed","2",".",".",".","Right","1","9759"
"5","5","demographics_block","raceoption1","2",".",".",".","0","1","9759"
"5","5","demographics_block","raceoption2","2",".",".",".","","1","9759"
"5","5","demographics_block","raceoption3","2",".",".",".","","1","9759"
"5","5","demographics_block","raceoption4","2",".",".",".","","1","9759"
"5","5","demographics_block","raceoption5","2",".",".",".","","1","9759"
"5","5","demographics_block","raceoption6","2",".",".",".","","1","9759"
"5","5","demographics_block","raceoption7","2",".",".",".","","1","9759"
"5","5","demographics_block","raceoption8","2",".",".",".","","1","9759"
"5","5","demographics_block","raceoption9","2",".",".",".","","1","9759"
"5","5","demographics_block","raceother","2",".",".",".","","1","9759"
"5","5","demographics_block","raceother","2",".",".",".","","1","9759"
"5","5","demographics_block","english_language","2",".",".",".","Yes","1","9759"
"5","5","demographics_block","other","2",".",".",".","","1","9759"
"5","5","demographics_block","eyesight","3",".",".",".","Yes","1","5964"
"5","5","demographics_block","colorblind","3",".",".",".","No","1","5964"
"7","7","encoding","encoding","1","D43.jpg","3",".","37","0","955"
"7","7","encoding","encoding","2","D60.jpg","3",".","0","0","1000"
"7","7","encoding","encoding","3","D22.jpg","3",".","0","0","1000"
"7","7","encoding","encoding","4","D66.jpg","3",".","37","0","903"
"7","7","encoding","encoding","5","D16.jpg","3",".","37","0","933"
"7","7","encoding","encoding","6","C74.jpg","1",".","37","0","962"
"7","7","encoding","encoding","7","D73.jpg","3",".","37","0","928"
"7","7","encoding","encoding","8","D16.jpg","3",".","37","0","893"
"7","7","encoding","encoding","9","D7.jpg","3",".","37","0","798"
"7","7","encoding","encoding","10","C69.jpg","1",".","37","0","826"
"7","7","encoding","encoding","11","D7.jpg","3",".","37","0","921"
"7","7","encoding","encoding","12","D45.jpg","3",".","37","0","887"
"7","7","encoding","encoding","13","D33.jpg","3",".","37","0","853"
"7","7","encoding","encoding","14","D15.jpg","3",".","37","0","881"
"7","7","encoding","encoding","15","C47.jpg","1",".","37","0","910"
"7","7","encoding","encoding","16","C60.jpg","1",".","37","0","878"
"7","7","encoding","encoding","17","D8.jpg","3",".","37","0","782"
"7","7","encoding","encoding","18","D35.jpg","3",".","37","0","748"
"7","7","encoding","encoding","19","C33.jpg","1",".","0","0","1000"
"7","7","encoding","encoding","20","C73.jpg","1",".","0","0","1000"
"7","7","encoding","encoding","21","D68.jpg","3",".","0","0","1000"
"7","7","encoding","encoding","22","D17.jpg","3",".","0","0","1000"
"7","7","encoding","encoding","23","C12.jpg","1",".","37","0","960"
"7","7","encoding","encoding","24","D21.jpg","3",".","37","0","861"
"7","7","encoding","encoding","25","D48.jpg","3",".","37","0","768"
"7","7","encoding","encoding","26","C11.jpg","1",".","37","0","796"
"7","7","encoding","encoding","27","C14.jpg","1",".","37","0","765"
"7","7","encoding","encoding","28","D58.jpg","3",".","36","0","853"
"7","7","encoding","encoding","29","D63.jpg","3",".","37","0","823"
"7","7","encoding","encoding","30","D29.jpg","3",".","37","0","849"
"7","7","encoding","encoding","31","D27.jpg","3",".","37","0","818"
"7","7","encoding","encoding","32","D50.jpg","3",".","37","0","909"
"7","7","encoding","encoding","33","C27.jpg","1",".","37","0","749"
"7","7","encoding","encoding","34","D71.jpg","3",".","37","0","780"
"7","7","encoding","encoding","35","C36.jpg","1",".","37","0","748"
"7","7","encoding","encoding","36","C16.jpg","1",".","37","0","841"
"7","7","encoding","encoding","37","D23.jpg","3",".","37","0","807"
"7","7","encoding","encoding","38","D6.jpg","3",".","37","0","710"
"7","7","encoding","encoding","39","C63.jpg","1",".","37","0","741"
"7","7","encoding","encoding","40","C53.jpg","1",".","37","0","707"
"7","7","encoding","encoding","41","D6.jpg","3",".","37","0","734"
"7","7","encoding","encoding","42","C26.jpg","1",".","37","0","826"
"7","7","encoding","encoding","43","D6.jpg","3",".","37","0","732"
"7","7","encoding","encoding","44","D19.jpg","3",".","37","0","822"
"7","7","encoding","encoding","45","D58.jpg","3",".","36","0","854"
"7","7","encoding","encoding","46","D61.jpg","3",".","37","0","882"
"7","7","encoding","encoding","47","C58.jpg","1",".","37","0","848"
"7","7","encoding","encoding","48","C35.jpg","1",".","37","0","817"
"7","7","encoding","encoding","49","D40.jpg","3",".","0","0","1000"
"7","7","encoding","encoding","50","D13.jpg","3",".","37","0","937"
"7","7","encoding","encoding","51","D76.jpg","3",".","37","0","842"
"7","7","encoding","encoding","52","D39.jpg","3",".","0","0","1000"
"7","7","encoding","encoding","53","D49.jpg","3",".","0","0","1000"
"7","7","encoding","encoding","54","D62.jpg","3",".","0","0","1000"
"7","7","encoding","encoding","55","D12.jpg","3",".","0","0","1000"
"7","7","encoding","encoding","56","D57.jpg","3",".","36","0","862"
"7","7","encoding","encoding","57","D41.jpg","3",".","0","0","1000"
"7","7","encoding","encoding","58","C67.jpg","1",".","0","0","1000"
"7","7","encoding","encoding","59","D51.jpg","3",".","0","0","1000"
"7","7","encoding","encoding","60","D31.jpg","3",".","37","0","852"
"7","7","encoding","encoding","61","C62.jpg","1",".","37","0","822"
"7","7","encoding","encoding","62","D70.jpg","3",".","37","0","975"
"7","7","encoding","encoding","63","D14.jpg","3",".","37","0","881"
"7","7","encoding","encoding","64","C38.jpg","1",".","37","0","784"
"7","7","encoding","encoding","65","C5.jpg","1",".","37","0","814"
"7","7","encoding","encoding","67","C61.jpg","1",".","37","0","783"
"7","7","encoding","encoding","68","D28.jpg","3",".","37","0","939"
"7","7","encoding","encoding","69","D32.jpg","3",".","0","0","1000"
"7","7","encoding","encoding","70","D38.jpg","3",".","37","0","936"
"7","7","encoding","encoding","71","D20.jpg","3",".","0","0","1000"
"7","7","encoding","encoding","72","D37.jpg","3",".","37","0","805"
"7","7","encoding","encoding","73","D60.jpg","3",".","0","0","1000"
"7","7","encoding","encoding","74","D72.jpg","3",".","37","0","801"
"7","7","encoding","encoding","75","D3.jpg","3",".","37","0","894"
"7","7","encoding","encoding","76","D38.jpg","3",".","37","0","798"
"7","7","encoding","encoding","77","C23.jpg","1",".","37","0","828"
"7","7","encoding","encoding","78","C76.jpg","1",".","0","0","1000"
"7","7","encoding","encoding","79","D64.jpg","3",".","0","0","1000"
"7","7","encoding","encoding","80","D37.jpg","3",".","37","0","853"
"7","7","encoding","encoding","81","D40.jpg","3",".","37","0","881"
"7","7","encoding","encoding","82","D9.jpg","3",".","37","0","848"
