"group","subject","blockcode","trialcode","trialnum","stimulus","encoding_condition","old_object_condition","response","correct","latency"
"21","21","encoding","encoding","1","G53.jpg","1",".","37","0","615"
"21","21","encoding","encoding","2","H10.jpg","3",".","37","0","676"
"21","21","encoding","encoding","3","H22.jpg","3",".","37","0","532"
"21","21","encoding","encoding","4","G70.jpg","1",".","37","0","532"
"21","21","encoding","encoding","5","H23.jpg","3",".","37","0","628"
"21","21","encoding","encoding","6","G57.jpg","1",".","37","0","565"
"21","21","encoding","encoding","7","H67.jpg","3",".","37","0","686"
"21","21","encoding","encoding","8","H6.jpg","3",".","37","0","549"
"21","21","encoding","encoding","9","H51.jpg","3",".","37","0","693"
"21","21","encoding","encoding","10","H27.jpg","3",".","37","0","433"
"21","21","encoding","encoding","11","H29.jpg","3",".","37","0","502"
"21","21","encoding","encoding","12","H17.jpg","3",".","37","0","726"
"21","21","encoding","encoding","13","G41.jpg","1",".","37","0","470"
"21","21","encoding","encoding","14","H53.jpg","3",".","37","0","454"
"21","21","encoding","encoding","15","H69.jpg","3",".","37","0","863"
"21","21","encoding","encoding","16","H31.jpg","3",".","37","0","599"
"21","21","encoding","encoding","17","H12.jpg","3",".","37","0","575"
"21","21","encoding","encoding","18","G55.jpg","1",".","37","0","504"
"21","21","encoding","encoding","19","G6.jpg","1",".","37","0","448"
"21","21","encoding","encoding","20","H17.jpg","3",".","37","0","513"
"21","21","encoding","encoding","21","H0.jpg","3",".","37","0","465"
"21","21","encoding","encoding","22","H54.jpg","3",".","37","0","489"
"21","21","encoding","encoding","23","H24.jpg","3",".","37","0","706"
"21","21","encoding","encoding","24","H11.jpg","3",".","37","0","522"
"21","21","encoding","encoding","25","H41.jpg","3",".","37","0","451"
"21","21","encoding","encoding","26","H62.jpg","3",".","37","0","427"
"21","21","encoding","encoding","27","G47.jpg","1",".","37","0","515"
"21","21","encoding","encoding","28","H22.jpg","3",".","37","0","484"
"21","21","encoding","encoding","29","H11.jpg","3",".","37","0","467"
"21","21","encoding","encoding","30","H5.jpg","3",".","37","0","435"
"21","21","encoding","encoding","31","H1.jpg","3",".","37","0","468"
"21","21","encoding","encoding","32","H50.jpg","3",".","37","0","484"
"21","21","encoding","encoding","33","H45.jpg","3",".","37","0","476"
"21","21","encoding","encoding","34","H38.jpg","3",".","37","0","469"
"21","21","encoding","encoding","35","H24.jpg","3",".","37","0","573"
"21","21","encoding","encoding","36","H16.jpg","3",".","37","0","486"
"21","21","encoding","encoding","37","H44.jpg","3",".","37","0","438"
"21","21","encoding","encoding","38","H63.jpg","3",".","37","0","710"
"21","21","encoding","encoding","39","H8.jpg","3",".","37","0","720"
"21","21","encoding","encoding","40","G30.jpg","1",".","37","0","551"
"21","21","encoding","encoding","41","G39.jpg","1",".","37","0","432"
"21","21","encoding","encoding","42","G34.jpg","1",".","37","0","536"
"21","21","encoding","encoding","43","G4.jpg","1",".","37","0","448"
"21","21","encoding","encoding","44","H72.jpg","3",".","37","0","441"
"21","21","encoding","encoding","45","G43.jpg","1",".","37","0","689"
"21","21","encoding","encoding","46","G36.jpg","1",".","37","0","471"
"21","21","encoding","encoding","47","H19.jpg","3",".","37","0","607"
"21","21","encoding","encoding","48","H57.jpg","3",".","37","0","520"
"21","21","encoding","encoding","49","G15.jpg","1",".","36","0","808"
"21","21","encoding","encoding","50","H66.jpg","3",".","37","0","505"
"21","21","encoding","encoding","51","H7.jpg","3",".","37","0","929"
"21","21","encoding","encoding","52","G44.jpg","1",".","37","0","705"
"21","21","encoding","encoding","53","H48.jpg","3",".","37","0","498"
"21","21","encoding","encoding","54","G49.jpg","1",".","37","0","498"
"21","21","encoding","encoding","55","H43.jpg","3",".","37","0","490"
"21","21","encoding","encoding","56","H21.jpg","3",".","37","0","675"
"21","21","encoding","encoding","57","H47.jpg","3",".","37","0","489"
"21","21","encoding","encoding","58","H54.jpg","3",".","36","0","571"
"21","21","encoding","encoding","59","H13.jpg","3",".","37","0","419"
"21","21","encoding","encoding","60","H75.jpg","3",".","37","0","435"
"21","21","encoding","encoding","61","H79.jpg","3",".","37","0","547"
"21","21","encoding","encoding","62","H39.jpg","3",".","37","0","436"
"21","21","encoding","encoding","63","G11.jpg","1",".","37","0","580"
"21","21","encoding","encoding","64","H51.jpg","3",".","37","0","437"
"21","21","encoding","encoding","65","H66.jpg","3",".","37","0","429"
"21","21","encoding","encoding","67","H48.jpg","3",".","37","0","606"
"21","21","encoding","encoding","68","H59.jpg","3",".","37","0","550"
"21","21","encoding","encoding","69","H13.jpg","3",".","37","0","446"
"21","21","encoding","encoding","70","H37.jpg","3",".","37","0","454"
"21","21","encoding","encoding","71","H13.jpg","3",".","37","0","422"
"21","21","encoding","encoding","72","H71.jpg","3",".","37","0","510"
"21","21","encoding","encoding","73","H55.jpg","3",".","37","0","783"
"21","21","encoding","encoding","74","G42.jpg","1",".","36","0","591"
"21","21","encoding","encoding","75","H62.jpg","3",".","37","0","544"
"21","21","encoding","encoding","76","H70.jpg","3",".","37","0","584"
"21","21","encoding","encoding","77","G72.jpg","1",".","37","0","464"
"21","21","encoding","encoding","78","H68.jpg","3",".","37","0","665"
"21","21","encoding","encoding","79","G60.jpg","1",".","37","0","617"
"21","21","encoding","encoding","80","G48.jpg","1",".","37","0","506"
"21","21","encoding","encoding","81","H30.jpg","3",".","37","0","554"
"21","21","encoding","encoding","82","H9.jpg","3",".","37","0","642"
"21","21","encoding","encoding","83","H40.jpg","3",".","37","0","547"
"21","21","encoding","encoding","84","H15.jpg","3",".","37","0","507"
"21","21","encoding","encoding","85","H49.jpg","3",".","36","0","771"
"21","21","encoding","encoding","86","H43.jpg","3",".","37","0","532"
"21","21","encoding","encoding","87","H71.jpg","3",".","37","0","476"
"21","21","encoding","encoding","88","H28.jpg","3",".","0","0","1000"
"21","21","encoding","encoding","89","H41.jpg","3",".","37","0","477"
"21","21","encoding","encoding","90","H65.jpg","3",".","36","0","677"
"21","21","encoding","encoding","91","H3.jpg","3",".","37","0","518"
"21","21","encoding","encoding","92","H32.jpg","3",".","37","0","430"
"21","21","encoding","encoding","93","H60.jpg","3",".","37","0","431"
"21","21","encoding","encoding","94","H30.jpg","3",".","37","0","479"
"21","21","encoding","encoding","95","G1.jpg","1",".","37","0","598"
"21","21","encoding","encoding","96","H4.jpg","3",".","37","0","575"
"21","21","encoding","encoding","97","G35.jpg","1",".","37","0","423"
"21","21","encoding","encoding","98","H16.jpg","3",".","37","0","447"
"21","21","encoding","encoding","99","G17.jpg","1",".","37","0","472"
"21","21","encoding","encoding","100","H44.jpg","3",".","37","0","528"
"21","21","encoding","encoding","101","H25.jpg","3",".","37","0","488"
"21","21","encoding","encoding","102","H79.jpg","3",".","37","0","513"
"21","21","encoding","encoding","103","G38.jpg","1",".","37","0","497"
"21","21","encoding","encoding","104","H39.jpg","3",".","37","0","450"
"21","21","encoding","encoding","105","H31.jpg","3",".","37","0","482"
"21","21","encoding","encoding","106","G75.jpg","1",".","37","0","442"
"21","21","encoding","encoding","107","H55.jpg","3",".","37","0","747"
"21","21","encoding","encoding","108","H26.jpg","3",".","37","0","610"
"21","21","encoding","encoding","109","H61.jpg","3",".","37","0","523"
"21","21","encoding","encoding","110","H72.jpg","3",".","37","0","492"
"21","21","encoding","encoding","111","G77.jpg","1",".","37","0","524"
"21","21","encoding","encoding","112","H54.jpg","3",".","36","0","565"
"21","21","encoding","encoding","113","H14.jpg","3",".","37","0","469"
"21","21","encoding","encoding","114","H78.jpg","3",".","37","0","486"
"21","21","encoding","encoding","115","H28.jpg","3",".","37","0","934"
"21","21","encoding","encoding","116","G21.jpg","1",".","37","0","638"
"21","21","encoding","encoding","117","H20.jpg","3",".","37","0","622"
"21","21","encoding","encoding","118","H30.jpg","3",".","37","0","470"
"21","21","encoding","encoding","119","G51.jpg","1",".","37","0","614"
"21","21","encoding","encoding","120","H64.jpg","3",".","36","0","703"
"21","21","encoding","encoding","121","H15.jpg","3",".","37","0","656"
"21","21","encoding","encoding","122","H1.jpg","3",".","37","0","696"
"21","21","encoding","encoding","123","H19.jpg","3",".","37","0","928"
"21","21","encoding","encoding","124","H12.jpg","3",".","37","0","520"
"21","21","encoding","encoding","125","G45.jpg","1",".","37","0","562"
"21","21","encoding","encoding","126","H45.jpg","3",".","37","0","713"
"21","21","encoding","encoding","127","H68.jpg","3",".","37","0","570"
"21","21","encoding","encoding","128","H78.jpg","3",".","37","0","554"
"21","21","encoding","encoding","129","H29.jpg","3",".","37","0","474"
"21","21","encoding","encoding","130","H26.jpg","3",".","37","0","603"
"21","21","encoding","encoding","131","H9.jpg","3",".","37","0","475"
"21","21","encoding","encoding","133","H15.jpg","3",".","37","0","719"
"21","21","encoding","encoding","134","H25.jpg","3",".","37","0","456"
"21","21","encoding","encoding","135","H4.jpg","3",".","37","0","536"
"21","21","encoding","encoding","136","H6.jpg","3",".","37","0","457"
"21","21","encoding","encoding","137","H33.jpg","3",".","37","0","705"
"21","21","encoding","encoding","138","H37.jpg","3",".","37","0","673"
"21","21","encoding","encoding","139","H53.jpg","3",".","37","0","618"
"21","21","encoding","encoding","140","G16.jpg","1",".","37","0","538"
"21","21","encoding","encoding","141","H56.jpg","3",".","37","0","419"
"21","21","encoding","encoding","142","G13.jpg","1",".","37","0","443"
"21","21","encoding","encoding","143","G62.jpg","1",".","37","0","451"
"21","21","encoding","encoding","144","H19.jpg","3",".","37","0","428"
"21","21","encoding","encoding","145","G0.jpg","1",".","37","0","500"
"21","21","encoding","encoding","146","H74.jpg","3",".","37","0","452"
"21","21","encoding","encoding","147","H40.jpg","3",".","37","0","533"
"21","21","encoding","encoding","148","H64.jpg","3",".","36","0","645"
"21","21","encoding","encoding","149","H62.jpg","3",".","37","0","558"
"21","21","encoding","encoding","150","G52.jpg","1",".","37","0","486"
"21","21","encoding","encoding","151","G24.jpg","1",".","37","0","486"
"21","21","encoding","encoding","152","G56.jpg","1",".","37","0","580"
"21","21","encoding","encoding","153","G40.jpg","1",".","37","0","493"
"21","21","encoding","encoding","154","G28.jpg","1",".","37","0","501"
"21","21","encoding","encoding","155","G64.jpg","1",".","37","0","526"
"21","21","encoding","encoding","156","H31.jpg","3",".","37","0","678"
"21","21","encoding","encoding","157","H18.jpg","3",".","37","0","510"
"21","21","encoding","encoding","158","H52.jpg","3",".","37","0","503"
"21","21","encoding","encoding","159","H47.jpg","3",".","37","0","527"
"21","21","encoding","encoding","160","H2.jpg","3",".","37","0","511"
"21","21","encoding","encoding","161","G46.jpg","1",".","37","0","936"
"21","21","encoding","encoding","162","H50.jpg","3",".","37","0","504"
"21","21","encoding","encoding","163","H68.jpg","3",".","37","0","489"
"21","21","encoding","encoding","164","G61.jpg","1",".","37","0","505"
"21","21","encoding","encoding","165","H33.jpg","3",".","37","0","513"
"21","21","encoding","encoding","166","H4.jpg","3",".","37","0","545"
"21","21","encoding","encoding","167","H34.jpg","3",".","37","0","815"
"21","21","encoding","encoding","168","H42.jpg","3",".","37","0","480"
"21","21","encoding","encoding","169","H65.jpg","3",".","37","0","561"
"21","21","encoding","encoding","170","H73.jpg","3",".","37","0","425"
"21","21","encoding","encoding","171","H2.jpg","3",".","37","0","545"
"21","21","encoding","encoding","172","G68.jpg","1",".","37","0","489"
"21","21","encoding","encoding","173","H36.jpg","3",".","37","0","449"
"21","21","encoding","encoding","174","H60.jpg","3",".","37","0","450"
"21","21","encoding","encoding","175","H66.jpg","3",".","37","0","578"
"21","21","encoding","encoding","176","H70.jpg","3",".","37","0","602"
"21","21","encoding","encoding","177","H0.jpg","3",".","37","0","803"
"21","21","encoding","encoding","178","H38.jpg","3",".","37","0","483"
"21","21","encoding","encoding","179","H17.jpg","3",".","37","0","571"
"21","21","encoding","encoding","180","H34.jpg","3",".","37","0","476"
"21","21","encoding","encoding","181","G66.jpg","1",".","37","0","492"
"21","21","encoding","encoding","182","G8.jpg","1",".","37","0","452"
"21","21","encoding","encoding","183","H8.jpg","3",".","37","0","436"
"21","21","encoding","encoding","184","G33.jpg","1",".","37","0","428"
"21","21","encoding","encoding","185","G78.jpg","1",".","37","0","525"
"21","21","encoding","encoding","186","H42.jpg","3",".","37","0","589"
"21","21","encoding","encoding","187","G23.jpg","1",".","37","0","453"
"21","21","encoding","encoding","188","H46.jpg","3",".","37","0","446"
"21","21","encoding","encoding","189","H5.jpg","3",".","37","0","390"
"21","21","encoding","encoding","190","G73.jpg","1",".","37","0","383"
"21","21","encoding","encoding","191","H73.jpg","3",".","37","0","431"
"21","21","encoding","encoding","192","H14.jpg","3",".","37","0","511"
"21","21","encoding","encoding","193","H53.jpg","3",".","37","0","480"
"21","21","encoding","encoding","194","H56.jpg","3",".","37","0","456"
"21","21","encoding","encoding","195","H1.jpg","3",".","37","0","465"
"21","21","encoding","encoding","196","G63.jpg","1",".","36","0","825"
"21","21","encoding","encoding","197","H2.jpg","3",".","37","0","513"
"21","21","encoding","encoding","199","H9.jpg","3",".","37","0","646"
"21","21","encoding","encoding","200","H63.jpg","3",".","37","0","511"
"21","21","encoding","encoding","201","H3.jpg","3",".","37","0","391"
"21","21","encoding","encoding","202","G37.jpg","1",".","37","0","439"
"21","21","encoding","encoding","203","H34.jpg","3",".","37","0","512"
"21","21","encoding","encoding","204","H39.jpg","3",".","37","0","464"
"21","21","encoding","encoding","205","H69.jpg","3",".","37","0","457"
"21","21","encoding","encoding","206","H77.jpg","3",".","37","0","449"
"21","21","encoding","encoding","207","G27.jpg","1",".","37","0","338"
"21","21","encoding","encoding","208","H79.jpg","3",".","37","0","546"
"21","21","encoding","encoding","209","G3.jpg","1",".","37","0","434"
"21","21","encoding","encoding","210","G5.jpg","1",".","37","0","563"
"21","21","encoding","encoding","211","H22.jpg","3",".","37","0","403"
"21","21","encoding","encoding","212","H43.jpg","3",".","37","0","419"
"21","21","encoding","encoding","213","H47.jpg","3",".","37","0","460"
"21","21","encoding","encoding","214","G26.jpg","1",".","37","0","508"
"21","21","encoding","encoding","215","H46.jpg","3",".","37","0","493"
"21","21","encoding","encoding","216","H61.jpg","3",".","37","0","437"
"21","21","encoding","encoding","217","H20.jpg","3",".","37","0","485"
"21","21","encoding","encoding","218","H10.jpg","3",".","37","0","454"
"21","21","encoding","encoding","219","H7.jpg","3",".","37","0","550"
"21","21","encoding","encoding","220","G50.jpg","1",".","37","0","502"
"21","21","encoding","encoding","221","H25.jpg","3",".","37","0","455"
"21","21","encoding","encoding","222","H72.jpg","3",".","37","0","526"
"21","21","encoding","encoding","223","H56.jpg","3",".","37","0","424"
"21","21","encoding","encoding","224","H20.jpg","3",".","37","0","456"
"21","21","encoding","encoding","225","G58.jpg","1",".","37","0","457"
"21","21","encoding","encoding","226","G2.jpg","1",".","37","0","448"
"21","21","encoding","encoding","227","G74.jpg","1",".","37","0","481"
"21","21","encoding","encoding","228","H16.jpg","3",".","37","0","439"
"21","21","encoding","encoding","229","H18.jpg","3",".","37","0","416"
"21","21","encoding","encoding","230","H8.jpg","3",".","37","0","416"
"21","21","encoding","encoding","231","H40.jpg","3",".","37","0","426"
"21","21","encoding","encoding","232","H26.jpg","3",".","37","0","481"
"21","21","encoding","encoding","233","H77.jpg","3",".","37","0","505"
"21","21","encoding","encoding","234","H35.jpg","3",".","37","0","618"
"21","21","encoding","encoding","235","G29.jpg","1",".","37","0","626"
"21","21","encoding","encoding","236","H5.jpg","3",".","37","0","563"
"21","21","encoding","encoding","237","H36.jpg","3",".","37","0","459"
"21","21","encoding","encoding","238","H74.jpg","3",".","37","0","443"
"21","21","encoding","encoding","239","H50.jpg","3",".","37","0","548"
"21","21","encoding","encoding","240","H33.jpg","3",".","37","0","468"
"21","21","encoding","encoding","241","H71.jpg","3",".","37","0","445"
"21","21","encoding","encoding","242","H27.jpg","3",".","37","0","525"
"21","21","encoding","encoding","243","H67.jpg","3",".","37","0","469"
"21","21","encoding","encoding","244","H27.jpg","3",".","37","0","486"
"21","21","encoding","encoding","245","H48.jpg","3",".","37","0","486"
"21","21","encoding","encoding","246","H61.jpg","3",".","37","0","422"
"21","21","encoding","encoding","247","G18.jpg","1",".","37","0","399"
"21","21","encoding","encoding","248","G54.jpg","1",".","37","0","439"
"21","21","encoding","encoding","249","H63.jpg","3",".","37","0","456"
"21","21","encoding","encoding","250","G67.jpg","1",".","37","0","432"
"21","21","encoding","encoding","251","G22.jpg","1",".","37","0","480"
"21","21","encoding","encoding","252","G79.jpg","1",".","37","0","465"
"21","21","encoding","encoding","253","G69.jpg","1",".","37","0","521"
"21","21","encoding","encoding","254","G20.jpg","1",".","37","0","594"
"21","21","encoding","encoding","255","H12.jpg","3",".","37","0","498"
"21","21","encoding","encoding","256","H78.jpg","3",".","37","0","466"
"21","21","encoding","encoding","257","H23.jpg","3",".","37","0","427"
"21","21","encoding","encoding","258","H58.jpg","3",".","37","0","483"
"21","21","encoding","encoding","259","H76.jpg","3",".","37","0","604"
"21","21","encoding","encoding","260","H52.jpg","3",".","37","0","564"
"21","21","encoding","encoding","261","G76.jpg","1",".","37","0","516"
"21","21","encoding","encoding","262","H29.jpg","3",".","37","0","533"
"21","21","encoding","encoding","263","H24.jpg","3",".","37","0","597"
"21","21","encoding","encoding","265","H64.jpg","3",".","0","0","1000"
"21","21","encoding","encoding","266","H32.jpg","3",".","37","0","539"
"21","21","encoding","encoding","267","H42.jpg","3",".","37","0","604"
"21","21","encoding","encoding","268","G7.jpg","1",".","37","0","468"
"21","21","encoding","encoding","269","G9.jpg","1",".","37","0","500"
"21","21","encoding","encoding","270","H59.jpg","3",".","37","0","437"
"21","21","encoding","encoding","271","H76.jpg","3",".","37","0","405"
"21","21","encoding","encoding","272","H32.jpg","3",".","37","0","420"
"21","21","encoding","encoding","273","H57.jpg","3",".","37","0","558"
"21","21","encoding","encoding","274","H44.jpg","3",".","37","0","494"
"21","21","encoding","encoding","275","H10.jpg","3",".","37","0","383"
"21","21","encoding","encoding","276","H21.jpg","3",".","37","0","439"
"21","21","encoding","encoding","277","H58.jpg","3",".","37","0","375"
"21","21","encoding","encoding","278","H37.jpg","3",".","37","0","368"
"21","21","encoding","encoding","279","H18.jpg","3",".","37","0","439"
"21","21","encoding","encoding","280","H41.jpg","3",".","37","0","416"
"21","21","encoding","encoding","281","G10.jpg","1",".","37","0","417"
"21","21","encoding","encoding","282","H74.jpg","3",".","37","0","472"
"21","21","encoding","encoding","283","G65.jpg","1",".","37","0","489"
"21","21","encoding","encoding","284","H65.jpg","3",".","37","0","521"
"21","21","encoding","encoding","285","H35.jpg","3",".","37","0","681"
"21","21","encoding","encoding","286","H55.jpg","3",".","37","0","698"
"21","21","encoding","encoding","287","H57.jpg","3",".","37","0","530"
"21","21","encoding","encoding","288","H3.jpg","3",".","37","0","475"
"21","21","encoding","encoding","289","H49.jpg","3",".","0","0","1000"
"21","21","encoding","encoding","290","H21.jpg","3",".","37","0","683"
"21","21","encoding","encoding","291","H59.jpg","3",".","37","0","532"
"21","21","encoding","encoding","292","H36.jpg","3",".","37","0","412"
"21","21","encoding","encoding","293","H77.jpg","3",".","37","0","509"
"21","21","encoding","encoding","294","G14.jpg","1",".","37","0","445"
"21","21","encoding","encoding","295","H23.jpg","3",".","37","0","413"
"21","21","encoding","encoding","296","G25.jpg","1",".","37","0","422"
"21","21","encoding","encoding","297","H67.jpg","3",".","37","0","430"
"21","21","encoding","encoding","298","H58.jpg","3",".","37","0","471"
"21","21","encoding","encoding","299","G12.jpg","1",".","37","0","383"
"21","21","encoding","encoding","300","G71.jpg","1",".","37","0","487"
"21","21","encoding","encoding","301","H46.jpg","3",".","37","0","456"
"21","21","encoding","encoding","302","H49.jpg","3",".","37","0","464"
"21","21","encoding","encoding","303","H73.jpg","3",".","37","0","640"
"21","21","encoding","encoding","304","H69.jpg","3",".","37","0","593"
"21","21","encoding","encoding","305","H75.jpg","3",".","37","0","705"
"21","21","encoding","encoding","306","H11.jpg","3",".","37","0","458"
"21","21","encoding","encoding","307","H52.jpg","3",".","37","0","458"
"21","21","encoding","encoding","308","G31.jpg","1",".","37","0","474"
"21","21","encoding","encoding","309","H7.jpg","3",".","37","0","395"
"21","21","encoding","encoding","310","H76.jpg","3",".","37","0","579"
"21","21","encoding","encoding","311","G19.jpg","1",".","37","0","436"
"21","21","encoding","encoding","312","G32.jpg","1",".","37","0","300"
"21","21","encoding","encoding","313","H60.jpg","3",".","37","0","340"
"21","21","encoding","encoding","314","H45.jpg","3",".","37","0","429"
"21","21","encoding","encoding","315","H75.jpg","3",".","37","0","461"
"21","21","encoding","encoding","316","H6.jpg","3",".","37","0","341"
"21","21","encoding","encoding","317","H28.jpg","3",".","36","0","693"
"21","21","encoding","encoding","318","H51.jpg","3",".","37","0","421"
"21","21","encoding","encoding","319","H70.jpg","3",".","37","0","653"
"21","21","encoding","encoding","320","G59.jpg","1",".","37","0","582"
"21","21","encoding","encoding","321","H0.jpg","3",".","37","0","510"
"21","21","encoding","encoding","322","H35.jpg","3",".","37","0","751"
"21","21","encoding","encoding","323","H38.jpg","3",".","37","0","487"
"21","21","encoding","encoding","324","H14.jpg","3",".","37","0","663"
"21","21","encoding","encoding","325","G53.jpg","",".","37","0","440"
"21","21","retrieval","old_object","1","G44.jpg",".","1","0","0","2000"
"21","21","retrieval","new_object","2","F53.jpg",".",".","0","0","2000"
"21","21","retrieval","new_object","3","F14.jpg",".",".","36","0","1237"
"21","21","retrieval","new_object","4","F49.jpg",".",".","36","0","782"
"21","21","retrieval","old_object","5","H55.jpg",".","3","37","0","375"
"21","21","retrieval","old_object","6","G26.jpg",".","1","37","0","1169"
"21","21","retrieval","new_object","7","E36.jpg",".",".","37","1","946"
"21","21","retrieval","new_object","8","E69.jpg",".",".","37","1","740"
"21","21","retrieval","old_object","9","H16.jpg",".","3","36","1","765"
"21","21","retrieval","new_object","10","E6.jpg",".",".","37","1","823"
"21","21","retrieval","new_object","11","E44.jpg",".",".","36","0","1448"
"21","21","retrieval","new_object","12","E63.jpg",".",".","37","1","1417"
"21","21","retrieval","new_object","13","E15.jpg",".",".","37","1","515"
"21","21","retrieval","new_object","14","F73.jpg",".",".","37","1","868"
"21","21","retrieval","old_object","15","H31.jpg",".","3","37","0","542"
"21","21","retrieval","new_object","16","E39.jpg",".",".","37","1","647"
"21","21","retrieval","old_object","17","G37.jpg",".","1","37","0","753"
"21","21","retrieval","old_object","18","G22.jpg",".","1","37","0","570"
"21","21","retrieval","old_object","19","G36.jpg",".","1","37","0","531"
"21","21","retrieval","new_object","20","E49.jpg",".",".","37","1","773"
"21","21","retrieval","new_object","21","E78.jpg",".",".","37","1","662"
"21","21","retrieval","old_object","22","G3.jpg",".","1","37","0","647"
"21","21","retrieval","new_object","23","F5.jpg",".",".","37","1","657"
"21","21","retrieval","new_object","24","E73.jpg",".",".","36","0","619"
"21","21","retrieval","new_object","25","F4.jpg",".",".","37","1","787"
"21","21","retrieval","old_object","26","G23.jpg",".","1","37","0","660"
"21","21","retrieval","new_object","27","E21.jpg",".",".","37","1","727"
"21","21","retrieval","new_object","28","E43.jpg",".",".","37","1","528"
"21","21","retrieval","new_object","29","E25.jpg",".",".","37","1","537"
"21","21","retrieval","old_object","30","G30.jpg",".","1","37","0","610"
"21","21","retrieval","new_object","31","E52.jpg",".",".","37","1","820"
"21","21","retrieval","new_object","32","F20.jpg",".",".","37","1","685"
"21","21","retrieval","old_object","33","H74.jpg",".","3","37","0","806"
"21","21","retrieval","old_object","34","G56.jpg",".","1","36","1","1248"
"21","21","retrieval","new_object","35","E77.jpg",".",".","37","1","713"
"21","21","retrieval","new_object","36","E55.jpg",".",".","37","1","523"
"21","21","retrieval","old_object","37","G68.jpg",".","1","37","0","612"
"21","21","retrieval","new_object","38","F17.jpg",".",".","37","1","557"
"21","21","retrieval","new_object","39","F11.jpg",".",".","37","1","511"
"21","21","retrieval","old_object","40","H22.jpg",".","3","37","0","536"
"21","21","retrieval","new_object","41","F51.jpg",".",".","37","1","1170"
"21","21","retrieval","new_object","42","E47.jpg",".",".","37","1","715"
"21","21","retrieval","old_object","43","H20.jpg",".","3","36","1","773"
"21","21","retrieval","new_object","44","E10.jpg",".",".","37","1","926"
"21","21","retrieval","old_object","45","H34.jpg",".","3","36","1","759"
"21","21","retrieval","old_object","46","G21.jpg",".","1","37","0","841"
"21","21","retrieval","old_object","47","H67.jpg",".","3","36","1","826"
"21","21","retrieval","new_object","48","F63.jpg",".",".","37","1","692"
"21","21","retrieval","new_object","49","E20.jpg",".",".","37","1","1133"
"21","21","retrieval","old_object","50","G17.jpg",".","1","37","0","791"
"21","21","retrieval","new_object","51","F76.jpg",".",".","37","1","848"
"21","21","retrieval","new_object","52","E4.jpg",".",".","37","1","682"
"21","21","retrieval","new_object","53","F27.jpg",".",".","37","1","610"
"21","21","retrieval","old_object","54","G60.jpg",".","1","37","0","771"
"21","21","retrieval","old_object","55","H52.jpg",".","3","36","1","789"
"21","21","retrieval","old_object","56","H60.jpg",".","3","36","1","759"
"21","21","retrieval","old_object","57","G51.jpg",".","1","36","1","745"
"21","21","retrieval","old_object","58","H33.jpg",".","3","36","1","770"
"21","21","retrieval","old_object","59","G74.jpg",".","1","37","0","642"
"21","21","retrieval","old_object","60","H14.jpg",".","3","36","1","740"
"21","21","retrieval","old_object","61","G35.jpg",".","1","37","0","933"
"21","21","retrieval","old_object","62","H37.jpg",".","3","36","1","871"
"21","21","retrieval","new_object","63","F55.jpg",".",".","36","0","912"
"21","21","retrieval","old_object","64","G54.jpg",".","1","36","1","1034"
"21","21","retrieval","new_object","65","F62.jpg",".",".","37","1","771"
"21","21","retrieval","new_object","67","F8.jpg",".",".","37","1","985"
"21","21","retrieval","old_object","68","G41.jpg",".","1","36","1","1051"
"21","21","retrieval","old_object","69","G11.jpg",".","1","36","1","684"
"21","21","retrieval","old_object","70","G5.jpg",".","1","36","1","1149"
"21","21","retrieval","new_object","71","E62.jpg",".",".","37","1","751"
"21","21","retrieval","old_object","72","G46.jpg",".","1","36","1","816"
"21","21","retrieval","old_object","73","H6.jpg",".","3","36","1","738"
"21","21","retrieval","old_object","74","G6.jpg",".","1","36","1","875"
"21","21","retrieval","old_object","75","H17.jpg",".","3","36","1","749"
"21","21","retrieval","old_object","76","G42.jpg",".","1","36","1","718"
"21","21","retrieval","new_object","77","E65.jpg",".",".","37","1","687"
"21","21","retrieval","old_object","78","H56.jpg",".","3","36","1","681"
"21","21","retrieval","new_object","79","F6.jpg",".",".","37","1","634"
"21","21","retrieval","old_object","80","G49.jpg",".","1","36","1","892"
"21","21","retrieval","new_object","81","E38.jpg",".",".","37","1","845"
"21","21","retrieval","new_object","82","F42.jpg",".",".","37","1","895"
"21","21","retrieval","new_object","83","E48.jpg",".",".","37","1","824"
"21","21","retrieval","new_object","84","E51.jpg",".",".","37","1","857"
"21","21","retrieval","old_object","85","H51.jpg",".","3","36","1","771"
"21","21","retrieval","old_object","86","H78.jpg",".","3","36","1","828"
"21","21","retrieval","old_object","87","G50.jpg",".","1","37","0","694"
"21","21","retrieval","new_object","88","E56.jpg",".",".","37","1","574"
"21","21","retrieval","old_object","89","G65.jpg",".","1","37","0","665"
"21","21","retrieval","old_object","90","H64.jpg",".","3","36","1","833"
"21","21","retrieval","new_object","91","F41.jpg",".",".","37","1","650"
"21","21","retrieval","new_object","92","E41.jpg",".",".","37","1","804"
"21","21","retrieval","new_object","93","F40.jpg",".",".","37","1","894"
"21","21","retrieval","old_object","94","G0.jpg",".","1","36","1","935"
"21","21","retrieval","new_object","95","F37.jpg",".",".","37","1","952"
"21","21","retrieval","old_object","96","H4.jpg",".","3","36","1","697"
"21","21","retrieval","old_object","97","G63.jpg",".","1","36","1","1243"
"21","21","retrieval","old_object","98","G69.jpg",".","1","37","0","708"
"21","21","retrieval","old_object","99","G19.jpg",".","1","37","0","950"
"21","21","retrieval","old_object","100","H70.jpg",".","3","36","1","927"
"21","21","retrieval","new_object","101","F54.jpg",".",".","37","1","897"
"21","21","retrieval","new_object","102","F35.jpg",".",".","37","1","794"
"21","21","retrieval","old_object","103","H43.jpg",".","3","37","0","579"
"21","21","retrieval","new_object","104","E24.jpg",".",".","37","1","709"
"21","21","retrieval","old_object","105","G28.jpg",".","1","37","0","806"
"21","21","retrieval","old_object","106","H71.jpg",".","3","36","1","1024"
"21","21","retrieval","old_object","107","H58.jpg",".","3","37","0","1017"
"21","21","retrieval","new_object","108","F66.jpg",".",".","36","0","1075"
"21","21","retrieval","old_object","109","H5.jpg",".","3","37","0","1052"
"21","21","retrieval","new_object","110","E17.jpg",".",".","37","1","894"
"21","21","retrieval","old_object","111","H13.jpg",".","3","37","0","959"
"21","21","retrieval","new_object","112","F24.jpg",".",".","37","1","728"
"21","21","retrieval","old_object","113","G61.jpg",".","1","37","0","794"
"21","21","retrieval","old_object","114","H32.jpg",".","3","37","0","787"
"21","21","retrieval","new_object","115","E2.jpg",".",".","37","1","757"
"21","21","retrieval","old_object","116","G15.jpg",".","1","36","1","1246"
"21","21","retrieval","new_object","117","E42.jpg",".",".","37","1","784"
"21","21","retrieval","old_object","118","H21.jpg",".","3","36","1","793"
"21","21","retrieval","new_object","119","E12.jpg",".",".","37","1","642"
"21","21","retrieval","old_object","120","H42.jpg",".","3","37","0","659"
"21","21","retrieval","new_object","121","E18.jpg",".",".","37","1","740"
"21","21","retrieval","old_object","122","G52.jpg",".","1","36","1","927"
"21","21","retrieval","old_object","123","H57.jpg",".","3","37","0","711"
"21","21","retrieval","new_object","124","F77.jpg",".",".","37","1","634"
"21","21","retrieval","new_object","125","E74.jpg",".",".","37","1","586"
"21","21","retrieval","new_object","126","E37.jpg",".",".","37","1","796"
"21","21","retrieval","old_object","127","H29.jpg",".","3","37","0","557"
"21","21","retrieval","new_object","128","E70.jpg",".",".","37","1","774"
"21","21","retrieval","new_object","129","F33.jpg",".",".","37","1","592"
"21","21","retrieval","old_object","130","H35.jpg",".","3","37","0","545"
"21","21","retrieval","old_object","131","H75.jpg",".","3","37","0","618"
"21","21","retrieval","old_object","133","H23.jpg",".","3","37","0","698"
"21","21","retrieval","new_object","134","E66.jpg",".",".","37","1","924"
"21","21","retrieval","new_object","135","F23.jpg",".",".","37","1","645"
"21","21","retrieval","new_object","136","F7.jpg",".",".","37","1","639"
"21","21","retrieval","new_object","137","F58.jpg",".",".","37","1","576"
"21","21","retrieval","new_object","138","F70.jpg",".",".","37","1","522"
"21","21","retrieval","old_object","139","H18.jpg",".","3","37","0","484"
"21","21","retrieval","new_object","140","E27.jpg",".",".","37","1","636"
"21","21","retrieval","new_object","141","F36.jpg",".",".","37","1","630"
"21","21","retrieval","new_object","142","E26.jpg",".",".","37","1","607"
"21","21","retrieval","new_object","143","F28.jpg",".",".","37","1","577"
"21","21","retrieval","old_object","144","G14.jpg",".","1","37","0","538"
"21","21","retrieval","old_object","145","H77.jpg",".","3","37","0","740"
"21","21","retrieval","old_object","146","H27.jpg",".","3","36","1","661"
"21","21","retrieval","old_object","147","G72.jpg",".","1","37","0","902"
"21","21","retrieval","old_object","148","G77.jpg",".","1","37","0","576"
"21","21","retrieval","new_object","149","E30.jpg",".",".","37","1","689"
"21","21","retrieval","new_object","150","F25.jpg",".",".","37","1","643"
"21","21","retrieval","new_object","151","F2.jpg",".",".","37","1","692"
"21","21","retrieval","new_object","152","F59.jpg",".",".","37","1","750"
"21","21","retrieval","new_object","153","F60.jpg",".",".","37","1","638"
"21","21","retrieval","new_object","154","F22.jpg",".",".","37","1","880"
"21","21","retrieval","new_object","155","E5.jpg",".",".","37","1","674"
"21","21","retrieval","old_object","156","G18.jpg",".","1","37","0","739"
"21","21","retrieval","new_object","157","F21.jpg",".",".","37","1","829"
"21","21","retrieval","new_object","158","F69.jpg",".",".","37","1","733"
"21","21","retrieval","new_object","159","F0.jpg",".",".","37","1","1047"
"21","21","retrieval","old_object","160","H53.jpg",".","3","37","0","1504"
"21","21","retrieval","new_object","161","E16.jpg",".",".","37","1","801"
"21","21","retrieval","new_object","162","F71.jpg",".",".","37","1","715"
"21","21","retrieval","new_object","163","F74.jpg",".",".","37","1","652"
"21","21","retrieval","old_object","164","G7.jpg",".","1","37","0","734"
"21","21","retrieval","old_object","165","G66.jpg",".","1","37","0","943"
"21","21","retrieval","old_object","166","H47.jpg",".","3","37","0","785"
"21","21","retrieval","old_object","167","H11.jpg",".","3","37","0","994"
"21","21","retrieval","new_object","168","E13.jpg",".",".","37","1","1043"
"21","21","retrieval","new_object","169","F38.jpg",".",".","37","1","1517"
"21","21","retrieval","old_object","170","G24.jpg",".","1","37","0","1046"
"21","21","retrieval","new_object","171","F67.jpg",".",".","37","1","768"
"21","21","retrieval","new_object","172","E58.jpg",".",".","37","1","1457"
"21","21","retrieval","new_object","173","F16.jpg",".",".","0","0","2000"
"21","21","retrieval","new_object","174","F56.jpg",".",".","37","1","812"
"21","21","retrieval","new_object","175","F39.jpg",".",".","37","1","1173"
"21","21","retrieval","new_object","176","F44.jpg",".",".","37","1","951"
"21","21","retrieval","new_object","177","E60.jpg",".",".","37","1","1256"
"21","21","retrieval","new_object","178","E67.jpg",".",".","37","1","378"
"21","21","retrieval","new_object","179","E46.jpg",".",".","37","1","859"
"21","21","retrieval","new_object","180","F12.jpg",".",".","37","1","660"
"21","21","retrieval","old_object","181","G39.jpg",".","1","37","0","550"
"21","21","retrieval","old_object","182","H40.jpg",".","3","37","0","543"
"21","21","retrieval","new_object","183","E79.jpg",".",".","37","1","824"
"21","21","retrieval","new_object","184","F9.jpg",".",".","37","1","1282"
"21","21","retrieval","old_object","185","H30.jpg",".","3","37","0","579"
"21","21","retrieval","old_object","186","G27.jpg",".","1","37","0","964"
"21","21","retrieval","old_object","187","H0.jpg",".","3","37","0","613"
"21","21","retrieval","old_object","188","G20.jpg",".","1","37","0","527"
"21","21","retrieval","old_object","189","G33.jpg",".","1","37","0","1712"
"21","21","retrieval","old_object","190","H25.jpg",".","3","37","0","481"
"21","21","retrieval","new_object","191","F75.jpg",".",".","37","1","1027"
"21","21","retrieval","old_object","192","H19.jpg",".","3","37","0","1029"
"21","21","retrieval","old_object","193","G38.jpg",".","1","37","0","581"
"21","21","retrieval","old_object","194","G32.jpg",".","1","37","0","598"
"21","21","retrieval","old_object","195","H61.jpg",".","3","37","0","616"
"21","21","retrieval","old_object","196","G4.jpg",".","1","37","0","561"
"21","21","retrieval","new_object","197","E53.jpg",".",".","37","1","779"
"21","21","retrieval","new_object","199","E22.jpg",".",".","37","1","905"
"21","21","retrieval","new_object","200","F65.jpg",".",".","37","1","522"
"21","21","retrieval","new_object","201","F72.jpg",".",".","37","1","540"
"21","21","retrieval","old_object","202","H63.jpg",".","3","37","0","557"
"21","21","retrieval","new_object","203","F10.jpg",".",".","37","1","615"
"21","21","retrieval","new_object","204","F26.jpg",".",".","37","1","568"
"21","21","retrieval","new_object","205","E33.jpg",".",".","37","1","145"
"21","21","retrieval","old_object","206","H76.jpg",".","3","37","0","1043"
"21","21","retrieval","new_object","207","F3.jpg",".",".","37","1","828"
"21","21","retrieval","new_object","208","E59.jpg",".",".","37","1","1406"
"21","21","retrieval","old_object","209","H69.jpg",".","3","36","1","823"
"21","21","retrieval","new_object","210","E71.jpg",".",".","37","1","1654"
"21","21","retrieval","old_object","211","G16.jpg",".","1","0","0","2000"
"21","21","retrieval","old_object","212","H8.jpg",".","3","0","0","2000"
"21","21","retrieval","new_object","213","E35.jpg",".",".","36","0","1461"
"21","21","retrieval","old_object","214","H49.jpg",".","3","36","1","782"
"21","21","retrieval","new_object","215","E50.jpg",".",".","37","1","704"
"21","21","retrieval","new_object","216","E40.jpg",".",".","37","1","801"
"21","21","retrieval","new_object","217","E32.jpg",".",".","37","1","611"
"21","21","retrieval","new_object","218","F19.jpg",".",".","37","1","548"
"21","21","retrieval","new_object","219","E8.jpg",".",".","37","1","685"
"21","21","retrieval","old_object","220","H24.jpg",".","3","37","0","598"
"21","21","retrieval","old_object","221","G2.jpg",".","1","37","0","760"
"21","21","retrieval","old_object","222","H46.jpg",".","3","37","0","569"
"21","21","retrieval","new_object","223","F32.jpg",".",".","37","1","578"
"21","21","retrieval","old_object","224","H73.jpg",".","3","37","0","508"
"21","21","retrieval","old_object","225","G31.jpg",".","1","37","0","405"
"21","21","retrieval","new_object","226","F61.jpg",".",".","37","1","550"
"21","21","retrieval","old_object","227","H28.jpg",".","3","36","1","817"
"21","21","retrieval","old_object","228","H68.jpg",".","3","36","1","841"
"21","21","retrieval","old_object","229","H1.jpg",".","3","37","0","587"
"21","21","retrieval","old_object","230","G53.jpg",".","1","36","1","1340"
"21","21","retrieval","old_object","231","G79.jpg",".","1","37","0","686"
"21","21","retrieval","new_object","232","F68.jpg",".",".","37","1","1087"
"21","21","retrieval","new_object","233","E61.jpg",".",".","37","1","680"
"21","21","retrieval","new_object","234","F45.jpg",".",".","37","1","786"
"21","21","retrieval","old_object","235","H41.jpg",".","3","37","0","731"
"21","21","retrieval","new_object","236","F79.jpg",".",".","37","1","781"
"21","21","retrieval","old_object","237","G58.jpg",".","1","37","0","590"
"21","21","retrieval","new_object","238","E75.jpg",".",".","37","1","864"
"21","21","retrieval","new_object","239","F78.jpg",".",".","37","1","841"
"21","21","retrieval","new_object","240","E23.jpg",".",".","37","1","738"
"21","21","retrieval","old_object","241","H12.jpg",".","3","37","0","972"
"21","21","retrieval","new_object","242","E28.jpg",".",".","37","1","1037"
"21","21","retrieval","new_object","243","E11.jpg",".",".","37","1","591"
"21","21","retrieval","old_object","244","H79.jpg",".","3","37","0","560"
"21","21","retrieval","old_object","245","H44.jpg",".","3","37","0","682"
"21","21","retrieval","new_object","246","E29.jpg",".",".","37","1","843"
"21","21","retrieval","old_object","247","G12.jpg",".","1","37","0","596"
"21","21","retrieval","new_object","248","E45.jpg",".",".","37","1","726"
"21","21","retrieval","old_object","249","H3.jpg",".","3","37","0","605"
"21","21","retrieval","old_object","250","H36.jpg",".","3","37","0","1022"
"21","21","retrieval","old_object","251","H66.jpg",".","3","37","0","648"
"21","21","retrieval","old_object","252","G13.jpg",".","1","37","0","545"
"21","21","retrieval","new_object","253","E72.jpg",".",".","37","1","667"
"21","21","retrieval","new_object","254","F52.jpg",".",".","37","1","963"
"21","21","retrieval","old_object","255","H59.jpg",".","3","37","0","669"
"21","21","retrieval","old_object","256","H38.jpg",".","3","37","0","615"
"21","21","retrieval","old_object","257","G48.jpg",".","1","37","0","799"
"21","21","retrieval","old_object","258","G10.jpg",".","1","37","0","753"
"21","21","retrieval","new_object","259","E34.jpg",".",".","37","1","978"
"21","21","retrieval","old_object","260","H65.jpg",".","3","37","0","981"
"21","21","retrieval","old_object","261","G62.jpg",".","1","37","0","685"
"21","21","retrieval","old_object","262","G55.jpg",".","1","37","0","751"
"21","21","retrieval","new_object","263","E31.jpg",".",".","37","1","736"
"21","21","retrieval","old_object","265","G43.jpg",".","1","37","0","1168"
"21","21","retrieval","old_object","266","G57.jpg",".","1","36","1","1343"
"21","21","retrieval","new_object","267","E54.jpg",".",".","37","1","553"
"21","21","retrieval","old_object","268","H62.jpg",".","3","37","0","658"
"21","21","retrieval","old_object","269","G78.jpg",".","1","37","0","660"
"21","21","retrieval","new_object","270","E68.jpg",".",".","37","1","1045"
"21","21","retrieval","new_object","271","E57.jpg",".",".","37","1","671"
"21","21","retrieval","old_object","272","H54.jpg",".","3","36","1","648"
"21","21","retrieval","old_object","273","H50.jpg",".","3","37","0","536"
"21","21","retrieval","old_object","274","G45.jpg",".","1","37","0","443"
"21","21","retrieval","new_object","275","F30.jpg",".",".","37","1","756"
"21","21","retrieval","new_object","276","F31.jpg",".",".","37","1","614"
"21","21","retrieval","old_object","277","G47.jpg",".","1","37","0","567"
"21","21","retrieval","old_object","278","H15.jpg",".","3","37","0","665"
"21","21","retrieval","new_object","279","F46.jpg",".",".","36","0","1162"
"21","21","retrieval","new_object","280","F18.jpg",".",".","37","1","507"
"21","21","retrieval","old_object","281","G76.jpg",".","1","37","0","1237"
"21","21","retrieval","new_object","282","E3.jpg",".",".","37","1","702"
"21","21","retrieval","new_object","283","F47.jpg",".",".","37","1","1112"
"21","21","retrieval","old_object","284","H2.jpg",".","3","37","0","561"
"21","21","retrieval","old_object","285","H9.jpg",".","3","37","0","683"
"21","21","retrieval","old_object","286","G25.jpg",".","1","37","0","619"
"21","21","retrieval","new_object","287","F15.jpg",".",".","37","1","684"
"21","21","retrieval","new_object","288","E0.jpg",".",".","37","1","1239"
"21","21","retrieval","old_object","289","G67.jpg",".","1","37","0","816"
"21","21","retrieval","old_object","290","H39.jpg",".","3","37","0","1138"
"21","21","retrieval","new_object","291","E14.jpg",".",".","37","1","1010"
"21","21","retrieval","old_object","292","H7.jpg",".","3","36","1","1252"
"21","21","retrieval","new_object","293","F64.jpg",".",".","37","1","629"
"21","21","retrieval","new_object","294","F13.jpg",".",".","37","1","750"
"21","21","retrieval","old_object","295","G9.jpg",".","1","37","0","545"
"21","21","retrieval","new_object","296","F50.jpg",".",".","37","1","609"
"21","21","retrieval","new_object","297","E1.jpg",".",".","37","1","611"
"21","21","retrieval","old_object","298","G29.jpg",".","1","37","0","636"
"21","21","retrieval","new_object","299","F48.jpg",".",".","37","1","669"
"21","21","retrieval","old_object","300","H72.jpg",".","3","37","0","511"
"21","21","retrieval","old_object","301","H48.jpg",".","3","37","0","784"
"21","21","retrieval","new_object","302","E9.jpg",".",".","37","1","690"
"21","21","retrieval","old_object","303","G1.jpg",".","1","37","0","563"
"21","21","retrieval","new_object","304","E7.jpg",".",".","37","1","1157"
"21","21","retrieval","new_object","305","F34.jpg",".",".","37","1","582"
"21","21","retrieval","new_object","306","E64.jpg",".",".","37","1","743"
"21","21","retrieval","new_object","307","F29.jpg",".",".","37","1","777"
"21","21","retrieval","old_object","308","G8.jpg",".","1","37","0","818"
"21","21","retrieval","old_object","309","H10.jpg",".","3","37","0","684"
"21","21","retrieval","old_object","310","G73.jpg",".","1","37","0","1061"
"21","21","retrieval","old_object","311","G59.jpg",".","1","36","1","1199"
"21","21","retrieval","new_object","312","E76.jpg",".",".","37","1","776"
"21","21","retrieval","old_object","313","G64.jpg",".","1","37","0","1114"
"21","21","retrieval","old_object","314","G34.jpg",".","1","37","0","851"
"21","21","retrieval","new_object","315","E19.jpg",".",".","37","1","1627"
"21","21","retrieval","old_object","316","G40.jpg",".","1","37","0","581"
"21","21","retrieval","old_object","317","H26.jpg",".","3","36","1","903"
"21","21","retrieval","old_object","318","G70.jpg",".","1","36","1","1377"
"21","21","retrieval","old_object","319","G71.jpg",".","1","37","0","984"
"21","21","retrieval","old_object","320","H45.jpg",".","3","36","1","776"
"21","21","retrieval","new_object","321","F1.jpg",".",".","37","1","1243"
"21","21","retrieval","new_object","322","F43.jpg",".",".","37","1","692"
"21","21","retrieval","old_object","323","G75.jpg",".","1","36","1","860"
"21","21","retrieval","new_object","324","F57.jpg",".",".","37","1","847"
"21","21","retrieval","new_object","325","E75.jpg",".",".","36","0","783"
"21","21","demographics_block","gender","1",".",".",".","male","1","14098"
"21","21","demographics_block","age","1",".",".",".","29","1","14098"
"21","21","demographics_block","education","1",".",".",".","14","1","14098"
"21","21","demographics_block","left_right_handed","2",".",".",".","Right","1","11995"
"21","21","demographics_block","raceoption1","2",".",".",".","","1","11995"
"21","21","demographics_block","raceoption2","2",".",".",".","","1","11995"
"21","21","demographics_block","raceoption3","2",".",".",".","","1","11995"
"21","21","demographics_block","raceoption4","2",".",".",".","","1","11995"
"21","21","demographics_block","raceoption5","2",".",".",".","","1","11995"
"21","21","demographics_block","raceoption6","2",".",".",".","5","1","11995"
"21","21","demographics_block","raceoption7","2",".",".",".","","1","11995"
"21","21","demographics_block","raceoption8","2",".",".",".","","1","11995"
"21","21","demographics_block","raceoption9","2",".",".",".","","1","11995"
"21","21","demographics_block","raceother","2",".",".",".","","1","11995"
"21","21","demographics_block","raceother","2",".",".",".","","1","11995"
"21","21","demographics_block","english_language","2",".",".",".","Yes","1","11995"
"21","21","demographics_block","other","2",".",".",".","","1","11995"
"21","21","demographics_block","eyesight","3",".",".",".","Yes","1","25902"
"21","21","demographics_block","colorblind","3",".",".",".","No","1","25902"
