"group","subject","blockcode","trialcode","trialnum","stimulus","encoding_condition","old_object_condition","response","correct","latency"
"50","50","encoding","encoding","1","Lollipop_Grape.jpg","1",".","37","0","871"
"50","50","encoding","encoding","2","Generator.jpg","3",".","37","0","643"
"50","50","encoding","encoding","3","Fortress.jpg","1",".","0","0","997"
"50","50","encoding","encoding","4","MonaLisa.jpg","1",".","37","0","809"
"50","50","encoding","encoding","5","AmpMeter.jpg","3",".","37","0","579"
"50","50","encoding","encoding","6","AmpMeter.jpg","3",".","37","0","599"
"50","50","encoding","encoding","7","Ashtray_Empty.jpg","3",".","37","0","521"
"50","50","encoding","encoding","8","Glove_Rubber.jpg","3",".","37","0","507"
"50","50","encoding","encoding","9","Pipe_Drain.jpg","1",".","37","0","549"
"50","50","encoding","encoding","10","MonkeyPuppet.jpg","3",".","37","0","497"
"50","50","encoding","encoding","11","NintendoWii.jpg","3",".","37","0","403"
"50","50","encoding","encoding","12","Tickets_Blank.jpg","3",".","37","0","521"
"50","50","encoding","encoding","13","Pineapple.jpg","3",".","36","0","555"
"50","50","encoding","encoding","14","Beater_Electric.jpg","3",".","37","0","495"
"50","50","encoding","encoding","15","Balalaika.jpg","3",".","37","0","441"
"50","50","encoding","encoding","16","Hourglass.jpg","3",".","37","0","411"
"50","50","encoding","encoding","17","Ashtray_Empty.jpg","3",".","37","0","421"
"50","50","encoding","encoding","18","Chest_Toys.jpg","3",".","37","0","457"
"50","50","encoding","encoding","19","Toy_Witch.jpg","3",".","37","0","411"
"50","50","encoding","encoding","20","BicycleBrake.jpg","1",".","37","0","421"
"50","50","encoding","encoding","21","Mattress.jpg","3",".","37","0","383"
"50","50","encoding","encoding","22","IceCrusher.jpg","3",".","37","0","489"
"50","50","encoding","encoding","23","Toy_Witch.jpg","3",".","37","0","454"
"50","50","encoding","encoding","24","Mat_Door.jpg","3",".","37","0","321"
"50","50","encoding","encoding","25","Bird_Cardinal.jpg","3",".","37","0","563"
"50","50","encoding","encoding","26","Toy_Moose.jpg","3",".","37","0","565"
"50","50","encoding","encoding","27","DogTreat.jpg","1",".","37","0","495"
"50","50","encoding","encoding","28","Bottle_Blue.jpg","3",".","37","0","377"
"50","50","encoding","encoding","29","Guitarcase.jpg","3",".","37","0","430"
"50","50","encoding","encoding","30","Paratrooper.jpg","3",".","37","0","507"
"50","50","encoding","encoding","31","Golf_Bag.jpg","1",".","37","0","453"
"50","50","encoding","encoding","32","GPS.jpg","3",".","37","0","711"
"50","50","encoding","encoding","33","BottleOpener.jpg","1",".","37","0","483"
"50","50","encoding","encoding","34","DrinkingFountain.jpg","1",".","37","0","453"
"50","50","encoding","encoding","35","Mango.jpg","1",".","37","0","456"
"50","50","encoding","encoding","36","WireStripper.jpg","1",".","37","0","541"
"50","50","encoding","encoding","37","Bowl_Chinese.jpg","3",".","37","0","423"
"50","50","encoding","encoding","38","BicyclePedal.jpg","3",".","37","0","465"
"50","50","encoding","encoding","39","Oyster.jpg","3",".","37","0","405"
"50","50","encoding","encoding","40","DoorBell.jpg","1",".","37","0","473"
"50","50","encoding","encoding","41","Clip_Paper.jpg","3",".","37","0","436"
"50","50","encoding","encoding","42","RemoteControl.jpg","3",".","37","0","423"
"50","50","encoding","encoding","43","Generator.jpg","3",".","37","0","409"
"50","50","encoding","encoding","44","Toy_GasPump.jpg","3",".","37","0","435"
"50","50","encoding","encoding","45","Chair_BeanBag.jpg","3",".","37","0","624"
"50","50","encoding","encoding","46","Chair_BeanBag.jpg","3",".","37","0","499"
"50","50","encoding","encoding","47","Keg.jpg","1",".","37","0","439"
"50","50","encoding","encoding","48","Bowl_Chinese.jpg","3",".","37","0","460"
"50","50","encoding","encoding","49","Cherry.jpg","3",".","36","0","641"
"50","50","encoding","encoding","50","Bullet.jpg","3",".","37","0","619"
"50","50","encoding","encoding","51","Guitar_Acoustic.jpg","1",".","37","0","429"
"50","50","encoding","encoding","52","MouthGuard.jpg","3",".","37","0","367"
"50","50","encoding","encoding","53","MixingGlass.jpg","1",".","37","0","393"
"50","50","encoding","encoding","54","Megaphone.jpg","3",".","37","0","412"
"50","50","encoding","encoding","55","WindowBlinds.jpg","3",".","37","0","439"
"50","50","encoding","encoding","56","Steeple.jpg","3",".","37","0","555"
"50","50","encoding","encoding","57","Tripod.jpg","1",".","37","0","653"
"50","50","encoding","encoding","58","Bellows.jpg","3",".","37","0","671"
"50","50","encoding","encoding","59","Clip_Paper.jpg","3",".","37","0","826"
"50","50","encoding","encoding","60","Colander.jpg","1",".","37","0","404"
"50","50","encoding","encoding","61","Bird_Cardinal.jpg","3",".","36","0","585"
"50","50","encoding","encoding","62","Nyala.jpg","3",".","36","0","787"
"50","50","encoding","encoding","63","Hippopotamus.jpg","3",".","36","0","653"
"50","50","encoding","encoding","64","Teabag.jpg","3",".","37","0","527"
"50","50","encoding","encoding","65","PotatoMasher_Zigzag.jpg","3",".","37","0","506"
"50","50","encoding","encoding","67","LeatherPuncherTool.jpg","3",".","37","0","897"
"50","50","encoding","encoding","68","AmpMeter.jpg","3",".","37","0","547"
"50","50","encoding","encoding","69","Toys_Lego.jpg","1",".","37","0","445"
"50","50","encoding","encoding","70","Shampoo.jpg","3",".","37","0","463"
"50","50","encoding","encoding","71","BadgeSpecialAgent.jpg","3",".","37","0","458"
"50","50","encoding","encoding","72","TartStrawberry.jpg","3",".","36","0","645"
"50","50","encoding","encoding","73","Trumpet.jpg","3",".","37","0","967"
"50","50","encoding","encoding","74","DryRack_Dishes.jpg","3",".","37","0","465"
"50","50","encoding","encoding","75","Cake_Wedding.jpg","1",".","37","0","435"
"50","50","encoding","encoding","76","Trophy.jpg","3",".","37","0","510"
"50","50","encoding","encoding","77","MouthGuard.jpg","3",".","37","0","736"
"50","50","encoding","encoding","78","HairDryer.jpg","1",".","37","0","475"
"50","50","encoding","encoding","79","Lantern_TeaBox.jpg","1",".","37","0","589"
"50","50","encoding","encoding","80","Table_Poker.jpg","1",".","37","0","687"
"50","50","encoding","encoding","81","Exercise_Stretch.jpg","1",".","0","0","997"
"50","50","encoding","encoding","82","FireExtinguisher.jpg","1",".","37","0","582"
"50","50","encoding","encoding","83","Toy_GasPump.jpg","3",".","37","0","474"
"50","50","encoding","encoding","84","WashRack.jpg","1",".","37","0","430"
"50","50","encoding","encoding","85","Hammer_Reflex.jpg","1",".","37","0","433"
"50","50","encoding","encoding","86","NeedlesAcupuncture.jpg","3",".","37","0","451"
"50","50","encoding","encoding","87","Toy_StackingRing.jpg","3",".","37","0","423"
"50","50","encoding","encoding","88","Tortilla.jpg","3",".","37","0","377"
"50","50","encoding","encoding","89","Toy_Moose.jpg","3",".","37","0","652"
"50","50","encoding","encoding","90","Cantaloupe.jpg","1",".","37","0","335"
"50","50","encoding","encoding","91","Cherry.jpg","3",".","36","0","561"
"50","50","encoding","encoding","92","DryRack_Dishes.jpg","3",".","37","0","811"
"50","50","encoding","encoding","93","Cassette_Audio.jpg","3",".","37","0","463"
"50","50","encoding","encoding","94","Car_Sedan.jpg","3",".","37","0","506"
"50","50","encoding","encoding","95","Toy_BlocksPlastic Colourful.jpg","1",".","37","0","747"
"50","50","encoding","encoding","96","Glove_Rubber.jpg","3",".","37","0","831"
"50","50","encoding","encoding","97","Jar_JellyBeans.jpg","3",".","0","0","997"
"50","50","encoding","encoding","98","DoorKnob.jpg","3",".","37","0","685"
"50","50","encoding","encoding","99","Cup_Styrofoam.jpg","3",".","37","0","433"
"50","50","encoding","encoding","100","Mug_Beer.jpg","1",".","37","0","387"
"50","50","encoding","encoding","101","MouthGuard.jpg","3",".","37","0","766"
"50","50","encoding","encoding","102","Bullet.jpg","3",".","0","0","997"
"50","50","encoding","encoding","103","Toy_RockingHorseBlack.jpg","1",".","37","0","549"
"50","50","encoding","encoding","104","Goose_Canadian.jpg","3",".","36","0","751"
"50","50","encoding","encoding","105","BadgeSpecialAgent.jpg","3",".","37","0","513"
"50","50","encoding","encoding","106","Spoon_Wooden.jpg","3",".","37","0","355"
"50","50","encoding","encoding","107","Beater_Electric.jpg","3",".","37","0","429"
"50","50","encoding","encoding","108","Autocreeper.jpg","1",".","37","0","433"
"50","50","encoding","encoding","109","Lock_Combination.jpg","1",".","37","0","451"
"50","50","encoding","encoding","110","Box_Floral.jpg","3",".","37","0","565"
"50","50","encoding","encoding","111","Stove_Camping.jpg","3",".","37","0","512"
"50","50","encoding","encoding","112","Stove_Camping.jpg","3",".","37","0","449"
"50","50","encoding","encoding","113","Sign_Parking.jpg","3",".","37","0","524"
"50","50","encoding","encoding","114","Thermostat_Digital.jpg","1",".","37","0","433"
"50","50","encoding","encoding","115","Toy_Shapesorter.jpg","1",".","37","0","475"
"50","50","encoding","encoding","116","Chair_MedicalToilet.jpg","1",".","37","0","992"
"50","50","encoding","encoding","117","FlashlightHeadBand.jpg","1",".","37","0","489"
"50","50","encoding","encoding","118","Phone_Wireless.jpg","3",".","37","0","355"
"50","50","encoding","encoding","119","TeethMould.jpg","3",".","37","0","406"
"50","50","encoding","encoding","120","PaintBrushAndPallette.jpg","3",".","37","0","387"
"50","50","encoding","encoding","121","Trophy.jpg","3",".","37","0","469"
"50","50","encoding","encoding","122","Mitt_Oven.jpg","1",".","37","0","288"
"50","50","encoding","encoding","123","Almond.jpg","1",".","37","0","219"
"50","50","encoding","encoding","124","Speaker_OnStand.jpg","3",".","37","0","429"
"50","50","encoding","encoding","125","Goose_Canadian.jpg","3",".","36","0","551"
"50","50","encoding","encoding","126","NeedlesAcupuncture.jpg","3",".","37","0","579"
"50","50","encoding","encoding","127","Bird_Cardinal.jpg","3",".","36","0","605"
"50","50","encoding","encoding","128","Knife_Hunting.jpg","3",".","37","0","695"
"50","50","encoding","encoding","129","Bowl_Chinese.jpg","3",".","37","0","377"
"50","50","encoding","encoding","130","LeatherPuncherTool.jpg","3",".","37","0","509"
"50","50","encoding","encoding","131","Bottle_Blue.jpg","3",".","37","0","383"
"50","50","encoding","encoding","133","Sign_Wetfloor.jpg","3",".","37","0","823"
"50","50","encoding","encoding","134","Drink_Green.jpg","3",".","37","0","595"
"50","50","encoding","encoding","135","Chest.jpg","1",".","37","0","429"
"50","50","encoding","encoding","136","Jar_JellyBeans.jpg","3",".","37","0","537"
"50","50","encoding","encoding","137","CookieCutter_Bell.jpg","1",".","37","0","435"
"50","50","encoding","encoding","138","Skates.jpg","3",".","37","0","430"
"50","50","encoding","encoding","139","LeatherPuncherTool.jpg","3",".","37","0","474"
"50","50","encoding","encoding","140","Tickets_Blank.jpg","3",".","37","0","381"
"50","50","encoding","encoding","141","Hourglass.jpg","3",".","37","0","417"
"50","50","encoding","encoding","142","Mat_Door.jpg","3",".","37","0","395"
"50","50","encoding","encoding","143","Drink_Green.jpg","3",".","37","0","485"
"50","50","encoding","encoding","144","Trumpet.jpg","3",".","37","0","464"
"50","50","encoding","encoding","145","NintendoWii.jpg","3",".","37","0","548"
"50","50","encoding","encoding","146","Blanket.jpg","1",".","37","0","527"
"50","50","encoding","encoding","147","Flute_Wooden.jpg","1",".","37","0","633"
"50","50","encoding","encoding","148","Pants_Jeans.jpg","1",".","37","0","651"
"50","50","encoding","encoding","149","Desk_School.jpg","3",".","37","0","645"
"50","50","encoding","encoding","150","Pitcher.jpg","1",".","37","0","440"
"50","50","encoding","encoding","151","GPS.jpg","3",".","37","0","403"
"50","50","encoding","encoding","152","Cassette_Audio.jpg","3",".","37","0","405"
"50","50","encoding","encoding","153","Mop.jpg","1",".","37","0","591"
"50","50","encoding","encoding","154","PuppetTheatre_WhiteGold.jpg","3",".","37","0","561"
"50","50","encoding","encoding","155","Cup_Styrofoam.jpg","3",".","37","0","412"
"50","50","encoding","encoding","156","BusStop.jpg","1",".","37","0","398"
"50","50","encoding","encoding","157","Candy_Heart.jpg","3",".","37","0","537"
"50","50","encoding","encoding","158","Fruit_Cactus.jpg","1",".","37","0","355"
"50","50","encoding","encoding","159","Bottle_Wine.jpg","1",".","37","0","325"
"50","50","encoding","encoding","160","Knee.jpg","3",".","37","0","359"
"50","50","encoding","encoding","161","Hippopotamus.jpg","3",".","36","0","546"
"50","50","encoding","encoding","162","Phone_Wireless.jpg","3",".","37","0","756"
"50","50","encoding","encoding","163","Bottle_Blue.jpg","3",".","37","0","608"
"50","50","encoding","encoding","164","Shampoo.jpg","3",".","37","0","721"
"50","50","encoding","encoding","165","PaintRollTray.jpg","3",".","37","0","819"
"50","50","encoding","encoding","166","Hook_Fish.jpg","3",".","37","0","845"
"50","50","encoding","encoding","167","Paratrooper.jpg","3",".","0","0","997"
"50","50","encoding","encoding","168","Skates.jpg","3",".","37","0","500"
"50","50","encoding","encoding","169","Car_Sedan.jpg","3",".","37","0","639"
"50","50","encoding","encoding","170","Mattress.jpg","3",".","37","0","465"
"50","50","encoding","encoding","171","PassionFruit.jpg","3",".","37","0","387"
"50","50","encoding","encoding","172","DoorKnob.jpg","3",".","37","0","456"
"50","50","encoding","encoding","173","RemoteControl.jpg","3",".","37","0","676"
"50","50","encoding","encoding","174","Dress_Party.jpg","1",".","37","0","736"
"50","50","encoding","encoding","175","Bullet.jpg","3",".","37","0","522"
"50","50","encoding","encoding","176","PotatoMasher_Zigzag.jpg","3",".","37","0","493"
"50","50","encoding","encoding","177","Pineapple.jpg","3",".","36","0","663"
"50","50","encoding","encoding","178","Chest_Toys.jpg","3",".","37","0","627"
"50","50","encoding","encoding","179","Flamingo_Cartoon.jpg","1",".","37","0","712"
"50","50","encoding","encoding","180","PaintRollTray.jpg","3",".","37","0","610"
"50","50","encoding","encoding","181","Steeple.jpg","3",".","37","0","940"
"50","50","encoding","encoding","182","Hippopotamus.jpg","3",".","0","0","997"
"50","50","encoding","encoding","183","BicyclePedal.jpg","3",".","37","0","403"
"50","50","encoding","encoding","184","Hook_Fish.jpg","3",".","37","0","751"
"50","50","encoding","encoding","185","Oyster.jpg","3",".","0","0","997"
"50","50","encoding","encoding","186","Lilypad.jpg","3",".","36","0","820"
"50","50","encoding","encoding","187","JukeboxAntique.jpg","3",".","37","0","584"
"50","50","encoding","encoding","188","Fuse.jpg","3",".","37","0","491"
"50","50","encoding","encoding","189","Phone_Wireless.jpg","3",".","37","0","493"
"50","50","encoding","encoding","190","CandyDispenser.jpg","1",".","37","0","401"
"50","50","encoding","encoding","191","Speaker_OnStand.jpg","3",".","37","0","459"
"50","50","encoding","encoding","192","Knee.jpg","3",".","36","0","542"
"50","50","encoding","encoding","193","Tickets_Blank.jpg","3",".","37","0","562"
"50","50","encoding","encoding","194","Apple_RedAndGreen.jpg","1",".","36","0","621"
"50","50","encoding","encoding","195","Trophy.jpg","3",".","0","0","997"
"50","50","encoding","encoding","196","DoorKnob.jpg","3",".","37","0","449"
"50","50","encoding","encoding","197","Desk_School.jpg","3",".","37","0","692"
"50","50","encoding","encoding","199","Tortilla.jpg","3",".","36","0","820"
"50","50","encoding","encoding","200","NailPolish.jpg","3",".","37","0","662"
"50","50","encoding","encoding","201","NintendoWii.jpg","3",".","37","0","465"
"50","50","encoding","encoding","202","TeethMould.jpg","3",".","37","0","723"
"50","50","encoding","encoding","203","Spoons_MeasuringDetached.jpg","1",".","37","0","527"
"50","50","encoding","encoding","204","Sign_Wetfloor.jpg","3",".","37","0","441"
"50","50","encoding","encoding","205","Paratrooper.jpg","3",".","36","0","963"
"50","50","encoding","encoding","206","Box_Floral.jpg","3",".","37","0","840"
"50","50","encoding","encoding","207","TartStrawberry.jpg","3",".","37","0","691"
"50","50","encoding","encoding","208","PotatoMasher_Zigzag.jpg","3",".","37","0","469"
"50","50","encoding","encoding","209","JukeboxAntique.jpg","3",".","37","0","425"
"50","50","encoding","encoding","210","Hourglass.jpg","3",".","37","0","395"
"50","50","encoding","encoding","211","fries.jpg","1",".","37","0","864"
"50","50","encoding","encoding","212","ShoulderPads.jpg","1",".","37","0","521"
"50","50","encoding","encoding","213","Hook_Fish.jpg","3",".","37","0","717"
"50","50","encoding","encoding","214","Nyala.jpg","3",".","36","0","847"
"50","50","encoding","encoding","215","Sign_Parking.jpg","3",".","37","0","523"
"50","50","encoding","encoding","216","Fish_Rockbass.jpg","1",".","36","0","653"
"50","50","encoding","encoding","217","Peppermill.jpg","1",".","37","0","592"
"50","50","encoding","encoding","218","Goose_Canadian.jpg","3",".","0","0","997"
"50","50","encoding","encoding","219","Shampoo.jpg","3",".","37","0","477"
"50","50","encoding","encoding","220","Skates.jpg","3",".","37","0","719"
"50","50","encoding","encoding","221","Toy_Moose.jpg","3",".","37","0","841"
"50","50","encoding","encoding","222","Mask_Happy.jpg","1",".","37","0","675"
"50","50","encoding","encoding","223","Bellows.jpg","3",".","37","0","821"
"50","50","encoding","encoding","224","Teabag.jpg","3",".","0","0","997"
"50","50","encoding","encoding","225","Cup_Styrofoam.jpg","3",".","37","0","539"
"50","50","encoding","encoding","226","PuppetTheatre_WhiteGold.jpg","3",".","37","0","453"
"50","50","encoding","encoding","227","Oyster.jpg","3",".","36","0","577"
"50","50","encoding","encoding","228","StringBean.jpg","3",".","36","0","851"
"50","50","encoding","encoding","229","Chest_Toys.jpg","3",".","37","0","661"
"50","50","encoding","encoding","230","Tortilla.jpg","3",".","36","0","537"
"50","50","encoding","encoding","231","Candy_Heart.jpg","3",".","0","0","997"
"50","50","encoding","encoding","232","Helmet_Construction.jpg","1",".","37","0","615"
"50","50","encoding","encoding","233","Wheelbarrow_Green.jpg","1",".","37","0","537"
"50","50","encoding","encoding","234","IceCrusher.jpg","3",".","37","0","525"
"50","50","encoding","encoding","235","Bellows.jpg","3",".","37","0","447"
"50","50","encoding","encoding","236","Generator.jpg","3",".","37","0","490"
"50","50","encoding","encoding","237","WindowBlinds.jpg","3",".","37","0","455"
"50","50","encoding","encoding","238","DentistOverheadLight.jpg","1",".","37","0","721"
"50","50","encoding","encoding","239","TartStrawberry.jpg","3",".","37","0","797"
"50","50","encoding","encoding","240","BicycleHandleGrip.jpg","1",".","37","0","585"
"50","50","encoding","encoding","241","Mat_Door.jpg","3",".","37","0","403"
"50","50","encoding","encoding","242","BicyclePedal.jpg","3",".","37","0","477"
"50","50","encoding","encoding","243","RemoteControl.jpg","3",".","37","0","667"
"50","50","encoding","encoding","244","StringBean.jpg","3",".","36","0","669"
"50","50","encoding","encoding","245","Box_Jewellery.jpg","1",".","37","0","687"
"50","50","encoding","encoding","246","Lilypad.jpg","3",".","36","0","659"
"50","50","encoding","encoding","247","IceCrusher.jpg","3",".","37","0","861"
"50","50","encoding","encoding","248","Mattress.jpg","3",".","37","0","439"
"50","50","encoding","encoding","249","Toy_Witch.jpg","3",".","37","0","531"
"50","50","encoding","encoding","250","Sign_Parking.jpg","3",".","37","0","461"
"50","50","encoding","encoding","251","Fuse.jpg","3",".","37","0","463"
"50","50","encoding","encoding","252","Stove_Camping.jpg","3",".","37","0","401"
"50","50","encoding","encoding","253","Fuse.jpg","3",".","37","0","347"
"50","50","encoding","encoding","254","Sushi.jpg","1",".","37","0","974"
"50","50","encoding","encoding","255","PassionFruit.jpg","3",".","36","0","521"
"50","50","encoding","encoding","256","Chair_BeanBag.jpg","3",".","36","0","627"
"50","50","encoding","encoding","257","WindowBlinds.jpg","3",".","37","0","549"
"50","50","encoding","encoding","258","Steeple.jpg","3",".","37","0","423"
"50","50","encoding","encoding","259","Light_Siren.jpg","1",".","37","0","329"
"50","50","encoding","encoding","260","Knife_Hunting.jpg","3",".","37","0","540"
"50","50","encoding","encoding","261","TinChristmas.jpg","1",".","37","0","439"
"50","50","encoding","encoding","262","GPS.jpg","3",".","37","0","449"
"50","50","encoding","encoding","263","Teabag.jpg","3",".","37","0","531"
"50","50","encoding","encoding","265","Desk_School.jpg","3",".","37","0","480"
"50","50","encoding","encoding","266","Shoes_DutchClogs.jpg","1",".","37","0","418"
"50","50","encoding","encoding","267","Lilypad.jpg","3",".","37","0","484"
"50","50","encoding","encoding","268","Toy_GasPump.jpg","3",".","37","0","641"
"50","50","encoding","encoding","269","Helmet_Soldier.jpg","1",".","37","0","524"
"50","50","encoding","encoding","270","Cassette_Audio.jpg","3",".","37","0","518"
"50","50","encoding","encoding","271","MonkeyPuppet.jpg","3",".","37","0","488"
"50","50","encoding","encoding","272","Balalaika.jpg","3",".","37","0","484"
"50","50","encoding","encoding","273","DryRack_Dishes.jpg","3",".","37","0","415"
"50","50","encoding","encoding","274","BadgeSpecialAgent.jpg","3",".","37","0","499"
"50","50","encoding","encoding","275","Toy_StackingRing.jpg","3",".","37","0","438"
"50","50","encoding","encoding","276","Jar_JellyBeans.jpg","3",".","37","0","592"
"50","50","encoding","encoding","277","NailPolish.jpg","3",".","37","0","442"
"50","50","encoding","encoding","278","TeethMould.jpg","3",".","37","0","830"
"50","50","encoding","encoding","279","Knife_Hunting.jpg","3",".","37","0","985"
"50","50","encoding","encoding","280","Sign_Wetfloor.jpg","3",".","37","0","837"
"50","50","encoding","encoding","281","Candy_Chocolate.jpg","1",".","37","0","648"
"50","50","encoding","encoding","282","Toy_StackingRing.jpg","3",".","37","0","602"
"50","50","encoding","encoding","283","Drink_Green.jpg","3",".","0","0","997"
"50","50","encoding","encoding","284","Spoon_Wooden.jpg","3",".","0","0","997"
"50","50","encoding","encoding","285","PaintBrushAndPallette.jpg","3",".","37","0","448"
"50","50","encoding","encoding","286","PaintBrushAndPallette.jpg","3",".","37","0","667"
"50","50","encoding","encoding","287","Guitarcase.jpg","3",".","37","0","480"
"50","50","encoding","encoding","288","IceCream_Chocolate.jpg","1",".","0","0","997"
"50","50","encoding","encoding","289","Trumpet.jpg","3",".","37","0","524"
"50","50","encoding","encoding","290","GasBurner.jpg","1",".","37","0","464"
"50","50","encoding","encoding","291","Megaphone.jpg","3",".","37","0","442"
"50","50","encoding","encoding","292","Speaker_OnStand.jpg","3",".","37","0","421"
"50","50","encoding","encoding","293","PaintRollTray.jpg","3",".","37","0","440"
"50","50","encoding","encoding","294","Car_Sedan.jpg","3",".","37","0","618"
"50","50","encoding","encoding","295","Candy_Heart.jpg","3",".","37","0","572"
"50","50","encoding","encoding","296","Megaphone.jpg","3",".","37","0","472"
"50","50","encoding","encoding","297","NeedlesAcupuncture.jpg","3",".","37","0","499"
"50","50","encoding","encoding","298","Ashtray_Empty.jpg","3",".","37","0","413"
"50","50","encoding","encoding","299","Notebook.jpg","1",".","37","0","466"
"50","50","encoding","encoding","300","Clip_Paper.jpg","3",".","37","0","516"
"50","50","encoding","encoding","301","Guitarcase.jpg","3",".","37","0","446"
"50","50","encoding","encoding","302","Saw.jpg","1",".","37","0","368"
"50","50","encoding","encoding","303","SculptureMetalFish.jpg","1",".","37","0","450"
"50","50","encoding","encoding","304","Candle_Blue.jpg","1",".","37","0","686"
"50","50","encoding","encoding","305","Glove_Rubber.jpg","3",".","37","0","832"
"50","50","encoding","encoding","306","Nyala.jpg","3",".","36","0","820"
"50","50","encoding","encoding","307","ButterDish.jpg","1",".","0","0","997"
"50","50","encoding","encoding","308","NailPolish.jpg","3",".","37","0","506"
"50","50","encoding","encoding","309","SmokeDetector.jpg","1",".","37","0","382"
"50","50","encoding","encoding","310","PassionFruit.jpg","3",".","37","0","329"
"50","50","encoding","encoding","311","Leaf_Clover.jpg","1",".","36","0","652"
"50","50","encoding","encoding","312","StringBean.jpg","3",".","36","0","510"
"50","50","encoding","encoding","313","Balalaika.jpg","3",".","37","0","464"
"50","50","encoding","encoding","314","MonkeyPuppet.jpg","3",".","37","0","498"
"50","50","encoding","encoding","315","Beater_Electric.jpg","3",".","37","0","525"
"50","50","encoding","encoding","316","Knee.jpg","3",".","36","0","583"
"50","50","encoding","encoding","317","Box_Floral.jpg","3",".","37","0","434"
"50","50","encoding","encoding","318","Bathtub.jpg","1",".","37","0","444"
"50","50","encoding","encoding","319","Pineapple.jpg","3",".","36","0","542"
"50","50","encoding","encoding","320","Spoon_Wooden.jpg","3",".","36","0","336"
"50","50","encoding","encoding","321","CameoPortrait.jpg","1",".","37","0","572"
"50","50","encoding","encoding","322","JukeboxAntique.jpg","3",".","37","0","456"
"50","50","encoding","encoding","323","Cherry.jpg","3",".","36","0","506"
"50","50","encoding","encoding","324","PuppetTheatre_WhiteGold.jpg","3",".","36","0","422"
"50","50","encoding","encoding","325","Lollipop_Grape.jpg","",".","37","0","656"
"50","50","retrieval","old_object","1","MouthGuard.jpg",".","3","36","1","794"
"50","50","retrieval","old_object","2","Mango.jpg",".","1","37","0","811"
"50","50","retrieval","new_object","3","Ball_Disco.jpg",".",".","37","1","902"
"50","50","retrieval","old_object","4","Toy_Shapesorter.jpg",".","1","37","0","1426"
"50","50","retrieval","new_object","5","Hat_Baseball.jpg",".",".","37","1","843"
"50","50","retrieval","old_object","6","PaintRollTray.jpg",".","3","36","1","925"
"50","50","retrieval","old_object","7","Jar_JellyBeans.jpg",".","3","36","1","720"
"50","50","retrieval","old_object","8","Candy_Heart.jpg",".","3","36","1","643"
"50","50","retrieval","new_object","9","Arch.jpg",".",".","37","1","615"
"50","50","retrieval","new_object","10","Glass_Martini.jpg",".",".","37","1","722"
"50","50","retrieval","new_object","11","ShoppingCart.jpg",".",".","37","1","572"
"50","50","retrieval","old_object","12","Fish_Rockbass.jpg",".","1","36","1","941"
"50","50","retrieval","new_object","13","Socks_Winter.jpg",".",".","37","1","783"
"50","50","retrieval","old_object","14","SmokeDetector.jpg",".","1","37","0","1130"
"50","50","retrieval","new_object","15","Pipe.jpg",".",".","37","1","899"
"50","50","retrieval","new_object","16","Comb.jpg",".",".","37","1","461"
"50","50","retrieval","new_object","17","Boots_KneeHigh.jpg",".",".","37","1","607"
"50","50","retrieval","old_object","18","Bottle_Blue.jpg",".","3","37","0","561"
"50","50","retrieval","old_object","19","Keg.jpg",".","1","37","0","747"
"50","50","retrieval","old_object","20","Car_Sedan.jpg",".","3","36","1","669"
"50","50","retrieval","new_object","21","Wheel_Steering.jpg",".",".","37","1","584"
"50","50","retrieval","new_object","22","Kite_Rainbow.jpg",".",".","37","1","1513"
"50","50","retrieval","old_object","23","Saw.jpg",".","1","36","1","835"
"50","50","retrieval","old_object","24","Chair_BeanBag.jpg",".","3","37","0","1277"
"50","50","retrieval","old_object","25","Beater_Electric.jpg",".","3","36","1","727"
"50","50","retrieval","new_object","26","CoffeeGrinder.jpg",".",".","37","1","825"
"50","50","retrieval","new_object","27","Sink_Bathroom.jpg",".",".","37","1","915"
"50","50","retrieval","new_object","28","Bomb.jpg",".",".","37","1","1069"
"50","50","retrieval","old_object","29","Dress_Party.jpg",".","1","37","0","1151"
"50","50","retrieval","new_object","30","ReindeerHeadband.jpg",".",".","37","1","1129"
"50","50","retrieval","old_object","31","DentistOverheadLight.jpg",".","1","37","0","755"
"50","50","retrieval","new_object","32","BicycleGear.jpg",".",".","37","1","621"
"50","50","retrieval","new_object","33","Can_OilSpout.jpg",".",".","37","1","927"
"50","50","retrieval","new_object","34","House_Rural.jpg",".",".","37","1","721"
"50","50","retrieval","old_object","35","ButterDish.jpg",".","1","37","0","564"
"50","50","retrieval","new_object","36","BicycleOdometer.jpg",".",".","37","1","671"
"50","50","retrieval","new_object","37","Hammer.jpg",".",".","37","1","665"
"50","50","retrieval","old_object","38","PaintBrushAndPallette.jpg",".","3","36","1","1274"
"50","50","retrieval","old_object","39","Teabag.jpg",".","3","36","1","1021"
"50","50","retrieval","old_object","40","Candy_Chocolate.jpg",".","1","37","0","799"
"50","50","retrieval","new_object","41","Outhouse.jpg",".",".","36","0","1274"
"50","50","retrieval","new_object","42","Waffle.jpg",".",".","37","1","1220"
"50","50","retrieval","old_object","43","BusStop.jpg",".","1","37","0","1143"
"50","50","retrieval","new_object","44","Fencing_HelmetSwords.jpg",".",".","37","1","992"
"50","50","retrieval","old_object","45","TinChristmas.jpg",".","1","36","1","922"
"50","50","retrieval","new_object","46","SaxophoneSoprano.jpg",".",".","37","1","829"
"50","50","retrieval","old_object","47","Autocreeper.jpg",".","1","37","0","927"
"50","50","retrieval","new_object","48","Statue_SouthAmerican.jpg",".",".","37","1","584"
"50","50","retrieval","old_object","49","Pants_Jeans.jpg",".","1","37","0","898"
"50","50","retrieval","new_object","50","PedestalGreek.jpg",".",".","37","1","981"
"50","50","retrieval","old_object","51","GPS.jpg",".","3","37","0","830"
"50","50","retrieval","old_object","52","Mitt_Oven.jpg",".","1","37","0","1200"
"50","50","retrieval","new_object","53","Flower_Hibiscus.jpg",".",".","37","1","1130"
"50","50","retrieval","old_object","54","Toy_Moose.jpg",".","3","36","1","701"
"50","50","retrieval","old_object","55","Stove_Camping.jpg",".","3","37","0","670"
"50","50","retrieval","old_object","56","CookieCutter_Bell.jpg",".","1","37","0","672"
"50","50","retrieval","new_object","57","Flower_Orchid.jpg",".",".","37","1","803"
"50","50","retrieval","new_object","58","Knife_Butter.jpg",".",".","37","1","822"
"50","50","retrieval","new_object","59","Toy_BearBlackPlastic.jpg",".",".","37","1","728"
"50","50","retrieval","old_object","60","DoorBell.jpg",".","1","36","1","842"
"50","50","retrieval","old_object","61","Trophy.jpg",".","3","37","0","644"
"50","50","retrieval","old_object","62","SculptureMetalFish.jpg",".","1","37","0","766"
"50","50","retrieval","new_object","63","Switch_LightWhite.jpg",".",".","37","1","640"
"50","50","retrieval","new_object","64","ContactLens.jpg",".",".","36","0","570"
"50","50","retrieval","old_object","65","Almond.jpg",".","1","37","0","1028"
"50","50","retrieval","new_object","67","SewingMachine.jpg",".",".","36","0","1122"
"50","50","retrieval","new_object","68","FlipFlop_PairBlue.jpg",".",".","37","1","652"
"50","50","retrieval","old_object","69","MonkeyPuppet.jpg",".","3","36","1","799"
"50","50","retrieval","old_object","70","FireExtinguisher.jpg",".","1","37","0","1144"
"50","50","retrieval","old_object","71","LeatherPuncherTool.jpg",".","3","36","1","922"
"50","50","retrieval","new_object","72","Bottle_BubbleBlower.jpg",".",".","37","1","853"
"50","50","retrieval","new_object","73","Icepick.jpg",".",".","37","1","647"
"50","50","retrieval","old_object","74","Sign_Parking.jpg",".","3","36","1","632"
"50","50","retrieval","old_object","75","Bowl_Chinese.jpg",".","3","37","0","937"
"50","50","retrieval","old_object","76","DoorKnob.jpg",".","3","36","1","1474"
"50","50","retrieval","old_object","77","Pipe_Drain.jpg",".","1","37","0","1860"
"50","50","retrieval","new_object","78","Broom_Long.jpg",".",".","37","1","1246"
"50","50","retrieval","old_object","79","HairDryer.jpg",".","1","37","0","585"
"50","50","retrieval","old_object","80","Chest.jpg",".","1","37","0","730"
"50","50","retrieval","old_object","81","Table_Poker.jpg",".","1","37","0","604"
"50","50","retrieval","old_object","82","WindowBlinds.jpg",".","3","37","0","694"
"50","50","retrieval","new_object","83","Pot_Cooking.jpg",".",".","37","1","888"
"50","50","retrieval","new_object","84","ChessPiece_Knight.jpg",".",".","37","1","698"
"50","50","retrieval","new_object","85","OnionRed.jpg",".",".","37","1","756"
"50","50","retrieval","old_object","86","Toy_Witch.jpg",".","3","36","1","846"
"50","50","retrieval","old_object","87","Pineapple.jpg",".","3","36","1","736"
"50","50","retrieval","new_object","88","Ball_8.jpg",".",".","37","1","802"
"50","50","retrieval","old_object","89","Thermostat_Digital.jpg",".","1","37","0","868"
"50","50","retrieval","old_object","90","BottleOpener.jpg",".","1","37","0","1357"
"50","50","retrieval","old_object","91","CandyDispenser.jpg",".","1","36","1","968"
"50","50","retrieval","old_object","92","Bird_Cardinal.jpg",".","3","0","0","1997"
"50","50","retrieval","new_object","93","Currants.jpg",".",".","37","1","1261"
"50","50","retrieval","old_object","94","Phone_Wireless.jpg",".","3","37","0","880"
"50","50","retrieval","old_object","95","Flamingo_Cartoon.jpg",".","1","36","1","866"
"50","50","retrieval","new_object","96","KeyHook_Occupied.jpg",".",".","37","1","1045"
"50","50","retrieval","old_object","97","Cassette_Audio.jpg",".","3","36","1","1161"
"50","50","retrieval","old_object","98","DogTreat.jpg",".","1","37","0","1260"
"50","50","retrieval","new_object","99","Truck_Dump.jpg",".",".","37","1","697"
"50","50","retrieval","old_object","100","IceCrusher.jpg",".","3","37","0","675"
"50","50","retrieval","new_object","101","CartonEggs.jpg",".",".","37","1","725"
"50","50","retrieval","new_object","102","Screw.jpg",".",".","37","1","767"
"50","50","retrieval","old_object","103","Lollipop_Grape.jpg",".","1","36","1","697"
"50","50","retrieval","new_object","104","CrepeMaker.jpg",".",".","37","1","619"
"50","50","retrieval","new_object","105","Toy_TableSet.jpg",".",".","37","1","709"
"50","50","retrieval","old_object","106","Cake_Wedding.jpg",".","1","37","0","623"
"50","50","retrieval","new_object","107","Seashell_AlternateTellin.jpg",".",".","37","1","651"
"50","50","retrieval","old_object","108","MonaLisa.jpg",".","1","36","1","813"
"50","50","retrieval","new_object","109","Chipmunk.jpg",".",".","37","1","815"
"50","50","retrieval","old_object","110","Speaker_OnStand.jpg",".","3","37","0","793"
"50","50","retrieval","old_object","111","Generator.jpg",".","3","36","1","1091"
"50","50","retrieval","old_object","112","Flute_Wooden.jpg",".","1","37","0","845"
"50","50","retrieval","new_object","113","TireRims.jpg",".",".","37","1","871"
"50","50","retrieval","new_object","114","Iron_Antique.jpg",".",".","37","1","649"
"50","50","retrieval","new_object","115","Cabinet_Office.jpg",".",".","37","1","794"
"50","50","retrieval","old_object","116","Hourglass.jpg",".","3","37","0","749"
"50","50","retrieval","old_object","117","PotatoMasher_Zigzag.jpg",".","3","37","0","1071"
"50","50","retrieval","new_object","118","CookieCutter_Tree.jpg",".",".","37","1","849"
"50","50","retrieval","old_object","119","Clip_Paper.jpg",".","3","37","0","618"
"50","50","retrieval","new_object","120","DivingBoard.jpg",".",".","37","1","565"
"50","50","retrieval","old_object","121","Balalaika.jpg",".","3","36","1","783"
"50","50","retrieval","new_object","122","Thermos_MetalSleek.jpg",".",".","37","1","672"
"50","50","retrieval","old_object","123","BicycleBrake.jpg",".","1","37","0","860"
"50","50","retrieval","new_object","124","Hazelnut.jpg",".",".","37","1","895"
"50","50","retrieval","old_object","125","Bellows.jpg",".","3","37","0","656"
"50","50","retrieval","new_object","126","Pen_Ballpoint.jpg",".",".","37","1","876"
"50","50","retrieval","new_object","127","Carbiner_Ascender.jpg",".",".","37","1","561"
"50","50","retrieval","new_object","128","Makeup_Foundation.jpg",".",".","37","1","682"
"50","50","retrieval","old_object","129","Sushi.jpg",".","1","37","0","916"
"50","50","retrieval","old_object","130","DryRack_Dishes.jpg",".","3","37","0","886"
"50","50","retrieval","new_object","131","SkullDeer.jpg",".",".","37","1","1112"
"50","50","retrieval","new_object","133","Case_DVD.jpg",".",".","37","1","806"
"50","50","retrieval","old_object","134","Knife_Hunting.jpg",".","3","36","1","985"
"50","50","retrieval","old_object","135","BicycleHandleGrip.jpg",".","1","37","0","683"
"50","50","retrieval","old_object","136","Guitarcase.jpg",".","3","37","0","556"
"50","50","retrieval","new_object","137","Fridge.jpg",".",".","37","1","502"
"50","50","retrieval","old_object","138","Lilypad.jpg",".","3","36","1","745"
"50","50","retrieval","old_object","139","BicyclePedal.jpg",".","3","37","0","619"
"50","50","retrieval","old_object","140","Bathtub.jpg",".","1","37","0","644"
"50","50","retrieval","new_object","141","Brace_Back.jpg",".",".","37","1","703"
"50","50","retrieval","old_object","142","Trumpet.jpg",".","3","37","0","825"
"50","50","retrieval","new_object","143","Radio_Vintage.jpg",".",".","37","1","666"
"50","50","retrieval","new_object","144","Helmet_Knight.jpg",".",".","37","1","792"
"50","50","retrieval","new_object","145","Tribunal_Wooden.jpg",".",".","37","1","851"
"50","50","retrieval","new_object","146","PropellerFan.jpg",".",".","37","1","652"
"50","50","retrieval","old_object","147","Toy_StackingRing.jpg",".","3","37","0","606"
"50","50","retrieval","new_object","148","Dolphine.jpg",".",".","37","1","752"
"50","50","retrieval","old_object","149","Nyala.jpg",".","3","36","1","644"
"50","50","retrieval","new_object","150","Toolbox_Old.jpg",".",".","37","1","566"
"50","50","retrieval","old_object","151","Bottle_Wine.jpg",".","1","37","0","864"
"50","50","retrieval","new_object","152","PanCooking.jpg",".",".","37","1","721"
"50","50","retrieval","new_object","153","Cabinet_Display.jpg",".",".","37","1","580"
"50","50","retrieval","old_object","154","Candle_Blue.jpg",".","1","37","0","104"
"50","50","retrieval","old_object","155","WashRack.jpg",".","1","37","0","665"
"50","50","retrieval","new_object","156","Microphone.jpg",".",".","37","1","724"
"50","50","retrieval","new_object","157","Caterpillar.jpg",".",".","37","1","1166"
"50","50","retrieval","new_object","158","Crutches.jpg",".",".","37","1","944"
"50","50","retrieval","old_object","159","Hook_Fish.jpg",".","3","37","0","1212"
"50","50","retrieval","old_object","160","Drink_Green.jpg",".","3","37","0","678"
"50","50","retrieval","new_object","161","SundaeBanana.jpg",".",".","37","1","688"
"50","50","retrieval","old_object","162","Mat_Door.jpg",".","3","37","0","825"
"50","50","retrieval","new_object","163","Bell_Hand.jpg",".",".","37","1","932"
"50","50","retrieval","new_object","164","Gorilla.jpg",".",".","37","1","806"
"50","50","retrieval","new_object","165","Toy_Lighthouse.jpg",".",".","37","1","263"
"50","50","retrieval","new_object","166","Box_FirstAidOpen.jpg",".",".","37","1","897"
"50","50","retrieval","old_object","167","Cherry.jpg",".","3","36","1","676"
"50","50","retrieval","new_object","168","Tape_Washi.jpg",".",".","37","1","685"
"50","50","retrieval","new_object","169","Shield_Antique.jpg",".",".","37","1","615"
"50","50","retrieval","old_object","170","IceCream_Chocolate.jpg",".","1","37","0","98"
"50","50","retrieval","new_object","171","BicycleChain.jpg",".",".","37","1","1140"
"50","50","retrieval","old_object","172","StringBean.jpg",".","3","36","1","661"
"50","50","retrieval","new_object","173","Chinchilla.jpg",".",".","37","1","895"
"50","50","retrieval","new_object","174","Pasta_Spaghetti.jpg",".",".","37","1","1081"
"50","50","retrieval","old_object","175","NailPolish.jpg",".","3","37","0","515"
"50","50","retrieval","old_object","176","Chest_Toys.jpg",".","3","37","0","845"
"50","50","retrieval","new_object","177","Hockey_Equipment.jpg",".",".","37","1","143"
"50","50","retrieval","old_object","178","NintendoWii.jpg",".","3","37","0","9"
"50","50","retrieval","new_object","179","Statue_VirginMary.jpg",".",".","37","1","819"
"50","50","retrieval","old_object","180","Megaphone.jpg",".","3","36","1","927"
"50","50","retrieval","old_object","181","Skates.jpg",".","3","37","0","860"
"50","50","retrieval","old_object","182","Goose_Canadian.jpg",".","3","36","1","773"
"50","50","retrieval","new_object","183","Tire_Hollow.jpg",".",".","37","1","689"
"50","50","retrieval","new_object","184","Crib_Basket.jpg",".",".","37","1","827"
"50","50","retrieval","new_object","185","Thermostat.jpg",".",".","37","1","621"
"50","50","retrieval","old_object","186","Apple_RedAndGreen.jpg",".","1","36","1","591"
"50","50","retrieval","new_object","187","Loofa.jpg",".",".","37","1","705"
"50","50","retrieval","old_object","188","Pitcher.jpg",".","1","37","0","666"
"50","50","retrieval","old_object","189","Cup_Styrofoam.jpg",".","3","37","0","221"
"50","50","retrieval","new_object","190","Beaker.jpg",".",".","37","1","695"
"50","50","retrieval","new_object","191","Sock_Ankle.jpg",".",".","37","1","650"
"50","50","retrieval","old_object","192","PassionFruit.jpg",".","3","36","1","845"
"50","50","retrieval","new_object","193","Box_Present.jpg",".",".","37","1","831"
"50","50","retrieval","new_object","194","ElasticBand.jpg",".",".","37","1","1057"
"50","50","retrieval","old_object","195","Knee.jpg",".","3","36","1","1082"
"50","50","retrieval","new_object","196","Cross.jpg",".",".","37","1","933"
"50","50","retrieval","new_object","197","Cage_Bird.jpg",".",".","37","1","41"
"50","50","retrieval","new_object","199","MobilityScooter.jpg",".",".","37","1","817"
"50","50","retrieval","old_object","200","Shoes_DutchClogs.jpg",".","1","37","0","531"
"50","50","retrieval","old_object","201","Toy_BlocksPlastic Colourful.jpg",".","1","37","0","357"
"50","50","retrieval","new_object","202","Jar_Cotton.jpg",".",".","37","1","519"
"50","50","retrieval","new_object","203","KitchenTools.jpg",".",".","37","1","712"
"50","50","retrieval","old_object","204","CameoPortrait.jpg",".","1","37","0","499"
"50","50","retrieval","new_object","205","Drum_Brazilan.jpg",".",".","37","1","7"
"50","50","retrieval","old_object","206","Mattress.jpg",".","3","37","0","576"
"50","50","retrieval","old_object","207","Desk_School.jpg",".","3","37","0","707"
"50","50","retrieval","old_object","208","Fruit_Cactus.jpg",".","1","37","0","829"
"50","50","retrieval","new_object","209","Boxcutter.jpg",".",".","37","1","63"
"50","50","retrieval","new_object","210","Decoration_WallOrnament.jpg",".",".","37","1","576"
"50","50","retrieval","old_object","211","Bullet.jpg",".","3","37","0","67"
"50","50","retrieval","new_object","212","Frame_Oval.jpg",".",".","37","1","559"
"50","50","retrieval","new_object","213","Hoverboard.jpg",".",".","37","1","728"
"50","50","retrieval","new_object","214","SmokingPipe.jpg",".",".","37","1","59"
"50","50","retrieval","new_object","215","Glass_Cup.jpg",".",".","37","1","933"
"50","50","retrieval","new_object","216","BoogieBoard.jpg",".",".","37","1","54"
"50","50","retrieval","old_object","217","Sign_Wetfloor.jpg",".","3","37","0","48"
"50","50","retrieval","old_object","218","Mop.jpg",".","1","37","0","394"
"50","50","retrieval","new_object","219","PaperStack.jpg",".",".","37","1","620"
"50","50","retrieval","old_object","220","Tortilla.jpg",".","3","36","1","838"
"50","50","retrieval","new_object","221","GranolaBar.jpg",".",".","37","1","688"
"50","50","retrieval","old_object","222","JukeboxAntique.jpg",".","3","37","0","75"
"50","50","retrieval","old_object","223","Chair_MedicalToilet.jpg",".","1","37","0","636"
"50","50","retrieval","new_object","224","Dart.jpg",".",".","37","1","454"
"50","50","retrieval","new_object","225","Toolbox_RedOpen.jpg",".",".","37","1","1072"
"50","50","retrieval","new_object","226","Playground.jpg",".",".","37","1","1084"
"50","50","retrieval","old_object","227","Light_Siren.jpg",".","1","37","0","654"
"50","50","retrieval","new_object","228","Toy_PoliceCar.jpg",".",".","37","1","1136"
"50","50","retrieval","old_object","229","Fortress.jpg",".","1","37","0","1153"
"50","50","retrieval","old_object","230","Toy_GasPump.jpg",".","3","36","1","844"
"50","50","retrieval","old_object","231","Ashtray_Empty.jpg",".","3","37","0","742"
"50","50","retrieval","old_object","232","BadgeSpecialAgent.jpg",".","3","37","0","639"
"50","50","retrieval","old_object","233","Hippopotamus.jpg",".","3","36","1","601"
"50","50","retrieval","old_object","234","Mask_Happy.jpg",".","1","37","0","636"
"50","50","retrieval","old_object","235","GasBurner.jpg",".","1","37","0","1062"
"50","50","retrieval","new_object","236","Gun_Glue.jpg",".",".","37","1","1367"
"50","50","retrieval","new_object","237","Spatula_1.jpg",".",".","37","1","634"
"50","50","retrieval","new_object","238","Toy_SeeSaw.jpg",".",".","37","1","590"
"50","50","retrieval","old_object","239","Oyster.jpg",".","3","36","1","735"
"50","50","retrieval","new_object","240","DrillBit.jpg",".",".","37","1","698"
"50","50","retrieval","old_object","241","Spoon_Wooden.jpg",".","3","37","0","932"
"50","50","retrieval","new_object","242","Strainer_Tea.jpg",".",".","37","1","637"
"50","50","retrieval","new_object","243","HumanSkeleton.jpg",".",".","37","1","535"
"50","50","retrieval","new_object","244","ShearsGarden.jpg",".",".","37","1","682"
"50","50","retrieval","old_object","245","Tickets_Blank.jpg",".","3","37","0","596"
"50","50","retrieval","new_object","246","Brooch_Fish.jpg",".",".","37","1","655"
"50","50","retrieval","new_object","247","Hawk.jpg",".",".","37","1","593"
"50","50","retrieval","new_object","248","TurkeyDinner.jpg",".",".","37","1","324"
"50","50","retrieval","old_object","249","TartStrawberry.jpg",".","3","37","0","327"
"50","50","retrieval","new_object","250","Lamp_TableWhite.jpg",".",".","37","1","713"
"50","50","retrieval","new_object","251","Bottle_Specimen.jpg",".",".","37","1","107"
"50","50","retrieval","old_object","252","Helmet_Construction.jpg",".","1","37","0","117"
"50","50","retrieval","new_object","253","Tweezers.jpg",".",".","37","1","63"
"50","50","retrieval","new_object","254","SafetyPin.jpg",".",".","37","1","471"
"50","50","retrieval","old_object","255","Helmet_Soldier.jpg",".","1","37","0","595"
"50","50","retrieval","old_object","256","Colander.jpg",".","1","37","0","244"
"50","50","retrieval","old_object","257","Peppermill.jpg",".","1","37","0","1711"
"50","50","retrieval","old_object","258","Steeple.jpg",".","3","37","0","1858"
"50","50","retrieval","new_object","259","Pajamas.jpg",".",".","37","1","731"
"50","50","retrieval","old_object","260","MixingGlass.jpg",".","1","37","0","1485"
"50","50","retrieval","new_object","261","Bench_Wooden.jpg",".",".","37","1","1367"
"50","50","retrieval","new_object","262","Chopsticks.jpg",".",".","37","1","409"
"50","50","retrieval","new_object","263","Lighter_Yellow.jpg",".",".","37","1","379"
"50","50","retrieval","old_object","265","Blanket.jpg",".","1","36","1","1088"
"50","50","retrieval","old_object","266","Spoons_MeasuringDetached.jpg",".","1","37","0","1225"
"50","50","retrieval","old_object","267","Box_Floral.jpg",".","3","36","1","1371"
"50","50","retrieval","new_object","268","Syrup_Maple.jpg",".",".","37","1","685"
"50","50","retrieval","new_object","269","Pickaxe.jpg",".",".","37","1","711"
"50","50","retrieval","old_object","270","Lock_Combination.jpg",".","1","37","0","993"
"50","50","retrieval","old_object","271","Toys_Lego.jpg",".","1","37","0","19"
"50","50","retrieval","old_object","272","Tripod.jpg",".","1","37","0","133"
"50","50","retrieval","old_object","273","Box_Jewellery.jpg",".","1","37","0","1575"
"50","50","retrieval","new_object","274","SkiPoles.jpg",".",".","37","1","1321"
"50","50","retrieval","new_object","275","CuttingBoard.jpg",".",".","37","1","1523"
"50","50","retrieval","new_object","276","BloodpPresureCuff.jpg",".",".","37","1","612"
"50","50","retrieval","old_object","277","Toy_RockingHorseBlack.jpg",".","1","37","0","823"
"50","50","retrieval","new_object","278","PaintRoller.jpg",".",".","37","1","723"
"50","50","retrieval","new_object","279","Bindings_Snowboard.jpg",".",".","37","1","636"
"50","50","retrieval","new_object","280","Pig.jpg",".",".","37","1","159"
"50","50","retrieval","old_object","281","RemoteControl.jpg",".","3","37","0","129"
"50","50","retrieval","old_object","282","Shampoo.jpg",".","3","37","0","115"
"50","50","retrieval","new_object","283","Hottub.jpg",".",".","37","1","140"
"50","50","retrieval","old_object","284","ShoulderPads.jpg",".","1","37","0","1247"
"50","50","retrieval","old_object","285","Hammer_Reflex.jpg",".","1","37","0","465"
"50","50","retrieval","new_object","286","Shoe_Pink.jpg",".",".","37","1","170"
"50","50","retrieval","new_object","287","Jug_Milk.jpg",".",".","37","1","76"
"50","50","retrieval","old_object","288","PuppetTheatre_WhiteGold.jpg",".","3","36","1","839"
"50","50","retrieval","old_object","289","Guitar_Acoustic.jpg",".","1","37","0","792"
"50","50","retrieval","old_object","290","fries.jpg",".","1","36","1","1144"
"50","50","retrieval","new_object","291","Bandage_Wrap.jpg",".",".","37","1","619"
"50","50","retrieval","old_object","292","Fuse.jpg",".","3","37","0","527"
"50","50","retrieval","new_object","293","Cannister_Gas.jpg",".",".","37","1","448"
"50","50","retrieval","new_object","294","AnsweringMachine.jpg",".",".","37","1","330"
"50","50","retrieval","old_object","295","Cantaloupe.jpg",".","1","36","1","565"
"50","50","retrieval","old_object","296","AmpMeter.jpg",".","3","37","0","520"
"50","50","retrieval","new_object","297","Toy_DollOffice.jpg",".",".","37","1","250"
"50","50","retrieval","new_object","298","Paddle_Beach.jpg",".",".","37","1","252"
"50","50","retrieval","old_object","299","FlashlightHeadBand.jpg",".","1","37","0","358"
"50","50","retrieval","new_object","300","ToothPaste.jpg",".",".","37","1","544"
"50","50","retrieval","old_object","301","TeethMould.jpg",".","3","37","0","946"
"50","50","retrieval","new_object","302","RibbonSpool.jpg",".",".","37","1","1116"
"50","50","retrieval","new_object","303","LampPost_OneBulb.jpg",".",".","37","1","856"
"50","50","retrieval","old_object","304","Leaf_Clover.jpg",".","1","37","0","548"
"50","50","retrieval","new_object","305","Dress_Blue.jpg",".",".","37","1","581"
"50","50","retrieval","old_object","306","Exercise_Stretch.jpg",".","1","37","0","880"
"50","50","retrieval","old_object","307","Lantern_TeaBox.jpg",".","1","37","0","34"
"50","50","retrieval","old_object","308","Paratrooper.jpg",".","3","36","1","804"
"50","50","retrieval","old_object","309","DrinkingFountain.jpg",".","1","37","0","725"
"50","50","retrieval","new_object","310","Exercise_Machine.jpg",".",".","37","1","496"
"50","50","retrieval","old_object","311","Wheelbarrow_Green.jpg",".","1","37","0","842"
"50","50","retrieval","old_object","312","Notebook.jpg",".","1","37","0","1115"
"50","50","retrieval","new_object","313","Baster.jpg",".",".","37","1","757"
"50","50","retrieval","new_object","314","Boardgame_Checkers.jpg",".",".","37","1","760"
"50","50","retrieval","old_object","315","Glove_Rubber.jpg",".","3","37","0","1257"
"50","50","retrieval","new_object","316","Tofu.jpg",".",".","37","1","1069"
"50","50","retrieval","new_object","317","Bugle.jpg",".",".","37","1","808"
"50","50","retrieval","new_object","318","Telescope.jpg",".",".","37","1","1097"
"50","50","retrieval","new_object","319","Clock_Radio.jpg",".",".","0","0","1997"
"50","50","retrieval","old_object","320","NeedlesAcupuncture.jpg",".","3","37","0","581"
"50","50","retrieval","new_object","321","Sign_TrafficArrow.jpg",".",".","36","0","96"
"50","50","retrieval","new_object","322","Bell_Hand.jpg",".",".","37","1","851"
"50","50","retrieval","old_object","323","Golf_Bag.jpg",".","1","37","0","189"
"50","50","retrieval","old_object","324","WireStripper.jpg",".","1","36","1","799"
"50","50","retrieval","old_object","325","Mug_Beer.jpg",".","1","36","1","633"
"50","50","demographics_block","gender","1",".",".",".","male","1","17047"
"50","50","demographics_block","age","1",".",".",".","30","1","17047"
"50","50","demographics_block","education","1",".",".",".","20","1","17047"
"50","50","demographics_block","left_right_handed","2",".",".",".","Right","1","9158"
"50","50","demographics_block","raceoption1","2",".",".",".","0","1","9158"
"50","50","demographics_block","raceoption2","2",".",".",".","","1","9158"
"50","50","demographics_block","raceoption3","2",".",".",".","","1","9158"
"50","50","demographics_block","raceoption4","2",".",".",".","","1","9158"
"50","50","demographics_block","raceoption5","2",".",".",".","","1","9158"
"50","50","demographics_block","raceoption6","2",".",".",".","","1","9158"
"50","50","demographics_block","raceoption7","2",".",".",".","","1","9158"
"50","50","demographics_block","raceoption8","2",".",".",".","","1","9158"
"50","50","demographics_block","raceoption9","2",".",".",".","","1","9158"
"50","50","demographics_block","raceother","2",".",".",".","","1","9158"
"50","50","demographics_block","raceother","2",".",".",".","","1","9158"
"50","50","demographics_block","english_language","2",".",".",".","Yes","1","9158"
"50","50","demographics_block","other","2",".",".",".","","1","9158"
"50","50","demographics_block","eyesight","3",".",".",".","No","1","6224"
"50","50","demographics_block","colorblind","3",".",".",".","No","1","6224"
"49","49","encoding","encoding","1","Lollipop_Grape.jpg","1",".","0","0","1000"
"49","49","encoding","encoding","2","Generator.jpg","3",".","0","0","1000"
"49","49","encoding","encoding","3","Fortress.jpg","1",".","0","0","1000"
"49","49","encoding","encoding","4","MonaLisa.jpg","1",".","0","0","1000"
"49","49","encoding","encoding","5","AmpMeter.jpg","3",".","37","0","749"
"49","49","encoding","encoding","6","AmpMeter.jpg","3",".","37","0","557"
"49","49","encoding","encoding","7","Ashtray_Empty.jpg","3",".","36","0","622"
"49","49","encoding","encoding","8","Glove_Rubber.jpg","3",".","37","0","735"
"49","49","encoding","encoding","9","Pipe_Drain.jpg","1",".","37","0","740"
"49","49","encoding","encoding","10","MonkeyPuppet.jpg","3",".","37","0","693"
"49","49","encoding","encoding","11","NintendoWii.jpg","3",".","37","0","662"
"49","49","encoding","encoding","12","Tickets_Blank.jpg","3",".","37","0","670"
"49","49","encoding","encoding","13","Pineapple.jpg","3",".","36","0","551"
"49","49","encoding","encoding","14","Beater_Electric.jpg","3",".","37","0","568"
"49","49","encoding","encoding","15","Balalaika.jpg","3",".","37","0","773"
"49","49","encoding","encoding","16","Hourglass.jpg","3",".","37","0","582"
"49","49","encoding","encoding","17","Ashtray_Empty.jpg","3",".","37","0","607"
"49","49","encoding","encoding","18","Chest_Toys.jpg","3",".","37","0","681"
"49","49","encoding","encoding","19","Toy_Witch.jpg","3",".","37","0","777"
"49","49","encoding","encoding","20","BicycleBrake.jpg","1",".","37","0","626"
"49","49","encoding","encoding","21","Mattress.jpg","3",".","37","0","691"
"49","49","encoding","encoding","22","IceCrusher.jpg","3",".","37","0","635"
"49","49","encoding","encoding","23","Toy_Witch.jpg","3",".","37","0","484"
"49","49","encoding","encoding","24","Mat_Door.jpg","3",".","37","0","621"
"49","49","encoding","encoding","25","Bird_Cardinal.jpg","3",".","36","0","805"
"49","49","encoding","encoding","26","Toy_Moose.jpg","3",".","36","0","550"
"49","49","encoding","encoding","27","DogTreat.jpg","1",".","37","0","702"
"49","49","encoding","encoding","28","Bottle_Blue.jpg","3",".","37","0","683"
"49","49","encoding","encoding","29","Guitarcase.jpg","3",".","37","0","876"
"49","49","encoding","encoding","30","Paratrooper.jpg","3",".","0","0","1000"
"49","49","encoding","encoding","31","Golf_Bag.jpg","1",".","37","0","630"
"49","49","encoding","encoding","32","GPS.jpg","3",".","37","0","664"
"49","49","encoding","encoding","33","BottleOpener.jpg","1",".","37","0","721"
"49","49","encoding","encoding","34","DrinkingFountain.jpg","1",".","37","0","782"
"49","49","encoding","encoding","35","Mango.jpg","1",".","36","0","671"
"49","49","encoding","encoding","36","WireStripper.jpg","1",".","37","0","584"
"49","49","encoding","encoding","37","Bowl_Chinese.jpg","3",".","37","0","712"
"49","49","encoding","encoding","38","BicyclePedal.jpg","3",".","37","0","633"
"49","49","encoding","encoding","39","Oyster.jpg","3",".","36","0","786"
"49","49","encoding","encoding","40","DoorBell.jpg","1",".","37","0","642"
"49","49","encoding","encoding","41","Clip_Paper.jpg","3",".","37","0","491"
"49","49","encoding","encoding","42","RemoteControl.jpg","3",".","37","0","557"
"49","49","encoding","encoding","43","Generator.jpg","3",".","37","0","478"
"49","49","encoding","encoding","44","Toy_GasPump.jpg","3",".","37","0","519"
"49","49","encoding","encoding","45","Chair_BeanBag.jpg","3",".","37","0","654"
"49","49","encoding","encoding","46","Chair_BeanBag.jpg","3",".","37","0","424"
"49","49","encoding","encoding","47","Keg.jpg","1",".","37","0","601"
"49","49","encoding","encoding","48","Bowl_Chinese.jpg","3",".","37","0","418"
"49","49","encoding","encoding","49","Cherry.jpg","3",".","36","0","626"
"49","49","encoding","encoding","50","Bullet.jpg","3",".","37","0","976"
"49","49","encoding","encoding","51","Guitar_Acoustic.jpg","1",".","37","0","474"
"49","49","encoding","encoding","52","MouthGuard.jpg","3",".","37","0","601"
"49","49","encoding","encoding","53","MixingGlass.jpg","1",".","37","0","545"
"49","49","encoding","encoding","54","Megaphone.jpg","3",".","37","0","570"
"49","49","encoding","encoding","55","WindowBlinds.jpg","3",".","37","0","651"
"49","49","encoding","encoding","56","Steeple.jpg","3",".","37","0","459"
"49","49","encoding","encoding","57","Tripod.jpg","1",".","37","0","436"
"49","49","encoding","encoding","58","Bellows.jpg","3",".","37","0","541"
"49","49","encoding","encoding","59","Clip_Paper.jpg","3",".","37","0","495"
"49","49","encoding","encoding","60","Colander.jpg","1",".","37","0","400"
"49","49","encoding","encoding","61","Bird_Cardinal.jpg","3",".","36","0","585"
"49","49","encoding","encoding","62","Nyala.jpg","3",".","36","0","610"
"49","49","encoding","encoding","63","Hippopotamus.jpg","3",".","36","0","763"
"49","49","encoding","encoding","64","Teabag.jpg","3",".","37","0","795"
"49","49","encoding","encoding","65","PotatoMasher_Zigzag.jpg","3",".","37","0","627"
"49","49","encoding","encoding","67","LeatherPuncherTool.jpg","3",".","37","0","657"
"49","49","encoding","encoding","68","AmpMeter.jpg","3",".","37","0","802"
"49","49","encoding","encoding","69","Toys_Lego.jpg","1",".","37","0","755"
"49","49","encoding","encoding","70","Shampoo.jpg","3",".","37","0","476"
"49","49","encoding","encoding","71","BadgeSpecialAgent.jpg","3",".","37","0","484"
"49","49","encoding","encoding","72","TartStrawberry.jpg","3",".","36","0","677"
"49","49","encoding","encoding","73","Trumpet.jpg","3",".","37","0","491"
"49","49","encoding","encoding","74","DryRack_Dishes.jpg","3",".","37","0","655"
"49","49","encoding","encoding","75","Cake_Wedding.jpg","1",".","37","0","616"
"49","49","encoding","encoding","76","Trophy.jpg","3",".","37","0","521"
"49","49","encoding","encoding","77","MouthGuard.jpg","3",".","37","0","418"
"49","49","encoding","encoding","78","HairDryer.jpg","1",".","37","0","515"
"49","49","encoding","encoding","79","Lantern_TeaBox.jpg","1",".","37","0","516"
"49","49","encoding","encoding","80","Table_Poker.jpg","1",".","37","0","618"
"49","49","encoding","encoding","81","Exercise_Stretch.jpg","1",".","37","0","547"
"49","49","encoding","encoding","82","FireExtinguisher.jpg","1",".","37","0","515"
"49","49","encoding","encoding","83","Toy_GasPump.jpg","3",".","37","0","478"
"49","49","encoding","encoding","84","WashRack.jpg","1",".","37","0","591"
"49","49","encoding","encoding","85","Hammer_Reflex.jpg","1",".","37","0","448"
"49","49","encoding","encoding","86","NeedlesAcupuncture.jpg","3",".","37","0","544"
"49","49","encoding","encoding","87","Toy_StackingRing.jpg","3",".","37","0","473"
"49","49","encoding","encoding","88","Tortilla.jpg","3",".","36","0","754"
"49","49","encoding","encoding","89","Toy_Moose.jpg","3",".","37","0","899"
"49","49","encoding","encoding","90","Cantaloupe.jpg","1",".","0","0","1000"
"49","49","encoding","encoding","91","Cherry.jpg","3",".","36","0","516"
"49","49","encoding","encoding","92","DryRack_Dishes.jpg","3",".","37","0","525"
"49","49","encoding","encoding","93","Cassette_Audio.jpg","3",".","37","0","598"
"49","49","encoding","encoding","94","Car_Sedan.jpg","3",".","37","0","560"
"49","49","encoding","encoding","95","Toy_BlocksPlastic Colourful.jpg","1",".","37","0","542"
"49","49","encoding","encoding","96","Glove_Rubber.jpg","3",".","37","0","504"
"49","49","encoding","encoding","97","Jar_JellyBeans.jpg","3",".","37","0","529"
"49","49","encoding","encoding","98","DoorKnob.jpg","3",".","37","0","521"
"49","49","encoding","encoding","99","Cup_Styrofoam.jpg","3",".","37","0","378"
"49","49","encoding","encoding","100","Mug_Beer.jpg","1",".","37","0","459"
"49","49","encoding","encoding","101","MouthGuard.jpg","3",".","37","0","490"
"49","49","encoding","encoding","102","Bullet.jpg","3",".","37","0","564"
"49","49","encoding","encoding","103","Toy_RockingHorseBlack.jpg","1",".","37","0","580"
"49","49","encoding","encoding","104","Goose_Canadian.jpg","3",".","37","0","453"
"49","49","encoding","encoding","105","BadgeSpecialAgent.jpg","3",".","37","0","622"
"49","49","encoding","encoding","106","Spoon_Wooden.jpg","3",".","37","0","743"
"49","49","encoding","encoding","107","Beater_Electric.jpg","3",".","37","0","423"
"49","49","encoding","encoding","108","Autocreeper.jpg","1",".","37","0","657"
"49","49","encoding","encoding","109","Lock_Combination.jpg","1",".","37","0","417"
"49","49","encoding","encoding","110","Box_Floral.jpg","3",".","37","0","649"
"49","49","encoding","encoding","111","Stove_Camping.jpg","3",".","37","0","417"
"49","49","encoding","encoding","112","Stove_Camping.jpg","3",".","37","0","378"
"49","49","encoding","encoding","113","Sign_Parking.jpg","3",".","37","0","355"
"49","49","encoding","encoding","114","Thermostat_Digital.jpg","1",".","37","0","604"
"49","49","encoding","encoding","115","Toy_Shapesorter.jpg","1",".","37","0","501"
"49","49","encoding","encoding","116","Chair_MedicalToilet.jpg","1",".","37","0","583"
"49","49","encoding","encoding","117","FlashlightHeadBand.jpg","1",".","37","0","873"
"49","49","encoding","encoding","118","Phone_Wireless.jpg","3",".","37","0","688"
"49","49","encoding","encoding","119","TeethMould.jpg","3",".","37","0","826"
"49","49","encoding","encoding","120","PaintBrushAndPallette.jpg","3",".","37","0","573"
"49","49","encoding","encoding","121","Trophy.jpg","3",".","37","0","542"
"49","49","encoding","encoding","122","Mitt_Oven.jpg","1",".","37","0","760"
"49","49","encoding","encoding","123","Almond.jpg","1",".","0","0","1000"
"49","49","encoding","encoding","124","Speaker_OnStand.jpg","3",".","37","0","561"
"49","49","encoding","encoding","125","Goose_Canadian.jpg","3",".","36","0","722"
"49","49","encoding","encoding","126","NeedlesAcupuncture.jpg","3",".","37","0","545"
"49","49","encoding","encoding","127","Bird_Cardinal.jpg","3",".","36","0","625"
"49","49","encoding","encoding","128","Knife_Hunting.jpg","3",".","37","0","635"
"49","49","encoding","encoding","129","Bowl_Chinese.jpg","3",".","37","0","492"
"49","49","encoding","encoding","130","LeatherPuncherTool.jpg","3",".","37","0","485"
"49","49","encoding","encoding","131","Bottle_Blue.jpg","3",".","37","0","462"
"49","49","encoding","encoding","133","Sign_Wetfloor.jpg","3",".","37","0","637"
"49","49","encoding","encoding","134","Drink_Green.jpg","3",".","0","0","1000"
"49","49","encoding","encoding","135","Chest.jpg","1",".","37","0","535"
"49","49","encoding","encoding","136","Jar_JellyBeans.jpg","3",".","37","0","685"
"49","49","encoding","encoding","137","CookieCutter_Bell.jpg","1",".","37","0","566"
"49","49","encoding","encoding","138","Skates.jpg","3",".","37","0","431"
"49","49","encoding","encoding","139","LeatherPuncherTool.jpg","3",".","37","0","448"
"49","49","encoding","encoding","140","Tickets_Blank.jpg","3",".","37","0","537"
"49","49","encoding","encoding","141","Hourglass.jpg","3",".","37","0","465"
"49","49","encoding","encoding","142","Mat_Door.jpg","3",".","37","0","580"
"49","49","encoding","encoding","143","Drink_Green.jpg","3",".","37","0","413"
"49","49","encoding","encoding","144","Trumpet.jpg","3",".","37","0","505"
"49","49","encoding","encoding","145","NintendoWii.jpg","3",".","37","0","362"
"49","49","encoding","encoding","146","Blanket.jpg","1",".","37","0","420"
"49","49","encoding","encoding","147","Flute_Wooden.jpg","1",".","37","0","508"
"49","49","encoding","encoding","148","Pants_Jeans.jpg","1",".","37","0","491"
"49","49","encoding","encoding","149","Desk_School.jpg","3",".","37","0","599"
"49","49","encoding","encoding","150","Pitcher.jpg","1",".","37","0","424"
"49","49","encoding","encoding","151","GPS.jpg","3",".","37","0","521"
"49","49","encoding","encoding","152","Cassette_Audio.jpg","3",".","37","0","467"
"49","49","encoding","encoding","153","Mop.jpg","1",".","37","0","442"
"49","49","encoding","encoding","154","PuppetTheatre_WhiteGold.jpg","3",".","37","0","356"
"49","49","encoding","encoding","155","Cup_Styrofoam.jpg","3",".","37","0","373"
"49","49","encoding","encoding","156","BusStop.jpg","1",".","37","0","382"
"49","49","encoding","encoding","157","Candy_Heart.jpg","3",".","0","0","1000"
"49","49","encoding","encoding","158","Fruit_Cactus.jpg","1",".","36","0","804"
"49","49","encoding","encoding","159","Bottle_Wine.jpg","1",".","37","0","565"
"49","49","encoding","encoding","160","Knee.jpg","3",".","36","0","758"
"49","49","encoding","encoding","161","Hippopotamus.jpg","3",".","36","0","736"
"49","49","encoding","encoding","162","Phone_Wireless.jpg","3",".","37","0","537"
"49","49","encoding","encoding","163","Bottle_Blue.jpg","3",".","37","0","474"
"49","49","encoding","encoding","164","Shampoo.jpg","3",".","37","0","452"
"49","49","encoding","encoding","165","PaintRollTray.jpg","3",".","37","0","604"
"49","49","encoding","encoding","166","Hook_Fish.jpg","3",".","37","0","476"
"49","49","encoding","encoding","167","Paratrooper.jpg","3",".","37","0","821"
"49","49","encoding","encoding","168","Skates.jpg","3",".","37","0","534"
"49","49","encoding","encoding","169","Car_Sedan.jpg","3",".","37","0","455"
"49","49","encoding","encoding","170","Mattress.jpg","3",".","37","0","497"
"49","49","encoding","encoding","171","PassionFruit.jpg","3",".","36","0","713"
"49","49","encoding","encoding","172","DoorKnob.jpg","3",".","37","0","507"
"49","49","encoding","encoding","173","RemoteControl.jpg","3",".","37","0","524"
"49","49","encoding","encoding","174","Dress_Party.jpg","1",".","37","0","773"
"49","49","encoding","encoding","175","Bullet.jpg","3",".","37","0","478"
"49","49","encoding","encoding","176","PotatoMasher_Zigzag.jpg","3",".","37","0","447"
"49","49","encoding","encoding","177","Pineapple.jpg","3",".","37","0","433"
"49","49","encoding","encoding","178","Chest_Toys.jpg","3",".","37","0","586"
"49","49","encoding","encoding","179","Flamingo_Cartoon.jpg","1",".","36","0","898"
"49","49","encoding","encoding","180","PaintRollTray.jpg","3",".","37","0","771"
"49","49","encoding","encoding","181","Steeple.jpg","3",".","37","0","516"
"49","49","encoding","encoding","182","Hippopotamus.jpg","3",".","36","0","694"
"49","49","encoding","encoding","183","BicyclePedal.jpg","3",".","37","0","671"
"49","49","encoding","encoding","184","Hook_Fish.jpg","3",".","37","0","518"
"49","49","encoding","encoding","185","Oyster.jpg","3",".","36","0","735"
"49","49","encoding","encoding","186","Lilypad.jpg","3",".","36","0","808"
"49","49","encoding","encoding","187","JukeboxAntique.jpg","3",".","37","0","625"
"49","49","encoding","encoding","188","Fuse.jpg","3",".","37","0","594"
"49","49","encoding","encoding","189","Phone_Wireless.jpg","3",".","37","0","540"
"49","49","encoding","encoding","190","CandyDispenser.jpg","1",".","37","0","933"
"49","49","encoding","encoding","191","Speaker_OnStand.jpg","3",".","37","0","574"
"49","49","encoding","encoding","192","Knee.jpg","3",".","36","0","631"
"49","49","encoding","encoding","193","Tickets_Blank.jpg","3",".","37","0","528"
"49","49","encoding","encoding","194","Apple_RedAndGreen.jpg","1",".","36","0","601"
"49","49","encoding","encoding","195","Trophy.jpg","3",".","37","0","618"
"49","49","encoding","encoding","196","DoorKnob.jpg","3",".","37","0","571"
"49","49","encoding","encoding","197","Desk_School.jpg","3",".","37","0","493"
"49","49","encoding","encoding","199","Tortilla.jpg","3",".","0","0","1000"
"49","49","encoding","encoding","200","NailPolish.jpg","3",".","37","0","565"
"49","49","encoding","encoding","201","NintendoWii.jpg","3",".","37","0","478"
"49","49","encoding","encoding","202","TeethMould.jpg","3",".","37","0","496"
"49","49","encoding","encoding","203","Spoons_MeasuringDetached.jpg","1",".","37","0","505"
"49","49","encoding","encoding","204","Sign_Wetfloor.jpg","3",".","37","0","447"
"49","49","encoding","encoding","205","Paratrooper.jpg","3",".","37","0","569"
"49","49","encoding","encoding","206","Box_Floral.jpg","3",".","37","0","490"
"49","49","encoding","encoding","207","TartStrawberry.jpg","3",".","36","0","763"
"49","49","encoding","encoding","208","PotatoMasher_Zigzag.jpg","3",".","37","0","468"
"49","49","encoding","encoding","209","JukeboxAntique.jpg","3",".","37","0","766"
"49","49","encoding","encoding","210","Hourglass.jpg","3",".","37","0","479"
"49","49","encoding","encoding","211","fries.jpg","1",".","37","0","608"
"49","49","encoding","encoding","212","ShoulderPads.jpg","1",".","37","0","638"
"49","49","encoding","encoding","213","Hook_Fish.jpg","3",".","37","0","526"
"49","49","encoding","encoding","214","Nyala.jpg","3",".","37","0","824"
"49","49","encoding","encoding","215","Sign_Parking.jpg","3",".","0","0","1000"
"49","49","encoding","encoding","216","Fish_Rockbass.jpg","1",".","36","0","601"
"49","49","encoding","encoding","217","Peppermill.jpg","1",".","37","0","586"
"49","49","encoding","encoding","218","Goose_Canadian.jpg","3",".","36","0","628"
"49","49","encoding","encoding","219","Shampoo.jpg","3",".","37","0","557"
"49","49","encoding","encoding","220","Skates.jpg","3",".","37","0","534"
"49","49","encoding","encoding","221","Toy_Moose.jpg","3",".","0","0","1000"
"49","49","encoding","encoding","222","Mask_Happy.jpg","1",".","37","0","584"
"49","49","encoding","encoding","223","Bellows.jpg","3",".","37","0","594"
"49","49","encoding","encoding","224","Teabag.jpg","3",".","37","0","651"
"49","49","encoding","encoding","225","Cup_Styrofoam.jpg","3",".","37","0","428"
"49","49","encoding","encoding","226","PuppetTheatre_WhiteGold.jpg","3",".","37","0","470"
"49","49","encoding","encoding","227","Oyster.jpg","3",".","36","0","846"
"49","49","encoding","encoding","228","StringBean.jpg","3",".","36","0","687"
"49","49","encoding","encoding","229","Chest_Toys.jpg","3",".","37","0","544"
"49","49","encoding","encoding","230","Tortilla.jpg","3",".","0","0","1000"
"49","49","encoding","encoding","231","Candy_Heart.jpg","3",".","37","0","572"
"49","49","encoding","encoding","232","Helmet_Construction.jpg","1",".","37","0","538"
"49","49","encoding","encoding","233","Wheelbarrow_Green.jpg","1",".","37","0","517"
"49","49","encoding","encoding","234","IceCrusher.jpg","3",".","37","0","470"
"49","49","encoding","encoding","235","Bellows.jpg","3",".","37","0","455"
"49","49","encoding","encoding","236","Generator.jpg","3",".","37","0","441"
"49","49","encoding","encoding","237","WindowBlinds.jpg","3",".","37","0","559"
"49","49","encoding","encoding","238","DentistOverheadLight.jpg","1",".","37","0","515"
"49","49","encoding","encoding","239","TartStrawberry.jpg","3",".","36","0","612"
"49","49","encoding","encoding","240","BicycleHandleGrip.jpg","1",".","37","0","509"
"49","49","encoding","encoding","241","Mat_Door.jpg","3",".","37","0","535"
"49","49","encoding","encoding","242","BicyclePedal.jpg","3",".","37","0","448"
"49","49","encoding","encoding","243","RemoteControl.jpg","3",".","37","0","473"
"49","49","encoding","encoding","244","StringBean.jpg","3",".","36","0","602"
"49","49","encoding","encoding","245","Box_Jewellery.jpg","1",".","37","0","658"
"49","49","encoding","encoding","246","Lilypad.jpg","3",".","36","0","652"
"49","49","encoding","encoding","247","IceCrusher.jpg","3",".","37","0","525"
"49","49","encoding","encoding","248","Mattress.jpg","3",".","37","0","454"
"49","49","encoding","encoding","249","Toy_Witch.jpg","3",".","37","0","936"
"49","49","encoding","encoding","250","Sign_Parking.jpg","3",".","37","0","585"
"49","49","encoding","encoding","251","Fuse.jpg","3",".","37","0","505"
"49","49","encoding","encoding","252","Stove_Camping.jpg","3",".","37","0","572"
"49","49","encoding","encoding","253","Fuse.jpg","3",".","37","0","469"
"49","49","encoding","encoding","254","Sushi.jpg","1",".","36","0","741"
"49","49","encoding","encoding","255","PassionFruit.jpg","3",".","36","0","623"
"49","49","encoding","encoding","256","Chair_BeanBag.jpg","3",".","37","0","527"
"49","49","encoding","encoding","257","WindowBlinds.jpg","3",".","37","0","650"
"49","49","encoding","encoding","258","Steeple.jpg","3",".","37","0","481"
"49","49","encoding","encoding","259","Light_Siren.jpg","1",".","37","0","603"
"49","49","encoding","encoding","260","Knife_Hunting.jpg","3",".","37","0","596"
"49","49","encoding","encoding","261","TinChristmas.jpg","1",".","37","0","757"
"49","49","encoding","encoding","262","GPS.jpg","3",".","37","0","526"
"49","49","encoding","encoding","263","Teabag.jpg","3",".","37","0","615"
"49","49","encoding","encoding","265","Desk_School.jpg","3",".","37","0","637"
"49","49","encoding","encoding","266","Shoes_DutchClogs.jpg","1",".","37","0","566"
"49","49","encoding","encoding","267","Lilypad.jpg","3",".","37","0","383"
"49","49","encoding","encoding","268","Toy_GasPump.jpg","3",".","37","0","537"
"49","49","encoding","encoding","269","Helmet_Soldier.jpg","1",".","37","0","465"
"49","49","encoding","encoding","270","Cassette_Audio.jpg","3",".","37","0","523"
"49","49","encoding","encoding","271","MonkeyPuppet.jpg","3",".","37","0","524"
"49","49","encoding","encoding","272","Balalaika.jpg","3",".","37","0","517"
"49","49","encoding","encoding","273","DryRack_Dishes.jpg","3",".","37","0","542"
"49","49","encoding","encoding","274","BadgeSpecialAgent.jpg","3",".","37","0","423"
"49","49","encoding","encoding","275","Toy_StackingRing.jpg","3",".","37","0","584"
"49","49","encoding","encoding","276","Jar_JellyBeans.jpg","3",".","37","0","442"
"49","49","encoding","encoding","277","NailPolish.jpg","3",".","37","0","475"
"49","49","encoding","encoding","278","TeethMould.jpg","3",".","37","0","317"
"49","49","encoding","encoding","279","Knife_Hunting.jpg","3",".","37","0","568"
"49","49","encoding","encoding","280","Sign_Wetfloor.jpg","3",".","37","0","433"
"49","49","encoding","encoding","281","Candy_Chocolate.jpg","1",".","0","0","1000"
"49","49","encoding","encoding","282","Toy_StackingRing.jpg","3",".","37","0","490"
"49","49","encoding","encoding","283","Drink_Green.jpg","3",".","37","0","540"
"49","49","encoding","encoding","284","Spoon_Wooden.jpg","3",".","37","0","621"
"49","49","encoding","encoding","285","PaintBrushAndPallette.jpg","3",".","37","0","534"
"49","49","encoding","encoding","286","PaintBrushAndPallette.jpg","3",".","37","0","431"
"49","49","encoding","encoding","287","Guitarcase.jpg","3",".","37","0","537"
"49","49","encoding","encoding","288","IceCream_Chocolate.jpg","1",".","37","0","370"
"49","49","encoding","encoding","289","Trumpet.jpg","3",".","37","0","476"
"49","49","encoding","encoding","290","GasBurner.jpg","1",".","37","0","547"
"49","49","encoding","encoding","291","Megaphone.jpg","3",".","37","0","496"
"49","49","encoding","encoding","292","Speaker_OnStand.jpg","3",".","37","0","585"
"49","49","encoding","encoding","293","PaintRollTray.jpg","3",".","37","0","578"
"49","49","encoding","encoding","294","Car_Sedan.jpg","3",".","37","0","411"
"49","49","encoding","encoding","295","Candy_Heart.jpg","3",".","37","0","653"
"49","49","encoding","encoding","296","Megaphone.jpg","3",".","37","0","494"
"49","49","encoding","encoding","297","NeedlesAcupuncture.jpg","3",".","37","0","559"
"49","49","encoding","encoding","298","Ashtray_Empty.jpg","3",".","37","0","488"
"49","49","encoding","encoding","299","Notebook.jpg","1",".","37","0","385"
"49","49","encoding","encoding","300","Clip_Paper.jpg","3",".","37","0","474"
"49","49","encoding","encoding","301","Guitarcase.jpg","3",".","37","0","443"
"49","49","encoding","encoding","302","Saw.jpg","1",".","37","0","484"
"49","49","encoding","encoding","303","SculptureMetalFish.jpg","1",".","37","0","461"
"49","49","encoding","encoding","304","Candle_Blue.jpg","1",".","37","0","317"
"49","49","encoding","encoding","305","Glove_Rubber.jpg","3",".","37","0","431"
"49","49","encoding","encoding","306","Nyala.jpg","3",".","37","0","496"
"49","49","encoding","encoding","307","ButterDish.jpg","1",".","37","0","655"
"49","49","encoding","encoding","308","NailPolish.jpg","3",".","37","0","496"
"49","49","encoding","encoding","309","SmokeDetector.jpg","1",".","37","0","425"
"49","49","encoding","encoding","310","PassionFruit.jpg","3",".","37","0","362"
"49","49","encoding","encoding","311","Leaf_Clover.jpg","1",".","36","0","571"
"49","49","encoding","encoding","312","StringBean.jpg","3",".","36","0","564"
"49","49","encoding","encoding","313","Balalaika.jpg","3",".","37","0","554"
"49","49","encoding","encoding","314","MonkeyPuppet.jpg","3",".","37","0","523"
"49","49","encoding","encoding","315","Beater_Electric.jpg","3",".","37","0","636"
"49","49","encoding","encoding","316","Knee.jpg","3",".","36","0","630"
"49","49","encoding","encoding","317","Box_Floral.jpg","3",".","37","0","691"
"49","49","encoding","encoding","318","Bathtub.jpg","1",".","37","0","428"
"49","49","encoding","encoding","319","Pineapple.jpg","3",".","36","0","709"
"49","49","encoding","encoding","320","Spoon_Wooden.jpg","3",".","37","0","533"
"49","49","encoding","encoding","321","CameoPortrait.jpg","1",".","37","0","758"
"49","49","encoding","encoding","322","JukeboxAntique.jpg","3",".","37","0","591"
"49","49","encoding","encoding","323","Cherry.jpg","3",".","36","0","657"
"49","49","encoding","encoding","324","PuppetTheatre_WhiteGold.jpg","3",".","37","0","602"
"49","49","encoding","encoding","325","Lollipop_Grape.jpg","",".","0","0","1000"
"49","49","retrieval","old_object","1","MouthGuard.jpg",".","3","0","0","2000"
"49","49","retrieval","new_object","2","Glass_Cup.jpg",".",".","37","1","1004"
"49","49","retrieval","new_object","3","Loofa.jpg",".",".","37","1","637"
"49","49","retrieval","old_object","4","Mango.jpg",".","1","36","1","974"
"49","49","retrieval","new_object","5","Tofu.jpg",".",".","37","1","1287"
"49","49","retrieval","old_object","6","Toy_Shapesorter.jpg",".","1","36","1","871"
"49","49","retrieval","old_object","7","PaintRollTray.jpg",".","3","36","1","945"
"49","49","retrieval","old_object","8","Jar_JellyBeans.jpg",".","3","36","1","666"
"49","49","retrieval","old_object","9","Candy_Heart.jpg",".","3","36","1","780"
"49","49","retrieval","old_object","10","Fish_Rockbass.jpg",".","1","36","1","885"
"49","49","retrieval","new_object","11","BoogieBoard.jpg",".",".","37","1","734"
"49","49","retrieval","new_object","12","Fridge.jpg",".",".","37","1","1343"
"49","49","retrieval","old_object","13","SmokeDetector.jpg",".","1","36","1","816"
"49","49","retrieval","new_object","14","Icepick.jpg",".",".","37","1","934"
"49","49","retrieval","new_object","15","Cross.jpg",".",".","37","1","814"
"49","49","retrieval","new_object","16","SundaeBanana.jpg",".",".","37","1","695"
"49","49","retrieval","new_object","17","Thermos_MetalSleek.jpg",".",".","37","1","1079"
"49","49","retrieval","old_object","18","Bottle_Blue.jpg",".","3","36","1","593"
"49","49","retrieval","new_object","19","BicycleChain.jpg",".",".","37","1","649"
"49","49","retrieval","old_object","20","Keg.jpg",".","1","36","1","1275"
"49","49","retrieval","new_object","21","Flower_Hibiscus.jpg",".",".","37","1","899"
"49","49","retrieval","new_object","22","ContactLens.jpg",".",".","37","1","892"
"49","49","retrieval","new_object","23","Cannister_Gas.jpg",".",".","37","1","741"
"49","49","retrieval","new_object","24","Spatula_1.jpg",".",".","37","1","998"
"49","49","retrieval","new_object","25","MobilityScooter.jpg",".",".","37","1","791"
"49","49","retrieval","old_object","26","Car_Sedan.jpg",".","3","36","1","809"
"49","49","retrieval","old_object","27","Saw.jpg",".","1","36","1","670"
"49","49","retrieval","new_object","28","Carbiner_Ascender.jpg",".",".","36","0","1174"
"49","49","retrieval","old_object","29","Chair_BeanBag.jpg",".","3","36","1","712"
"49","49","retrieval","old_object","30","Beater_Electric.jpg",".","3","36","1","681"
"49","49","retrieval","new_object","31","Boxcutter.jpg",".",".","37","1","762"
"49","49","retrieval","new_object","32","Toy_SeeSaw.jpg",".",".","37","1","730"
"49","49","retrieval","new_object","33","ReindeerHeadband.jpg",".",".","37","1","627"
"49","49","retrieval","old_object","34","Dress_Party.jpg",".","1","36","1","813"
"49","49","retrieval","old_object","35","DentistOverheadLight.jpg",".","1","36","1","1054"
"49","49","retrieval","new_object","36","OnionRed.jpg",".",".","37","1","686"
"49","49","retrieval","old_object","37","ButterDish.jpg",".","1","36","1","1072"
"49","49","retrieval","new_object","38","Truck_Dump.jpg",".",".","37","1","642"
"49","49","retrieval","new_object","39","Switch_LightWhite.jpg",".",".","37","1","905"
"49","49","retrieval","new_object","40","ChessPiece_Knight.jpg",".",".","37","1","666"
"49","49","retrieval","old_object","41","PaintBrushAndPallette.jpg",".","3","36","1","858"
"49","49","retrieval","old_object","42","Teabag.jpg",".","3","36","1","716"
"49","49","retrieval","new_object","43","Hawk.jpg",".",".","37","1","637"
"49","49","retrieval","new_object","44","Gorilla.jpg",".",".","37","1","1269"
"49","49","retrieval","old_object","45","Candy_Chocolate.jpg",".","1","36","1","1014"
"49","49","retrieval","old_object","46","BusStop.jpg",".","1","36","1","823"
"49","49","retrieval","old_object","47","TinChristmas.jpg",".","1","37","0","769"
"49","49","retrieval","new_object","48","Iron_Antique.jpg",".",".","37","1","1009"
"49","49","retrieval","old_object","49","Autocreeper.jpg",".","1","36","1","786"
"49","49","retrieval","old_object","50","Pants_Jeans.jpg",".","1","36","1","835"
"49","49","retrieval","old_object","51","GPS.jpg",".","3","36","1","644"
"49","49","retrieval","new_object","52","Decoration_WallOrnament.jpg",".",".","37","1","750"
"49","49","retrieval","new_object","53","Radio_Vintage.jpg",".",".","37","1","904"
"49","49","retrieval","new_object","54","Flower_Orchid.jpg",".",".","37","1","809"
"49","49","retrieval","old_object","55","Mitt_Oven.jpg",".","1","36","1","706"
"49","49","retrieval","new_object","56","Wheel_Steering.jpg",".",".","37","1","747"
"49","49","retrieval","old_object","57","Toy_Moose.jpg",".","3","36","1","866"
"49","49","retrieval","old_object","58","Stove_Camping.jpg",".","3","37","0","715"
"49","49","retrieval","new_object","59","GranolaBar.jpg",".",".","37","1","917"
"49","49","retrieval","old_object","60","CookieCutter_Bell.jpg",".","1","37","0","774"
"49","49","retrieval","new_object","61","Beaker.jpg",".",".","37","1","735"
"49","49","retrieval","old_object","62","DoorBell.jpg",".","1","36","1","936"
"49","49","retrieval","old_object","63","Trophy.jpg",".","3","36","1","625"
"49","49","retrieval","old_object","64","SculptureMetalFish.jpg",".","1","36","1","659"
"49","49","retrieval","new_object","65","KitchenTools.jpg",".",".","37","1","763"
"49","49","retrieval","new_object","67","Hoverboard.jpg",".",".","37","1","1141"
"49","49","retrieval","old_object","68","Almond.jpg",".","1","36","1","677"
"49","49","retrieval","old_object","69","MonkeyPuppet.jpg",".","3","36","1","1174"
"49","49","retrieval","new_object","70","Toy_TableSet.jpg",".",".","37","1","751"
"49","49","retrieval","old_object","71","FireExtinguisher.jpg",".","1","36","1","767"
"49","49","retrieval","new_object","72","Bell_Hand.jpg",".",".","37","1","904"
"49","49","retrieval","new_object","73","RibbonSpool.jpg",".",".","36","0","601"
"49","49","retrieval","new_object","74","SkullDeer.jpg",".",".","37","1","1090"
"49","49","retrieval","new_object","75","CartonEggs.jpg",".",".","37","1","795"
"49","49","retrieval","new_object","76","Sock_Ankle.jpg",".",".","37","1","763"
"49","49","retrieval","old_object","77","LeatherPuncherTool.jpg",".","3","36","1","1053"
"49","49","retrieval","old_object","78","Sign_Parking.jpg",".","3","36","1","574"
"49","49","retrieval","old_object","79","Bowl_Chinese.jpg",".","3","36","1","591"
"49","49","retrieval","old_object","80","DoorKnob.jpg",".","3","36","1","609"
"49","49","retrieval","old_object","81","Pipe_Drain.jpg",".","1","36","1","682"
"49","49","retrieval","new_object","82","Comb.jpg",".",".","37","1","811"
"49","49","retrieval","new_object","83","Pig.jpg",".",".","37","1","1363"
"49","49","retrieval","new_object","84","SmokingPipe.jpg",".",".","37","1","780"
"49","49","retrieval","new_object","85","Telescope.jpg",".",".","37","1","652"
"49","49","retrieval","new_object","86","Boardgame_Checkers.jpg",".",".","37","1","845"
"49","49","retrieval","old_object","87","HairDryer.jpg",".","1","36","1","886"
"49","49","retrieval","new_object","88","TireRims.jpg",".",".","37","1","702"
"49","49","retrieval","new_object","89","Case_DVD.jpg",".",".","37","1","703"
"49","49","retrieval","new_object","90","CuttingBoard.jpg",".",".","37","1","792"
"49","49","retrieval","old_object","91","Chest.jpg",".","1","36","1","858"
"49","49","retrieval","new_object","92","Paddle_Beach.jpg",".",".","37","1","667"
"49","49","retrieval","new_object","93","BloodpPresureCuff.jpg",".",".","37","1","834"
"49","49","retrieval","new_object","94","Tire_Hollow.jpg",".",".","37","1","843"
"49","49","retrieval","old_object","95","Table_Poker.jpg",".","1","36","1","796"
"49","49","retrieval","new_object","96","ToothPaste.jpg",".",".","37","1","757"
"49","49","retrieval","new_object","97","Ball_8.jpg",".",".","37","1","1430"
"49","49","retrieval","old_object","98","WindowBlinds.jpg",".","3","36","1","815"
"49","49","retrieval","new_object","99","Brace_Back.jpg",".",".","37","1","952"
"49","49","retrieval","old_object","100","Toy_Witch.jpg",".","3","36","1","1368"
"49","49","retrieval","old_object","101","Pineapple.jpg",".","3","36","1","865"
"49","49","retrieval","old_object","102","Thermostat_Digital.jpg",".","1","36","1","763"
"49","49","retrieval","new_object","103","Toy_DollOffice.jpg",".",".","37","1","803"
"49","49","retrieval","new_object","104","FlipFlop_PairBlue.jpg",".",".","37","1","861"
"49","49","retrieval","old_object","105","BottleOpener.jpg",".","1","36","1","1238"
"49","49","retrieval","new_object","106","Crib_Basket.jpg",".",".","37","1","799"
"49","49","retrieval","new_object","107","Outhouse.jpg",".",".","37","1","791"
"49","49","retrieval","new_object","108","PropellerFan.jpg",".",".","37","1","664"
"49","49","retrieval","old_object","109","CandyDispenser.jpg",".","1","36","1","1497"
"49","49","retrieval","old_object","110","Bird_Cardinal.jpg",".","3","36","1","618"
"49","49","retrieval","new_object","111","Brooch_Fish.jpg",".",".","37","1","698"
"49","49","retrieval","old_object","112","Phone_Wireless.jpg",".","3","36","1","892"
"49","49","retrieval","new_object","113","DrillBit.jpg",".",".","37","1","875"
"49","49","retrieval","old_object","114","Flamingo_Cartoon.jpg",".","1","36","1","900"
"49","49","retrieval","new_object","115","Ball_Disco.jpg",".",".","37","1","797"
"49","49","retrieval","old_object","116","Cassette_Audio.jpg",".","3","36","1","950"
"49","49","retrieval","new_object","117","Bomb.jpg",".",".","37","1","743"
"49","49","retrieval","new_object","118","Pipe.jpg",".",".","37","1","1168"
"49","49","retrieval","old_object","119","DogTreat.jpg",".","1","36","1","1065"
"49","49","retrieval","old_object","120","IceCrusher.jpg",".","3","36","1","826"
"49","49","retrieval","new_object","121","Bottle_BubbleBlower.jpg",".",".","36","0","875"
"49","49","retrieval","old_object","122","Lollipop_Grape.jpg",".","1","36","1","708"
"49","49","retrieval","old_object","123","Cake_Wedding.jpg",".","1","36","1","742"
"49","49","retrieval","old_object","124","MonaLisa.jpg",".","1","36","1","615"
"49","49","retrieval","new_object","125","Lighter_Yellow.jpg",".",".","37","1","791"
"49","49","retrieval","new_object","126","Chinchilla.jpg",".",".","37","1","584"
"49","49","retrieval","old_object","127","Speaker_OnStand.jpg",".","3","36","1","1041"
"49","49","retrieval","old_object","128","Generator.jpg",".","3","36","1","634"
"49","49","retrieval","old_object","129","Flute_Wooden.jpg",".","1","36","1","735"
"49","49","retrieval","new_object","130","Crutches.jpg",".",".","37","1","721"
"49","49","retrieval","old_object","131","Hourglass.jpg",".","3","36","1","649"
"49","49","retrieval","new_object","133","Cabinet_Office.jpg",".",".","37","1","959"
"49","49","retrieval","new_object","134","Glass_Martini.jpg",".",".","37","1","591"
"49","49","retrieval","new_object","135","Toy_PoliceCar.jpg",".",".","37","1","728"
"49","49","retrieval","new_object","136","Tape_Washi.jpg",".",".","37","1","554"
"49","49","retrieval","old_object","137","PotatoMasher_Zigzag.jpg",".","3","36","1","762"
"49","49","retrieval","old_object","138","Clip_Paper.jpg",".","3","36","1","571"
"49","49","retrieval","new_object","139","Currants.jpg",".",".","37","1","643"
"49","49","retrieval","new_object","140","DivingBoard.jpg",".",".","37","1","941"
"49","49","retrieval","old_object","141","Balalaika.jpg",".","3","37","0","806"
"49","49","retrieval","new_object","142","Pajamas.jpg",".",".","37","1","903"
"49","49","retrieval","new_object","143","Hazelnut.jpg",".",".","37","1","1040"
"49","49","retrieval","new_object","144","Jar_Cotton.jpg",".",".","37","1","664"
"49","49","retrieval","new_object","145","Toy_Lighthouse.jpg",".",".","37","1","601"
"49","49","retrieval","old_object","146","BicycleBrake.jpg",".","1","36","1","818"
"49","49","retrieval","new_object","147","Socks_Winter.jpg",".",".","36","0","1089"
"49","49","retrieval","old_object","148","Bellows.jpg",".","3","36","1","580"
"49","49","retrieval","old_object","149","Sushi.jpg",".","1","36","1","687"
"49","49","retrieval","old_object","150","DryRack_Dishes.jpg",".","3","36","1","608"
"49","49","retrieval","old_object","151","Knife_Hunting.jpg",".","3","36","1","641"
"49","49","retrieval","old_object","152","BicycleHandleGrip.jpg",".","1","36","1","587"
"49","49","retrieval","old_object","153","Guitarcase.jpg",".","3","36","1","644"
"49","49","retrieval","old_object","154","Lilypad.jpg",".","3","36","1","644"
"49","49","retrieval","new_object","155","Knife_Butter.jpg",".",".","37","1","805"
"49","49","retrieval","old_object","156","BicyclePedal.jpg",".","3","36","1","750"
"49","49","retrieval","new_object","157","Cage_Bird.jpg",".",".","37","1","831"
"49","49","retrieval","old_object","158","Bathtub.jpg",".","1","36","1","737"
"49","49","retrieval","new_object","159","CoffeeGrinder.jpg",".",".","37","1","724"
"49","49","retrieval","old_object","160","Trumpet.jpg",".","3","36","1","877"
"49","49","retrieval","new_object","161","Arch.jpg",".",".","37","1","670"
"49","49","retrieval","old_object","162","Toy_StackingRing.jpg",".","3","36","1","781"
"49","49","retrieval","new_object","163","Sink_Bathroom.jpg",".",".","36","0","639"
"49","49","retrieval","new_object","164","Chipmunk.jpg",".",".","37","1","935"
"49","49","retrieval","new_object","165","SafetyPin.jpg",".",".","37","1","953"
"49","49","retrieval","new_object","166","Bottle_Specimen.jpg",".",".","37","1","745"
"49","49","retrieval","old_object","167","Nyala.jpg",".","3","36","1","955"
"49","49","retrieval","old_object","168","Bottle_Wine.jpg",".","1","36","1","836"
"49","49","retrieval","old_object","169","Candle_Blue.jpg",".","1","37","0","901"
"49","49","retrieval","new_object","170","Syrup_Maple.jpg",".",".","37","1","798"
"49","49","retrieval","new_object","171","Box_Present.jpg",".",".","37","1","911"
"49","49","retrieval","new_object","172","Pen_Ballpoint.jpg",".",".","37","1","770"
"49","49","retrieval","old_object","173","WashRack.jpg",".","1","36","1","906"
"49","49","retrieval","new_object","174","House_Rural.jpg",".",".","37","1","595"
"49","49","retrieval","old_object","175","Hook_Fish.jpg",".","3","36","1","1253"
"49","49","retrieval","new_object","176","Bugle.jpg",".",".","37","1","718"
"49","49","retrieval","old_object","177","Drink_Green.jpg",".","3","36","1","999"
"49","49","retrieval","new_object","178","Tweezers.jpg",".",".","37","1","692"
"49","49","retrieval","old_object","179","Mat_Door.jpg",".","3","36","1","1024"
"49","49","retrieval","old_object","180","Cherry.jpg",".","3","36","1","673"
"49","49","retrieval","old_object","181","IceCream_Chocolate.jpg",".","1","0","0","2000"
"49","49","retrieval","old_object","182","StringBean.jpg",".","3","36","1","675"
"49","49","retrieval","old_object","183","NailPolish.jpg",".","3","36","1","877"
"49","49","retrieval","old_object","184","Chest_Toys.jpg",".","3","36","1","646"
"49","49","retrieval","old_object","185","NintendoWii.jpg",".","3","36","1","640"
"49","49","retrieval","new_object","186","Pot_Cooking.jpg",".",".","37","1","1001"
"49","49","retrieval","new_object","187","PaintRoller.jpg",".",".","36","0","858"
"49","49","retrieval","old_object","188","Megaphone.jpg",".","3","36","1","635"
"49","49","retrieval","old_object","189","Skates.jpg",".","3","36","1","600"
"49","49","retrieval","new_object","190","Sign_TrafficArrow.jpg",".",".","36","0","569"
"49","49","retrieval","new_object","191","BicycleGear.jpg",".",".","37","1","1241"
"49","49","retrieval","old_object","192","Goose_Canadian.jpg",".","3","36","1","699"
"49","49","retrieval","new_object","193","Kite_Rainbow.jpg",".",".","37","1","721"
"49","49","retrieval","new_object","194","ElasticBand.jpg",".",".","37","1","737"
"49","49","retrieval","old_object","195","Apple_RedAndGreen.jpg",".","1","36","1","1289"
"49","49","retrieval","old_object","196","Pitcher.jpg",".","1","37","0","786"
"49","49","retrieval","new_object","197","Hockey_Equipment.jpg",".",".","37","1","690"
"49","49","retrieval","new_object","199","Microphone.jpg",".",".","37","1","1568"
"49","49","retrieval","old_object","200","Cup_Styrofoam.jpg",".","3","36","1","753"
"49","49","retrieval","new_object","201","Waffle.jpg",".",".","37","1","1145"
"49","49","retrieval","old_object","202","PassionFruit.jpg",".","3","36","1","670"
"49","49","retrieval","new_object","203","Statue_VirginMary.jpg",".",".","37","1","791"
"49","49","retrieval","old_object","204","Knee.jpg",".","3","36","1","792"
"49","49","retrieval","old_object","205","Shoes_DutchClogs.jpg",".","1","36","1","1330"
"49","49","retrieval","old_object","206","Toy_BlocksPlastic Colourful.jpg",".","1","37","0","761"
"49","49","retrieval","new_object","207","LampPost_OneBulb.jpg",".",".","37","1","674"
"49","49","retrieval","new_object","208","CookieCutter_Tree.jpg",".",".","37","1","1227"
"49","49","retrieval","new_object","209","Baster.jpg",".",".","37","1","564"
"49","49","retrieval","new_object","210","AnsweringMachine.jpg",".",".","37","1","725"
"49","49","retrieval","new_object","211","Drum_Brazilan.jpg",".",".","37","1","685"
"49","49","retrieval","old_object","212","CameoPortrait.jpg",".","1","36","1","967"
"49","49","retrieval","old_object","213","Mattress.jpg",".","3","36","1","783"
"49","49","retrieval","old_object","214","Desk_School.jpg",".","3","36","1","744"
"49","49","retrieval","old_object","215","Fruit_Cactus.jpg",".","1","36","1","830"
"49","49","retrieval","old_object","216","Bullet.jpg",".","3","36","1","697"
"49","49","retrieval","old_object","217","Sign_Wetfloor.jpg",".","3","36","1","635"
"49","49","retrieval","new_object","218","Broom_Long.jpg",".",".","37","1","691"
"49","49","retrieval","old_object","219","Mop.jpg",".","1","36","1","906"
"49","49","retrieval","old_object","220","Tortilla.jpg",".","3","36","1","788"
"49","49","retrieval","old_object","221","JukeboxAntique.jpg",".","3","36","1","757"
"49","49","retrieval","old_object","222","Chair_MedicalToilet.jpg",".","1","36","1","860"
"49","49","retrieval","new_object","223","Shield_Antique.jpg",".",".","36","0","582"
"49","49","retrieval","old_object","224","Light_Siren.jpg",".","1","37","0","821"
"49","49","retrieval","new_object","225","Toolbox_RedOpen.jpg",".",".","37","1","662"
"49","49","retrieval","old_object","226","Fortress.jpg",".","1","36","1","711"
"49","49","retrieval","new_object","227","Lamp_TableWhite.jpg",".",".","37","1","688"
"49","49","retrieval","old_object","228","Toy_GasPump.jpg",".","3","36","1","705"
"49","49","retrieval","old_object","229","Ashtray_Empty.jpg",".","3","36","1","632"
"49","49","retrieval","old_object","230","BadgeSpecialAgent.jpg",".","3","36","1","578"
"49","49","retrieval","new_object","231","CrepeMaker.jpg",".",".","37","1","826"
"49","49","retrieval","new_object","232","PaperStack.jpg",".",".","37","1","810"
"49","49","retrieval","old_object","233","Hippopotamus.jpg",".","3","36","1","667"
"49","49","retrieval","old_object","234","Mask_Happy.jpg",".","1","36","1","971"
"49","49","retrieval","old_object","235","GasBurner.jpg",".","1","36","1","900"
"49","49","retrieval","new_object","236","Seashell_AlternateTellin.jpg",".",".","37","1","765"
"49","49","retrieval","old_object","237","Oyster.jpg",".","3","36","1","709"
"49","49","retrieval","old_object","238","Spoon_Wooden.jpg",".","3","36","1","735"
"49","49","retrieval","new_object","239","SewingMachine.jpg",".",".","37","1","816"
"49","49","retrieval","old_object","240","Tickets_Blank.jpg",".","3","36","1","833"
"49","49","retrieval","new_object","241","PedestalGreek.jpg",".",".","37","1","688"
"49","49","retrieval","new_object","242","Box_FirstAidOpen.jpg",".",".","37","1","817"
"49","49","retrieval","new_object","243","PanCooking.jpg",".",".","37","1","903"
"49","49","retrieval","old_object","244","TartStrawberry.jpg",".","3","36","1","712"
"49","49","retrieval","old_object","245","Helmet_Construction.jpg",".","1","36","1","1711"
"49","49","retrieval","new_object","246","Boots_KneeHigh.jpg",".",".","37","1","625"
"49","49","retrieval","old_object","247","Helmet_Soldier.jpg",".","1","36","1","1498"
"49","49","retrieval","new_object","248","Strainer_Tea.jpg",".",".","37","1","714"
"49","49","retrieval","old_object","249","Colander.jpg",".","1","36","1","811"
