"group","subject","blockcode","trialcode","trialnum","stimulus","encoding_condition","old_object_condition","response","correct","latency"
"11","11","encoding","encoding","1","HairBand.jpg","3",".","0","0","1000"
"11","11","encoding","encoding","2","Bus_DoubleDecker.jpg","3",".","0","0","1000"
"11","11","encoding","encoding","3","Notepad.jpg","3",".","37","0","183"
"11","11","encoding","encoding","4","Suit_Women.jpg","1",".","37","0","841"
"11","11","encoding","encoding","5","Canister_Tea.jpg","3",".","37","0","593"
"11","11","encoding","encoding","6","Box_WoodCrate.jpg","3",".","37","0","846"
"11","11","encoding","encoding","7","ComputerKey_Escape.jpg","1",".","0","0","1000"
"11","11","encoding","encoding","8","Toy_TrailerAirport.jpg","3",".","37","0","709"
"11","11","encoding","encoding","9","Tape_Dispenser.jpg","3",".","0","0","1000"
"11","11","encoding","encoding","10","FuzzyDice.jpg","1",".","37","0","712"
"11","11","encoding","encoding","11","Pouch_Red.jpg","3",".","37","0","734"
"11","11","encoding","encoding","12","Sign_SlipperyRoad.jpg","3",".","37","0","630"
"11","11","encoding","encoding","13","FlintIgniter.jpg","3",".","37","0","713"
"11","11","encoding","encoding","14","Otoscope.jpg","3",".","37","0","899"
"11","11","encoding","encoding","15","Dragonfly.jpg","3",".","36","0","594"
"11","11","encoding","encoding","16","CDstack.jpg","1",".","37","0","703"
"11","11","encoding","encoding","17","Coral.jpg","3",".","36","0","490"
"11","11","encoding","encoding","18","Snowpea.jpg","1",".","36","0","566"
"11","11","encoding","encoding","19","Toy_Christmastree.jpg","3",".","37","0","608"
"11","11","encoding","encoding","20","TowelRack_Metal.jpg","3",".","37","0","466"
"11","11","encoding","encoding","21","Car_Buggy.jpg","1",".","37","0","577"
"11","11","encoding","encoding","22","Blueberry.jpg","3",".","36","0","499"
"11","11","encoding","encoding","23","MatchBook.jpg","3",".","37","0","451"
"11","11","encoding","encoding","24","Ginger.jpg","1",".","36","0","513"
"11","11","encoding","encoding","25","Carrot.jpg","3",".","36","0","527"
"11","11","encoding","encoding","26","Clippers_Glass.jpg","3",".","37","0","564"
"11","11","encoding","encoding","27","Coral.jpg","3",".","36","0","451"
"11","11","encoding","encoding","28","Bag_Toiletry.jpg","3",".","37","0","444"
"11","11","encoding","encoding","29","Boat_Colourful.jpg","3",".","37","0","404"
"11","11","encoding","encoding","30","Stool_Camping.jpg","1",".","37","0","483"
"11","11","encoding","encoding","31","Match.jpg","3",".","37","0","524"
"11","11","encoding","encoding","32","Toy_Firetruck.jpg","1",".","37","0","421"
"11","11","encoding","encoding","33","Toy_DonkeyFur.jpg","3",".","36","0","833"
"11","11","encoding","encoding","34","HairClipper.jpg","1",".","37","0","479"
"11","11","encoding","encoding","35","Case_CD.jpg","3",".","37","0","618"
"11","11","encoding","encoding","36","Stick_Stirring.jpg","3",".","37","0","616"
"11","11","encoding","encoding","37","Shoes_Mould.jpg","3",".","37","0","719"
"11","11","encoding","encoding","38","Ruler_Wooden.jpg","3",".","37","0","506"
"11","11","encoding","encoding","39","PersonWooden.jpg","1",".","37","0","594"
"11","11","encoding","encoding","40","Paddle_Ball.jpg","3",".","37","0","506"
"11","11","encoding","encoding","41","Mitt_Blue.jpg","1",".","37","0","519"
"11","11","encoding","encoding","42","TreeStump.jpg","3",".","36","0","445"
"11","11","encoding","encoding","43","Shoes_Mould.jpg","3",".","37","0","730"
"11","11","encoding","encoding","44","Ruler_Wooden.jpg","3",".","37","0","542"
"11","11","encoding","encoding","45","LintRemover.jpg","1",".","37","0","475"
"11","11","encoding","encoding","46","Bucket_WoodenLight.jpg","3",".","37","0","513"
"11","11","encoding","encoding","47","TowelRack_Metal.jpg","3",".","37","0","423"
"11","11","encoding","encoding","48","WalkieTalkie_Yellow.jpg","3",".","37","0","421"
"11","11","encoding","encoding","49","Neckrest.jpg","3",".","37","0","433"
"11","11","encoding","encoding","50","Cheeseburger.jpg","3",".","36","0","617"
"11","11","encoding","encoding","51","Shirt_Tshirt.jpg","3",".","37","0","520"
"11","11","encoding","encoding","52","Piano_Upright.jpg","1",".","37","0","889"
"11","11","encoding","encoding","53","Flashlight.jpg","3",".","37","0","546"
"11","11","encoding","encoding","54","Camera_Video.jpg","1",".","37","0","413"
"11","11","encoding","encoding","55","Paddle_Ball.jpg","3",".","37","0","393"
"11","11","encoding","encoding","56","Fan_Straw.jpg","1",".","37","0","578"
"11","11","encoding","encoding","57","Toy_TrailerAirport.jpg","3",".","37","0","375"
"11","11","encoding","encoding","58","Lynx.jpg","3",".","36","0","443"
"11","11","encoding","encoding","59","Decoration_ChristmasWhite.jpg","3",".","37","0","421"
"11","11","encoding","encoding","60","Glove_Baseball.jpg","1",".","37","0","565"
"11","11","encoding","encoding","61","PowderProtein.jpg","3",".","37","0","518"
"11","11","encoding","encoding","62","PowderProtein.jpg","3",".","37","0","456"
"11","11","encoding","encoding","63","ShinPads.jpg","3",".","37","0","409"
"11","11","encoding","encoding","64","Toy_BearBrownPlushie.jpg","3",".","36","0","417"
"11","11","encoding","encoding","65","Squash_Butternut.jpg","3",".","36","0","617"
"11","11","encoding","encoding","67","Ruler_Wooden.jpg","3",".","37","0","573"
"11","11","encoding","encoding","68","Notepad.jpg","3",".","37","0","437"
"11","11","encoding","encoding","69","Nail.jpg","1",".","37","0","431"
"11","11","encoding","encoding","70","Stick_Stirring.jpg","3",".","37","0","441"
"11","11","encoding","encoding","71","Helicopter.jpg","3",".","37","0","422"
"11","11","encoding","encoding","72","Toy_BeadMaze.jpg","3",".","37","0","436"
"11","11","encoding","encoding","73","BrainSagittal.jpg","3",".","36","0","713"
"11","11","encoding","encoding","74","Walkman.jpg","3",".","37","0","536"
"11","11","encoding","encoding","75","Jars_PetFood.jpg","3",".","37","0","506"
"11","11","encoding","encoding","76","Hat_Police.jpg","1",".","37","0","577"
"11","11","encoding","encoding","77","BrainSagittal.jpg","3",".","36","0","507"
"11","11","encoding","encoding","78","TelescopeSpacecraft.jpg","1",".","37","0","457"
"11","11","encoding","encoding","79","Coral.jpg","3",".","37","0","422"
"11","11","encoding","encoding","80","WaterCooler.jpg","3",".","37","0","573"
"11","11","encoding","encoding","81","Flashlight.jpg","3",".","37","0","559"
"11","11","encoding","encoding","82","Paddle_Canoe.jpg","3",".","37","0","474"
"11","11","encoding","encoding","83","Lynx.jpg","3",".","36","0","413"
"11","11","encoding","encoding","84","Paddle_Canoe.jpg","3",".","37","0","414"
"11","11","encoding","encoding","85","Card_Deck.jpg","1",".","37","0","580"
"11","11","encoding","encoding","86","ShoeLace_Flat.jpg","3",".","37","0","742"
"11","11","encoding","encoding","87","TowelRack_Brown.jpg","3",".","37","0","540"
"11","11","encoding","encoding","88","Toy_Ladybug.jpg","3",".","37","0","797"
"11","11","encoding","encoding","89","TowelRack_Metal.jpg","3",".","37","0","406"
"11","11","encoding","encoding","90","BrainSagittal.jpg","3",".","36","0","513"
"11","11","encoding","encoding","91","Celery.jpg","1",".","36","0","790"
"11","11","encoding","encoding","92","VinylRecord.jpg","1",".","37","0","475"
"11","11","encoding","encoding","93","Drum_Ramadan.jpg","1",".","37","0","506"
"11","11","encoding","encoding","94","Broccoli.jpg","3",".","36","0","511"
"11","11","encoding","encoding","95","Toy_Ladybug.jpg","3",".","37","0","492"
"11","11","encoding","encoding","96","Toy_Wooden rings.jpg","1",".","37","0","397"
"11","11","encoding","encoding","97","Helicopter.jpg","3",".","37","0","444"
"11","11","encoding","encoding","98","Squash_Butternut.jpg","3",".","36","0","475"
"11","11","encoding","encoding","99","BowlingPin.jpg","3",".","37","0","400"
"11","11","encoding","encoding","100","Stone_Spa.jpg","3",".","36","0","632"
"11","11","encoding","encoding","101","MatchBook.jpg","3",".","37","0","441"
"11","11","encoding","encoding","102","Toy_Bat.jpg","1",".","36","0","549"
"11","11","encoding","encoding","103","Coin.jpg","3",".","37","0","580"
"11","11","encoding","encoding","104","Desk_Office.jpg","3",".","37","0","561"
"11","11","encoding","encoding","105","Coin.jpg","3",".","37","0","618"
"11","11","encoding","encoding","106","DeepFryer.jpg","1",".","37","0","531"
"11","11","encoding","encoding","107","Pretzel_Sticks.jpg","1",".","36","0","663"
"11","11","encoding","encoding","108","GrillRack.jpg","1",".","37","0","549"
"11","11","encoding","encoding","109","Computer_ExpansionCard.jpg","3",".","37","0","811"
"11","11","encoding","encoding","110","Suitcase.jpg","3",".","37","0","585"
"11","11","encoding","encoding","111","ColoringSet.jpg","1",".","37","0","466"
"11","11","encoding","encoding","112","NailFiles.jpg","1",".","37","0","538"
"11","11","encoding","encoding","113","Puzzle_Animal.jpg","1",".","37","0","928"
"11","11","encoding","encoding","114","Bus_DoubleDecker.jpg","3",".","37","0","457"
"11","11","encoding","encoding","115","Box_Cutlery.jpg","1",".","37","0","423"
"11","11","encoding","encoding","116","BowlingPin.jpg","3",".","37","0","676"
"11","11","encoding","encoding","117","WaterCooler.jpg","3",".","37","0","511"
"11","11","encoding","encoding","118","Card_TwoSpade.jpg","1",".","37","0","539"
"11","11","encoding","encoding","119","Backhoe.jpg","3",".","37","0","527"
"11","11","encoding","encoding","120","Squash_Butternut.jpg","3",".","36","0","512"
"11","11","encoding","encoding","121","Toy_BeadMaze.jpg","3",".","37","0","393"
"11","11","encoding","encoding","122","Lynx.jpg","3",".","37","0","440"
"11","11","encoding","encoding","123","Speakers_Theatre.jpg","1",".","37","0","568"
"11","11","encoding","encoding","124","Dog_Bulldog.jpg","3",".","36","0","440"
"11","11","encoding","encoding","125","Decoration_ChristmasWhite.jpg","3",".","37","0","403"
"11","11","encoding","encoding","126","TreeStump.jpg","3",".","36","0","481"
"11","11","encoding","encoding","127","PowderProtein.jpg","3",".","37","0","438"
"11","11","encoding","encoding","128","Lobster.jpg","3",".","37","0","717"
"11","11","encoding","encoding","129","IroningBoard.jpg","1",".","37","0","568"
"11","11","encoding","encoding","130","Pouch_Red.jpg","3",".","37","0","656"
"11","11","encoding","encoding","131","Seeder.jpg","1",".","37","0","497"
"11","11","encoding","encoding","133","Snorkle.jpg","1",".","37","0","542"
"11","11","encoding","encoding","134","ClothesDryingRack.jpg","1",".","37","0","470"
"11","11","encoding","encoding","135","ShoeLace_Flat.jpg","3",".","37","0","458"
"11","11","encoding","encoding","136","Heater_ElectricUpright.jpg","3",".","37","0","474"
"11","11","encoding","encoding","137","Match.jpg","3",".","37","0","493"
"11","11","encoding","encoding","138","Pyramid.jpg","3",".","36","0","587"
"11","11","encoding","encoding","139","Canister_Tea.jpg","3",".","37","0","572"
"11","11","encoding","encoding","140","Sphinx.jpg","3",".","37","0","791"
"11","11","encoding","encoding","141","Protractor.jpg","1",".","37","0","482"
"11","11","encoding","encoding","142","Bowl_Chopsticks.jpg","1",".","37","0","419"
"11","11","encoding","encoding","143","ShinPads.jpg","3",".","37","0","543"
"11","11","encoding","encoding","144","Ostrich.jpg","3",".","36","0","506"
"11","11","encoding","encoding","145","Coin.jpg","3",".","37","0","434"
"11","11","encoding","encoding","146","Sign_SlipperyRoad.jpg","3",".","37","0","522"
"11","11","encoding","encoding","147","Broccoli.jpg","3",".","36","0","575"
"11","11","encoding","encoding","148","Toy_Christmastree.jpg","3",".","37","0","639"
"11","11","encoding","encoding","149","Suitcase.jpg","3",".","37","0","437"
"11","11","encoding","encoding","150","Tray_Metal.jpg","3",".","37","0","466"
"11","11","encoding","encoding","151","Computer_ExpansionCard.jpg","3",".","37","0","439"
"11","11","encoding","encoding","152","Scorpion.jpg","3",".","36","0","483"
"11","11","encoding","encoding","153","Sphinx.jpg","3",".","37","0","472"
"11","11","encoding","encoding","154","Toy_BearBrownPlushie.jpg","3",".","37","0","602"
"11","11","encoding","encoding","155","Carrot.jpg","3",".","36","0","626"
"11","11","encoding","encoding","156","Pasta_Fettuccine.jpg","3",".","37","0","423"
"11","11","encoding","encoding","157","Sandwich_Ham.jpg","1",".","37","0","694"
"11","11","encoding","encoding","158","Canister_Tea.jpg","3",".","37","0","483"
"11","11","encoding","encoding","159","DonaldDuck_Toy.jpg","1",".","37","0","538"
"11","11","encoding","encoding","160","Backhoe.jpg","3",".","37","0","473"
"11","11","encoding","encoding","161","Dog_Bulldog.jpg","3",".","36","0","502"
"11","11","encoding","encoding","162","Pouch_Red.jpg","3",".","37","0","571"
"11","11","encoding","encoding","163","Mat_Bamboo.jpg","3",".","37","0","670"
"11","11","encoding","encoding","164","Bucket_WoodenLight.jpg","3",".","37","0","503"
"11","11","encoding","encoding","165","Toy_BeadMaze.jpg","3",".","37","0","431"
"11","11","encoding","encoding","166","CarLighter.jpg","1",".","37","0","557"
"11","11","encoding","encoding","167","Stone_Spa.jpg","3",".","36","0","531"
"11","11","encoding","encoding","168","Toy_Ladybug.jpg","3",".","37","0","444"
"11","11","encoding","encoding","169","MortarPestle_WhiteMarble.jpg","1",".","37","0","600"
"11","11","encoding","encoding","170","Tape_Dispenser.jpg","3",".","37","0","442"
"11","11","encoding","encoding","171","SoapDish.jpg","1",".","37","0","443"
"11","11","encoding","encoding","172","Shirt_Tshirt.jpg","3",".","37","0","413"
"11","11","encoding","encoding","173","Mat_Bamboo.jpg","3",".","37","0","528"
"11","11","encoding","encoding","174","Shovel_Garden.jpg","3",".","37","0","427"
"11","11","encoding","encoding","175","Dropper.jpg","1",".","37","0","412"
"11","11","encoding","encoding","176","Heater_Outdoor.jpg","3",".","37","0","417"
"11","11","encoding","encoding","177","Heater_Outdoor.jpg","3",".","37","0","376"
"11","11","encoding","encoding","178","Toy_TrailerAirport.jpg","3",".","37","0","472"
"11","11","encoding","encoding","179","Balcony.jpg","3",".","37","0","411"
"11","11","encoding","encoding","180","FlintIgniter.jpg","3",".","37","0","442"
"11","11","encoding","encoding","181","Toy_DonkeyFur.jpg","3",".","36","0","533"
"11","11","encoding","encoding","182","Otoscope.jpg","3",".","37","0","411"
"11","11","encoding","encoding","183","Scorpion.jpg","3",".","36","0","441"
"11","11","encoding","encoding","184","WaterHeater.jpg","3",".","37","0","340"
"11","11","encoding","encoding","185","Pasta_Fettuccine.jpg","3",".","37","0","411"
"11","11","encoding","encoding","186","TreeStump.jpg","3",".","36","0","506"
"11","11","encoding","encoding","187","TowelRack_Brown.jpg","3",".","37","0","380"
"11","11","encoding","encoding","188","Shirt_Tshirt.jpg","3",".","36","0","468"
"11","11","encoding","encoding","189","Clippers_Glass.jpg","3",".","37","0","371"
"11","11","encoding","encoding","190","Flashlight.jpg","3",".","37","0","403"
"11","11","encoding","encoding","191","MatchBook.jpg","3",".","37","0","499"
"11","11","encoding","encoding","192","Sphinx.jpg","3",".","37","0","635"
"11","11","encoding","encoding","193","BowlingPin.jpg","3",".","37","0","413"
"11","11","encoding","encoding","194","Heater_ElectricUpright.jpg","3",".","37","0","448"
"11","11","encoding","encoding","195","SnowmanDecor.jpg","1",".","0","0","1000"
"11","11","encoding","encoding","196","Notepad.jpg","3",".","37","0","520"
"11","11","encoding","encoding","197","Backhoe.jpg","3",".","37","0","424"
"11","11","encoding","encoding","199","Barrel_Wine.jpg","3",".","37","0","558"
"11","11","encoding","encoding","200","LeafBlower.jpg","3",".","37","0","468"
"11","11","encoding","encoding","201","Dragonfly.jpg","3",".","36","0","534"
"11","11","encoding","encoding","202","WaterCooler.jpg","3",".","37","0","409"
"11","11","encoding","encoding","203","Dice.jpg","1",".","37","0","424"
"11","11","encoding","encoding","204","Tray_Metal.jpg","3",".","37","0","405"
"11","11","encoding","encoding","205","Shovel_Garden.jpg","3",".","37","0","380"
"11","11","encoding","encoding","206","ShinPads.jpg","3",".","37","0","387"
"11","11","encoding","encoding","207","Neckrest.jpg","3",".","37","0","374"
"11","11","encoding","encoding","208","Bicycle_Kids.jpg","1",".","37","0","360"
"11","11","encoding","encoding","209","Box_WoodCrate.jpg","3",".","37","0","406"
"11","11","encoding","encoding","210","Puffin.jpg","3",".","37","0","468"
"11","11","encoding","encoding","211","Puffin.jpg","3",".","36","0","487"
"11","11","encoding","encoding","212","WaterHeater.jpg","3",".","37","0","349"
"11","11","encoding","encoding","213","Shoes_Mould.jpg","3",".","37","0","742"
"11","11","encoding","encoding","214","Helicopter.jpg","3",".","37","0","749"
"11","11","encoding","encoding","215","Boat_Colourful.jpg","3",".","37","0","477"
"11","11","encoding","encoding","216","TowelRack_Brown.jpg","3",".","37","0","413"
"11","11","encoding","encoding","217","Broccoli.jpg","3",".","36","0","495"
"11","11","encoding","encoding","218","Barrel_Wine.jpg","3",".","37","0","427"
"11","11","encoding","encoding","219","Box_WoodCrate.jpg","3",".","37","0","428"
"11","11","encoding","encoding","220","Heater_ElectricUpright.jpg","3",".","37","0","393"
"11","11","encoding","encoding","221","FlintIgniter.jpg","3",".","37","0","400"
"11","11","encoding","encoding","222","Suitcase.jpg","3",".","37","0","391"
"11","11","encoding","encoding","223","Computer_ExpansionCard.jpg","3",".","37","0","402"
"11","11","encoding","encoding","224","WaterHeater.jpg","3",".","37","0","368"
"11","11","encoding","encoding","225","Stick_Stirring.jpg","3",".","37","0","511"
"11","11","encoding","encoding","226","RadioactiveContainer.jpg","3",".","37","0","478"
"11","11","encoding","encoding","227","WalkieTalkie_Yellow.jpg","3",".","37","0","419"
"11","11","encoding","encoding","228","Tray_Medical.jpg","1",".","37","0","405"
"11","11","encoding","encoding","229","Pyramid.jpg","3",".","37","0","895"
"11","11","encoding","encoding","230","LeafBlower.jpg","3",".","37","0","468"
"11","11","encoding","encoding","231","PaperCutter.jpg","1",".","37","0","399"
"11","11","encoding","encoding","232","Blueberry.jpg","3",".","36","0","511"
"11","11","encoding","encoding","233","Pear_Green.jpg","3",".","36","0","442"
"11","11","encoding","encoding","234","Bus_DoubleDecker.jpg","3",".","37","0","408"
"11","11","encoding","encoding","235","Toy_DonkeyFur.jpg","3",".","37","0","420"
"11","11","encoding","encoding","236","Balcony.jpg","3",".","37","0","467"
"11","11","encoding","encoding","237","Tape_Dispenser.jpg","3",".","37","0","481"
"11","11","encoding","encoding","238","Compressor.jpg","3",".","37","0","412"
"11","11","encoding","encoding","239","Dragonfly.jpg","3",".","36","0","462"
"11","11","encoding","encoding","240","Clamp_Screw.jpg","1",".","37","0","474"
"11","11","encoding","encoding","241","Cheeseburger.jpg","3",".","36","0","580"
"11","11","encoding","encoding","242","Lobster.jpg","3",".","36","0","582"
"11","11","encoding","encoding","243","RadioactiveContainer.jpg","3",".","37","0","417"
"11","11","encoding","encoding","244","Mask_VenetianCat.jpg","1",".","37","0","631"
"11","11","encoding","encoding","245","Pyramid.jpg","3",".","37","0","461"
"11","11","encoding","encoding","246","Desk_Office.jpg","3",".","37","0","474"
"11","11","encoding","encoding","247","Lips_Wax.jpg","1",".","36","0","535"
"11","11","encoding","encoding","248","EyeChart.jpg","1",".","37","0","528"
"11","11","encoding","encoding","249","Golf_Club.jpg","1",".","37","0","485"
"11","11","encoding","encoding","250","Lobster.jpg","3",".","36","0","488"
"11","11","encoding","encoding","251","Walkman.jpg","3",".","37","0","431"
"11","11","encoding","encoding","252","Desk_Office.jpg","3",".","37","0","403"
"11","11","encoding","encoding","253","Bag_Toiletry.jpg","3",".","37","0","390"
"11","11","encoding","encoding","254","Decoration_ChristmasWhite.jpg","3",".","37","0","433"
"11","11","encoding","encoding","255","Puffin.jpg","3",".","36","0","506"
"11","11","encoding","encoding","256","WalkieTalkie_Yellow.jpg","3",".","37","0","497"
"11","11","encoding","encoding","257","Walkman.jpg","3",".","37","0","435"
"11","11","encoding","encoding","258","Candleholder_LampShaped.jpg","1",".","37","0","639"
"11","11","encoding","encoding","259","Hat_Feather.jpg","1",".","37","0","711"
"11","11","encoding","encoding","260","Tray_Metal.jpg","3",".","37","0","420"
"11","11","encoding","encoding","261","Jars_PetFood.jpg","3",".","37","0","478"
"11","11","encoding","encoding","262","Toy_Rooster.jpg","1",".","37","0","682"
"11","11","encoding","encoding","263","Airplane_Small.jpg","1",".","37","0","412"
"11","11","encoding","encoding","265","Pear_Green.jpg","3",".","36","0","564"
"11","11","encoding","encoding","266","Balcony.jpg","3",".","37","0","468"
"11","11","encoding","encoding","267","Cloud.jpg","1",".","36","0","852"
"11","11","encoding","encoding","268","IceCubes.jpg","1",".","37","0","436"
"11","11","encoding","encoding","269","Bag_Toiletry.jpg","3",".","37","0","483"
"11","11","encoding","encoding","270","Neckrest.jpg","3",".","37","0","623"
"11","11","encoding","encoding","271","Pear_Green.jpg","3",".","36","0","506"
"11","11","encoding","encoding","272","HairBand.jpg","3",".","37","0","382"
"11","11","encoding","encoding","273","Barrel_Wine.jpg","3",".","37","0","390"
"11","11","encoding","encoding","274","PumpBreast.jpg","1",".","37","0","539"
"11","11","encoding","encoding","275","Dog_Bulldog.jpg","3",".","36","0","491"
"11","11","encoding","encoding","276","Jars_PetFood.jpg","3",".","37","0","409"
"11","11","encoding","encoding","277","Cheeseburger.jpg","3",".","37","0","734"
"11","11","encoding","encoding","278","Shovel_Garden.jpg","3",".","37","0","449"
"11","11","encoding","encoding","279","RecorderInstrument.jpg","1",".","37","0","417"
"11","11","encoding","encoding","280","Clippers_Glass.jpg","3",".","37","0","491"
"11","11","encoding","encoding","281","Glasses_Sun.jpg","1",".","37","0","504"
"11","11","encoding","encoding","282","Compressor.jpg","3",".","37","0","441"
"11","11","encoding","encoding","283","Garlic_Clove.jpg","1",".","36","0","484"
"11","11","encoding","encoding","284","RadioactiveContainer.jpg","3",".","37","0","432"
"11","11","encoding","encoding","285","PaperTowel_Brown.jpg","1",".","37","0","419"
"11","11","encoding","encoding","286","SaladCaesar.jpg","1",".","37","0","801"
"11","11","encoding","encoding","287","Paddle_Ball.jpg","3",".","37","0","490"
"11","11","encoding","encoding","288","Sign_SlipperyRoad.jpg","3",".","37","0","397"
"11","11","encoding","encoding","289","Match.jpg","3",".","37","0","476"
"11","11","encoding","encoding","290","Pasta_Fettuccine.jpg","3",".","37","0","383"
"11","11","encoding","encoding","291","Blueberry.jpg","3",".","36","0","558"
"11","11","encoding","encoding","292","HairBand.jpg","3",".","37","0","411"
"11","11","encoding","encoding","293","Toy_BearBrownPlushie.jpg","3",".","37","0","591"
"11","11","encoding","encoding","294","Compressor.jpg","3",".","37","0","422"
"11","11","encoding","encoding","295","ShoeLace_Flat.jpg","3",".","37","0","462"
"11","11","encoding","encoding","296","Stone_Spa.jpg","3",".","36","0","519"
"11","11","encoding","encoding","297","Case_CD.jpg","3",".","37","0","406"
"11","11","encoding","encoding","298","Level.jpg","1",".","37","0","384"
"11","11","encoding","encoding","299","Sink_Kitchen.jpg","1",".","37","0","390"
"11","11","encoding","encoding","300","Makeup_Bag.jpg","1",".","37","0","398"
"11","11","encoding","encoding","301","Boar.jpg","3",".","36","0","392"
"11","11","encoding","encoding","302","Scorpion.jpg","3",".","36","0","420"
"11","11","encoding","encoding","303","Boar.jpg","3",".","36","0","420"
"11","11","encoding","encoding","304","LeafBlower.jpg","3",".","37","0","398"
"11","11","encoding","encoding","305","Ostrich.jpg","3",".","36","0","506"
"11","11","encoding","encoding","306","Boat_Colourful.jpg","3",".","37","0","419"
"11","11","encoding","encoding","307","Ostrich.jpg","3",".","36","0","675"
"11","11","encoding","encoding","308","OperaGlasses.jpg","1",".","37","0","375"
"11","11","encoding","encoding","309","Toy_Taxi.jpg","1",".","37","0","366"
"11","11","encoding","encoding","310","Case_CD.jpg","3",".","37","0","456"
"11","11","encoding","encoding","311","Mat_Bamboo.jpg","3",".","37","0","404"
"11","11","encoding","encoding","312","Bucket_WoodenLight.jpg","3",".","37","0","367"
"11","11","encoding","encoding","313","Cologne.jpg","1",".","37","0","392"
"11","11","encoding","encoding","314","Carrot.jpg","3",".","36","0","517"
"11","11","encoding","encoding","315","Shrimp.jpg","1",".","36","0","556"
"11","11","encoding","encoding","316","Paddle_Canoe.jpg","3",".","37","0","402"
"11","11","encoding","encoding","317","Boar.jpg","3",".","36","0","587"
"11","11","encoding","encoding","318","Stick_IceHockey.jpg","1",".","37","0","374"
"11","11","encoding","encoding","319","Toy_Christmastree.jpg","3",".","37","0","486"
"11","11","encoding","encoding","320","Toy_Dog.jpg","1",".","37","0","550"
"11","11","encoding","encoding","321","Heater_Outdoor.jpg","3",".","37","0","438"
"11","11","encoding","encoding","322","Bagpipes.jpg","1",".","37","0","613"
"11","11","encoding","encoding","323","Otoscope.jpg","3",".","37","0","470"
"11","11","encoding","encoding","324","VacuumHose.jpg","1",".","37","0","453"
"11","11","encoding","encoding","325","HairBand.jpg","",".","37","0","382"
"11","11","retrieval","old_object","1","Bag_Toiletry.jpg",".","3","36","1","1155"
"11","11","retrieval","new_object","2","CarSuspension.jpg",".",".","37","1","1211"
"11","11","retrieval","old_object","3","Lips_Wax.jpg",".","1","36","1","1007"
"11","11","retrieval","new_object","4","LifeJacket_Orangejpg.jpg",".",".","37","1","942"
"11","11","retrieval","old_object","5","Card_TwoSpade.jpg",".","1","36","1","1135"
"11","11","retrieval","new_object","6","Mask_HockeyGoalie.jpg",".",".","37","1","844"
"11","11","retrieval","new_object","7","Hedgehog.jpg",".",".","37","1","1053"
"11","11","retrieval","old_object","8","Hat_Feather.jpg",".","1","36","1","984"
"11","11","retrieval","new_object","9","Canister_Oil.jpg",".",".","37","1","1280"
"11","11","retrieval","old_object","10","Toy_Dog.jpg",".","1","36","1","969"
"11","11","retrieval","new_object","11","Envelope_Manila.jpg",".",".","37","1","854"
"11","11","retrieval","new_object","12","Taco.jpg",".",".","37","1","703"
"11","11","retrieval","new_object","13","Toy_PandaPlushie.jpg",".",".","37","1","685"
"11","11","retrieval","old_object","14","OperaGlasses.jpg",".","1","36","1","967"
"11","11","retrieval","old_object","15","Bucket_WoodenLight.jpg",".","3","36","1","568"
"11","11","retrieval","new_object","16","ManholeCover.jpg",".",".","37","1","651"
"11","11","retrieval","old_object","17","Drum_Ramadan.jpg",".","1","37","0","839"
"11","11","retrieval","new_object","18","Cinnamonroll.jpg",".",".","37","1","669"
"11","11","retrieval","new_object","19","Clave.jpg",".",".","36","0","1116"
"11","11","retrieval","new_object","20","TortillaChip.jpg",".",".","37","1","709"
"11","11","retrieval","old_object","21","Bus_DoubleDecker.jpg",".","3","36","1","768"
"11","11","retrieval","new_object","22","Carabiner_Orange.jpg",".",".","37","1","666"
"11","11","retrieval","old_object","23","Compressor.jpg",".","3","36","1","850"
"11","11","retrieval","old_object","24","LintRemover.jpg",".","1","36","1","678"
"11","11","retrieval","new_object","25","Compact_Mirror.jpg",".",".","37","1","757"
"11","11","retrieval","old_object","26","Toy_BeadMaze.jpg",".","3","36","1","609"
"11","11","retrieval","new_object","27","Spatula.jpg",".",".","37","1","763"
"11","11","retrieval","old_object","28","RadioactiveContainer.jpg",".","3","36","1","714"
"11","11","retrieval","old_object","29","Jars_PetFood.jpg",".","3","36","1","558"
"11","11","retrieval","old_object","30","TreeStump.jpg",".","3","36","1","606"
"11","11","retrieval","old_object","31","SaladCaesar.jpg",".","1","36","1","714"
"11","11","retrieval","new_object","32","Lollipop_Rainbow.jpg",".",".","37","1","621"
"11","11","retrieval","old_object","33","Toy_BearBrownPlushie.jpg",".","3","36","1","634"
"11","11","retrieval","new_object","34","Desk_White.jpg",".",".","37","1","824"
"11","11","retrieval","old_object","35","Balcony.jpg",".","3","36","1","760"
"11","11","retrieval","old_object","36","Broccoli.jpg",".","3","36","1","564"
"11","11","retrieval","new_object","37","PumiceStone.jpg",".",".","37","1","657"
"11","11","retrieval","old_object","38","Ginger.jpg",".","1","36","1","591"
"11","11","retrieval","old_object","39","Stool_Camping.jpg",".","1","36","1","1030"
"11","11","retrieval","old_object","40","Mitt_Blue.jpg",".","1","36","1","911"
"11","11","retrieval","old_object","41","Match.jpg",".","3","36","1","575"
"11","11","retrieval","new_object","42","Cannon.jpg",".",".","37","1","1381"
"11","11","retrieval","old_object","43","RecorderInstrument.jpg",".","1","36","1","1100"
"11","11","retrieval","new_object","44","Flags_CheckeredRacing.jpg",".",".","37","1","873"
"11","11","retrieval","old_object","45","Protractor.jpg",".","1","36","1","720"
"11","11","retrieval","old_object","46","Makeup_Bag.jpg",".","1","36","1","814"
"11","11","retrieval","new_object","47","Platter_Vegetables.jpg",".",".","37","1","726"
"11","11","retrieval","new_object","48","Oars.jpg",".",".","36","0","845"
"11","11","retrieval","old_object","49","Scorpion.jpg",".","3","36","1","532"
"11","11","retrieval","new_object","50","Briefcase_Silver.jpg",".",".","36","0","633"
"11","11","retrieval","new_object","51","Gecko.jpg",".",".","37","1","677"
"11","11","retrieval","new_object","52","Hanger.jpg",".",".","36","0","1000"
"11","11","retrieval","old_object","53","Dropper.jpg",".","1","36","1","973"
"11","11","retrieval","new_object","54","Jar_Honey.jpg",".",".","37","1","758"
"11","11","retrieval","new_object","55","Bottle_Beer.jpg",".",".","37","1","1187"
"11","11","retrieval","old_object","56","PersonWooden.jpg",".","1","36","1","714"
"11","11","retrieval","old_object","57","Hat_Police.jpg",".","1","36","1","880"
"11","11","retrieval","new_object","58","LicensePlate.jpg",".",".","37","1","641"
"11","11","retrieval","new_object","59","Bread_Melon.jpg",".",".","36","0","928"
"11","11","retrieval","old_object","60","TelescopeSpacecraft.jpg",".","1","36","1","1038"
"11","11","retrieval","new_object","61","Barometer_Wood.jpg",".",".","37","1","707"
"11","11","retrieval","old_object","62","Ruler_Wooden.jpg",".","3","36","1","549"
"11","11","retrieval","old_object","63","Clamp_Screw.jpg",".","1","36","1","640"
"11","11","retrieval","new_object","64","Earring_Hoop.jpg",".",".","37","1","846"
"11","11","retrieval","old_object","65","Toy_Bat.jpg",".","1","36","1","759"
"11","11","retrieval","old_object","67","Flashlight.jpg",".","3","36","1","1143"
"11","11","retrieval","new_object","68","SewingPin_Cushion.jpg",".",".","37","1","721"
"11","11","retrieval","old_object","69","Pretzel_Sticks.jpg",".","1","36","1","841"
"11","11","retrieval","new_object","70","Mug_Travel.jpg",".",".","36","0","577"
"11","11","retrieval","old_object","71","Seeder.jpg",".","1","36","1","1017"
"11","11","retrieval","old_object","72","ComputerKey_Escape.jpg",".","1","36","1","768"
"11","11","retrieval","old_object","73","Celery.jpg",".","1","36","1","848"
"11","11","retrieval","old_object","74","Decoration_ChristmasWhite.jpg",".","3","36","1","601"
"11","11","retrieval","old_object","75","Snorkle.jpg",".","1","36","1","803"
"11","11","retrieval","old_object","76","Card_Deck.jpg",".","1","36","1","898"
"11","11","retrieval","new_object","77","Hat_Colonial.jpg",".",".","37","1","917"
"11","11","retrieval","old_object","78","TowelRack_Metal.jpg",".","3","36","1","1013"
"11","11","retrieval","old_object","79","Puzzle_Animal.jpg",".","1","36","1","785"
"11","11","retrieval","old_object","80","Toy_Wooden rings.jpg",".","1","36","1","623"
"11","11","retrieval","old_object","81","Toy_Christmastree.jpg",".","3","36","1","511"
"11","11","retrieval","new_object","82","Cassette_Video.jpg",".",".","36","0","723"
"11","11","retrieval","new_object","83","SolderingIron.jpg",".",".","37","1","1006"
"11","11","retrieval","new_object","84","DogSled.jpg",".",".","37","1","1405"
"11","11","retrieval","old_object","85","Stick_Stirring.jpg",".","3","36","1","596"
"11","11","retrieval","old_object","86","Speakers_Theatre.jpg",".","1","36","1","645"
"11","11","retrieval","old_object","87","Candleholder_LampShaped.jpg",".","1","36","1","606"
"11","11","retrieval","new_object","88","Thermometer_Room.jpg",".",".","37","1","940"
"11","11","retrieval","new_object","89","Cable_JumpStart.jpg",".",".","37","1","837"
"11","11","retrieval","new_object","90","HoseNozzle.jpg",".",".","36","0","1065"
"11","11","retrieval","new_object","91","Ship_Cruise.jpg",".",".","37","1","781"
"11","11","retrieval","new_object","92","MousepadAndMouse.jpg",".",".","37","1","1211"
"11","11","retrieval","new_object","93","Cup_Bathroom.jpg",".",".","37","1","674"
"11","11","retrieval","old_object","94","WalkieTalkie_Yellow.jpg",".","3","36","1","584"
"11","11","retrieval","new_object","95","Castle_Sand.jpg",".",".","37","1","751"
"11","11","retrieval","old_object","96","Sandwich_Ham.jpg",".","1","36","1","933"
"11","11","retrieval","new_object","97","Radish.jpg",".",".","37","1","787"
"11","11","retrieval","old_object","98","Carrot.jpg",".","3","36","1","533"
"11","11","retrieval","old_object","99","PaperCutter.jpg",".","1","36","1","823"
"11","11","retrieval","new_object","100","Cake_Cheese.jpg",".",".","37","1","787"
"11","11","retrieval","new_object","101","House_Wooden.jpg",".",".","37","1","939"
"11","11","retrieval","new_object","102","HairCurler.jpg",".",".","37","1","827"
"11","11","retrieval","new_object","103","Arch_Triomphe.jpg",".",".","37","1","818"
"11","11","retrieval","new_object","104","Statue_Man.jpg",".",".","37","1","798"
"11","11","retrieval","new_object","105","Brush_Light.jpg",".",".","37","1","905"
"11","11","retrieval","new_object","106","Weathervane.jpg",".",".","36","0","1109"
"11","11","retrieval","old_object","107","ColoringSet.jpg",".","1","36","1","957"
"11","11","retrieval","new_object","108","CoffeeLid.jpg",".",".","36","0","1246"
"11","11","retrieval","new_object","109","Bird_Duck.jpg",".",".","37","1","644"
"11","11","retrieval","old_object","110","Level.jpg",".","1","36","1","761"
"11","11","retrieval","new_object","111","Cymbals.jpg",".",".","36","0","702"
"11","11","retrieval","new_object","112","SofaAntique.jpg",".",".","37","1","679"
"11","11","retrieval","old_object","113","ShinPads.jpg",".","3","36","1","619"
"11","11","retrieval","new_object","114","Bread_Loaf.jpg",".",".","36","0","996"
"11","11","retrieval","old_object","115","Toy_Taxi.jpg",".","1","36","1","903"
"11","11","retrieval","old_object","116","Bowl_Chopsticks.jpg",".","1","36","1","1077"
"11","11","retrieval","new_object","117","BumperCar.jpg",".",".","37","1","864"
"11","11","retrieval","old_object","118","Dragonfly.jpg",".","3","36","1","724"
"11","11","retrieval","old_object","119","DeepFryer.jpg",".","1","36","1","736"
"11","11","retrieval","new_object","120","Corkboard.jpg",".",".","37","1","641"
"11","11","retrieval","new_object","121","MetalDetector.jpg",".",".","36","0","1386"
"11","11","retrieval","old_object","122","BrainSagittal.jpg",".","3","36","1","784"
"11","11","retrieval","new_object","123","Bleachers.jpg",".",".","36","0","851"
"11","11","retrieval","new_object","124","Branch.jpg",".",".","37","1","709"
"11","11","retrieval","old_object","125","Paddle_Canoe.jpg",".","3","37","0","758"
"11","11","retrieval","old_object","126","Pear_Green.jpg",".","3","36","1","587"
"11","11","retrieval","new_object","127","Television.jpg",".",".","37","1","770"
"11","11","retrieval","new_object","128","PyramidWooden.jpg",".",".","36","0","756"
"11","11","retrieval","new_object","129","Bone.jpg",".",".","37","1","1018"
"11","11","retrieval","old_object","130","Ostrich.jpg",".","3","36","1","629"
"11","11","retrieval","old_object","131","VinylRecord.jpg",".","1","36","1","847"
"11","11","retrieval","old_object","133","Sign_SlipperyRoad.jpg",".","3","36","1","688"
"11","11","retrieval","new_object","134","Mailbox_Antique.jpg",".",".","36","0","841"
"11","11","retrieval","new_object","135","Toolbox_BlackOpen.jpg",".",".","36","0","709"
"11","11","retrieval","old_object","136","Dice.jpg",".","1","36","1","677"
"11","11","retrieval","new_object","137","Handbag.jpg",".",".","36","0","795"
"11","11","retrieval","new_object","138","PulleyWooden.jpg",".",".","37","1","1049"
"11","11","retrieval","new_object","139","Hubcap.jpg",".",".","37","1","878"
"11","11","retrieval","old_object","140","Lobster.jpg",".","3","36","1","535"
"11","11","retrieval","new_object","141","Candy_Toffee.jpg",".",".","37","1","684"
"11","11","retrieval","new_object","142","GasStation.jpg",".",".","37","1","712"
"11","11","retrieval","old_object","143","Canister_Tea.jpg",".","3","36","1","632"
"11","11","retrieval","old_object","144","Neckrest.jpg",".","3","36","1","557"
"11","11","retrieval","new_object","145","Clock_Interior.jpg",".",".","37","1","928"
"11","11","retrieval","new_object","146","Backpack_Suitcase.jpg",".",".","36","0","832"
"11","11","retrieval","new_object","147","Toy_Truck.jpg",".",".","36","0","708"
"11","11","retrieval","new_object","148","Chair_Office.jpg",".",".","37","1","758"
"11","11","retrieval","old_object","149","Shoes_Mould.jpg",".","3","36","1","829"
"11","11","retrieval","old_object","150","Suitcase.jpg",".","3","36","1","527"
"11","11","retrieval","old_object","151","Case_CD.jpg",".","3","36","1","623"
"11","11","retrieval","new_object","152","Light_Studio.jpg",".",".","36","0","609"
"11","11","retrieval","old_object","153","Clippers_Glass.jpg",".","3","36","1","565"
"11","11","retrieval","new_object","154","Cart_Janitor.jpg",".",".","36","0","947"
"11","11","retrieval","new_object","155","CodeDoorLock.jpg",".",".","37","1","920"
"11","11","retrieval","old_object","156","ClothesDryingRack.jpg",".","1","36","1","769"
"11","11","retrieval","old_object","157","Tape_Dispenser.jpg",".","3","36","1","655"
"11","11","retrieval","new_object","158","sign_traffic.jpg",".",".","36","0","549"
"11","11","retrieval","old_object","159","Shirt_Tshirt.jpg",".","3","36","1","577"
"11","11","retrieval","old_object","160","MatchBook.jpg",".","3","36","1","605"
"11","11","retrieval","old_object","161","Cloud.jpg",".","1","36","1","710"
"11","11","retrieval","old_object","162","Tray_Metal.jpg",".","3","36","1","615"
"11","11","retrieval","old_object","163","PaperTowel_Brown.jpg",".","1","36","1","730"
"11","11","retrieval","new_object","164","Lens_Camera.jpg",".",".","36","0","920"
"11","11","retrieval","new_object","165","Toy_MerryGoRound.jpg",".",".","37","1","709"
"11","11","retrieval","new_object","166","Van.jpg",".",".","37","1","696"
"11","11","retrieval","new_object","167","Acorn.jpg",".",".","37","1","1074"
"11","11","retrieval","new_object","168","Toy_LambPlushie.jpg",".",".","37","1","828"
"11","11","retrieval","old_object","169","HairClipper.jpg",".","1","36","1","908"
"11","11","retrieval","new_object","170","Bandage_Adhesive.jpg",".",".","37","1","691"
"11","11","retrieval","old_object","171","Heater_ElectricUpright.jpg",".","3","36","1","617"
"11","11","retrieval","new_object","172","Wire_ElectricalSingle.jpg",".",".","37","1","915"
"11","11","retrieval","new_object","173","SolderingWire.jpg",".",".","37","1","699"
"11","11","retrieval","old_object","174","HairBand.jpg",".","3","36","1","494"
"11","11","retrieval","new_object","175","Bus_School.jpg",".",".","37","1","1147"
"11","11","retrieval","old_object","176","Toy_Rooster.jpg",".","1","36","1","561"
"11","11","retrieval","new_object","177","Bowl_Glass.jpg",".",".","37","1","731"
"11","11","retrieval","old_object","178","ShoeLace_Flat.jpg",".","3","36","1","885"
"11","11","retrieval","new_object","179","Umbrella_Classic.jpg",".",".","36","0","699"
"11","11","retrieval","new_object","180","Tube_Glue.jpg",".",".","37","1","678"
"11","11","retrieval","new_object","181","Binder.jpg",".",".","37","1","1116"
"11","11","retrieval","new_object","182","DartBoard.jpg",".",".","36","0","627"
"11","11","retrieval","old_object","183","Boat_Colourful.jpg",".","3","36","1","548"
"11","11","retrieval","new_object","184","SatelliteDish.jpg",".",".","36","0","874"
"11","11","retrieval","new_object","185","Stove_WithOven.jpg",".",".","36","0","1485"
"11","11","retrieval","new_object","186","Bark.jpg",".",".","37","1","1092"
"11","11","retrieval","old_object","187","Shovel_Garden.jpg",".","3","36","1","796"
"11","11","retrieval","old_object","188","Cologne.jpg",".","1","36","1","783"
"11","11","retrieval","old_object","189","SoapDish.jpg",".","1","37","0","861"
"11","11","retrieval","old_object","190","Stick_IceHockey.jpg",".","1","36","1","779"
"11","11","retrieval","new_object","191","WaterWell.jpg",".",".","37","1","1016"
"11","11","retrieval","new_object","192","Mask_Ski.jpg",".",".","37","1","959"
"11","11","retrieval","new_object","193","Tube_Paint.jpg",".",".","37","1","738"
"11","11","retrieval","new_object","194","MechanicalSpring.jpg",".",".","36","0","1102"
"11","11","retrieval","old_object","195","Coral.jpg",".","3","36","1","810"
"11","11","retrieval","old_object","196","Otoscope.jpg",".","3","36","1","841"
"11","11","retrieval","old_object","197","FlintIgniter.jpg",".","3","36","1","580"
"11","11","retrieval","old_object","199","Boar.jpg",".","3","36","1","697"
"11","11","retrieval","new_object","200","Crab.jpg",".",".","36","0","563"
"11","11","retrieval","old_object","201","Computer_ExpansionCard.jpg",".","3","36","1","937"
"11","11","retrieval","old_object","202","Bicycle_Kids.jpg",".","1","37","0","849"
"11","11","retrieval","old_object","203","DonaldDuck_Toy.jpg",".","1","36","1","671"
"11","11","retrieval","old_object","204","Paddle_Ball.jpg",".","3","36","1","654"
"11","11","retrieval","new_object","205","Stone_AncientWriting.jpg",".",".","37","1","896"
"11","11","retrieval","new_object","206","Bible.jpg",".",".","37","1","717"
"11","11","retrieval","new_object","207","Box_FirstAid.jpg",".",".","36","0","899"
"11","11","retrieval","old_object","208","Car_Buggy.jpg",".","1","36","1","953"
"11","11","retrieval","old_object","209","Glove_Baseball.jpg",".","1","36","1","766"
"11","11","retrieval","old_object","210","Pyramid.jpg",".","3","36","1","546"
"11","11","retrieval","old_object","211","Pouch_Red.jpg",".","3","36","1","631"
"11","11","retrieval","new_object","212","Garlic_Whole.jpg",".",".","36","0","789"
"11","11","retrieval","old_object","213","CarLighter.jpg",".","1","36","1","836"
"11","11","retrieval","old_object","214","Bagpipes.jpg",".","1","36","1","642"
"11","11","retrieval","new_object","215","Helmet_Football.jpg",".",".","37","1","823"
"11","11","retrieval","new_object","216","Tree_Fir.jpg",".",".","37","1","835"
"11","11","retrieval","old_object","217","Camera_Video.jpg",".","1","36","1","745"
"11","11","retrieval","old_object","218","WaterCooler.jpg",".","3","36","1","673"
"11","11","retrieval","new_object","219","Bat_Cricket.jpg",".",".","36","0","870"
"11","11","retrieval","new_object","220","Candy_Lozenge.jpg",".",".","37","1","1244"
"11","11","retrieval","old_object","221","Glasses_Sun.jpg",".","1","36","1","680"
"11","11","retrieval","new_object","222","Bag_Diaper.jpg",".",".","37","1","944"
"11","11","retrieval","new_object","223","AirCompressor.jpg",".",".","36","0","638"
"11","11","retrieval","old_object","224","Blueberry.jpg",".","3","36","1","561"
"11","11","retrieval","new_object","225","Amp.jpg",".",".","37","1","881"
"11","11","retrieval","new_object","226","PocketKnife.jpg",".",".","37","1","879"
"11","11","retrieval","new_object","227","WateringCan_Antique.jpg",".",".","36","0","660"
"11","11","retrieval","old_object","228","Cheeseburger.jpg",".","3","36","1","690"
"11","11","retrieval","old_object","229","CDstack.jpg",".","1","37","0","850"
"11","11","retrieval","old_object","230","EyeChart.jpg",".","1","36","1","805"
"11","11","retrieval","old_object","231","Airplane_Small.jpg",".","1","36","1","682"
"11","11","retrieval","old_object","232","SnowmanDecor.jpg",".","1","36","1","604"
"11","11","retrieval","old_object","233","Coin.jpg",".","3","36","1","608"
"11","11","retrieval","new_object","234","Carousel.jpg",".",".","36","0","718"
"11","11","retrieval","new_object","235","Sign_Construction.jpg",".",".","36","0","540"
"11","11","retrieval","old_object","236","Toy_TrailerAirport.jpg",".","3","36","1","699"
"11","11","retrieval","old_object","237","IceCubes.jpg",".","1","36","1","723"
"11","11","retrieval","new_object","238","PagodaModel.jpg",".",".","37","1","741"
"11","11","retrieval","new_object","239","TailLight.jpg",".",".","37","1","866"
"11","11","retrieval","new_object","240","Helmet_Motorcycle.jpg",".",".","37","1","1772"
"11","11","retrieval","old_object","241","Nail.jpg",".","1","36","1","600"
"11","11","retrieval","old_object","242","Snowpea.jpg",".","1","36","1","623"
"11","11","retrieval","new_object","243","Nuts_Pecan.jpg",".",".","37","1","981"
"11","11","retrieval","old_object","244","LeafBlower.jpg",".","3","36","1","660"
"11","11","retrieval","new_object","245","Barometer.jpg",".",".","37","1","950"
"11","11","retrieval","old_object","246","Mask_VenetianCat.jpg",".","1","36","1","736"
"11","11","retrieval","new_object","247","Glass_Beer.jpg",".",".","37","1","759"
"11","11","retrieval","old_object","248","Puffin.jpg",".","3","36","1","977"
"11","11","retrieval","new_object","249","Heelpad.jpg",".",".","37","1","747"
"11","11","retrieval","old_object","250","Lynx.jpg",".","3","36","1","573"
"11","11","retrieval","old_object","251","NailFiles.jpg",".","1","37","0","851"
"11","11","retrieval","new_object","252","Mailbox_Community.jpg",".",".","37","1","934"
"11","11","retrieval","new_object","253","Hockey_Puck.jpg",".",".","37","1","1227"
"11","11","retrieval","new_object","254","FireAlarm.jpg",".",".","37","1","1206"
"11","11","retrieval","old_object","255","Walkman.jpg",".","3","36","1","687"
"11","11","retrieval","new_object","256","RAMchip.jpg",".",".","37","1","1095"
"11","11","retrieval","old_object","257","Notepad.jpg",".","3","36","1","670"
"11","11","retrieval","old_object","258","Desk_Office.jpg",".","3","36","1","655"
"11","11","retrieval","new_object","259","Lighter_Black.jpg",".",".","37","1","927"
"11","11","retrieval","old_object","260","Garlic_Clove.jpg",".","1","37","0","1063"
"11","11","retrieval","old_object","261","PumpBreast.jpg",".","1","37","0","878"
"11","11","retrieval","old_object","262","Backhoe.jpg",".","3","36","1","648"
"11","11","retrieval","old_object","263","Toy_Ladybug.jpg",".","3","36","1","610"
"11","11","retrieval","new_object","265","Ladybug.jpg",".",".","37","1","942"
"11","11","retrieval","new_object","266","Lantern_Chinese.jpg",".",".","37","1","855"
"11","11","retrieval","new_object","267","Light_Fixtures.jpg",".",".","37","1","1252"
"11","11","retrieval","new_object","268","Bread_Roll.jpg",".",".","36","0","988"
"11","11","retrieval","old_object","269","Barrel_Wine.jpg",".","3","36","1","618"
"11","11","retrieval","new_object","270","Table_Saw.jpg",".",".","36","0","742"
"11","11","retrieval","old_object","271","Tray_Medical.jpg",".","1","36","1","663"
"11","11","retrieval","new_object","272","AirPump.jpg",".",".","36","0","712"
"11","11","retrieval","old_object","273","Toy_Firetruck.jpg",".","1","36","1","754"
"11","11","retrieval","new_object","274","Bucket_Halloween.jpg",".",".","37","1","725"
"11","11","retrieval","new_object","275","Light_Halogen.jpg",".",".","36","0","633"
"11","11","retrieval","old_object","276","Piano_Upright.jpg",".","1","37","0","712"
"11","11","retrieval","old_object","277","WaterHeater.jpg",".","3","36","1","774"
"11","11","retrieval","new_object","278","Case_Pencil.jpg",".",".","36","0","759"
"11","11","retrieval","old_object","279","Sink_Kitchen.jpg",".","1","36","1","636"
"11","11","retrieval","new_object","280","MemoPaperSpike.jpg",".",".","37","1","774"
"11","11","retrieval","new_object","281","Spear.jpg",".",".","37","1","1043"
"11","11","retrieval","old_object","282","Sphinx.jpg",".","3","36","1","609"
"11","11","retrieval","old_object","283","Squash_Butternut.jpg",".","3","36","1","767"
"11","11","retrieval","new_object","284","PencilCase.jpg",".",".","37","1","697"
"11","11","retrieval","old_object","285","Pasta_Fettuccine.jpg",".","3","36","1","583"
"11","11","retrieval","old_object","286","Shrimp.jpg",".","1","36","1","584"
"11","11","retrieval","old_object","287","VacuumHose.jpg",".","1","36","1","676"
"11","11","retrieval","new_object","288","Microwave.jpg",".",".","37","1","723"
"11","11","retrieval","old_object","289","Toy_DonkeyFur.jpg",".","3","36","1","600"
"11","11","retrieval","new_object","290","Toy_Lizard.jpg",".",".","37","1","694"
"11","11","retrieval","new_object","291","Bread_Carrot.jpg",".",".","37","1","731"
"11","11","retrieval","new_object","292","Scythe.jpg",".",".","37","1","904"
"11","11","retrieval","old_object","293","Mat_Bamboo.jpg",".","3","36","1","636"
"11","11","retrieval","old_object","294","Golf_Club.jpg",".","1","36","1","567"
"11","11","retrieval","new_object","295","Can_Oblong.jpg",".",".","37","1","764"
"11","11","retrieval","new_object","296","Statue_Horse.jpg",".",".","37","1","744"
"11","11","retrieval","new_object","297","Aquarium.jpg",".",".","37","1","713"
"11","11","retrieval","old_object","298","GrillRack.jpg",".","1","36","1","573"
"11","11","retrieval","old_object","299","Box_Cutlery.jpg",".","1","36","1","810"
"11","11","retrieval","new_object","300","Trash_Medical.jpg",".",".","37","1","851"
"11","11","retrieval","new_object","301","Wontons.jpg",".",".","37","1","978"
"11","11","retrieval","old_object","302","PowderProtein.jpg",".","3","36","1","796"
"11","11","retrieval","new_object","303","Milkshake_Strawberry.jpg",".",".","37","1","664"
"11","11","retrieval","old_object","304","MortarPestle_WhiteMarble.jpg",".","1","36","1","666"
"11","11","retrieval","old_object","305","BowlingPin.jpg",".","3","36","1","635"
"11","11","retrieval","old_object","306","Fan_Straw.jpg",".","1","36","1","662"
"11","11","retrieval","new_object","307","SelfieStick.jpg",".",".","37","1","1021"
"11","11","retrieval","old_object","308","Suit_Women.jpg",".","1","36","1","708"
"11","11","retrieval","new_object","309","Stool_Metal.jpg",".",".","37","1","868"
"11","11","retrieval","old_object","310","Heater_Outdoor.jpg",".","3","36","1","832"
"11","11","retrieval","old_object","311","FuzzyDice.jpg",".","1","36","1","834"
"11","11","retrieval","new_object","312","Fork_Regular.jpg",".",".","37","1","849"
"11","11","retrieval","new_object","313","IceCream_Popsicle.jpg",".",".","37","1","718"
"11","11","retrieval","old_object","314","TowelRack_Brown.jpg",".","3","36","1","551"
"11","11","retrieval","new_object","315","Walker_Blue.jpg",".",".","36","0","692"
"11","11","retrieval","old_object","316","IroningBoard.jpg",".","1","36","1","682"
"11","11","retrieval","old_object","317","Dog_Bulldog.jpg",".","3","36","1","580"
"11","11","retrieval","new_object","318","DoubleBass.jpg",".",".","37","1","863"
"11","11","retrieval","old_object","319","Stone_Spa.jpg",".","3","36","1","569"
"11","11","retrieval","old_object","320","Helicopter.jpg",".","3","36","1","564"
"11","11","retrieval","old_object","321","Box_WoodCrate.jpg",".","3","36","1","581"
"11","11","retrieval","new_object","322","ProjectorScreen.jpg",".",".","37","1","1088"
"11","11","retrieval","new_object","323","Makeup_Compact.jpg",".",".","36","0","894"
"11","11","retrieval","old_object","324","Bag_Toiletry.jpg",".","","36","1","560"
"11","11","retrieval","new_object","325","Barbecue_Charcoal.jpg",".",".","37","1","767"
"11","11","demographics_block","gender","1",".",".",".","female","1","17236"
"11","11","demographics_block","age","1",".",".",".","59","1","17236"
"11","11","demographics_block","education","1",".",".",".","14","1","17236"
"11","11","demographics_block","left_right_handed","2",".",".",".","Right","1","15751"
"11","11","demographics_block","raceoption1","2",".",".",".","","1","15751"
"11","11","demographics_block","raceoption2","2",".",".",".","","1","15751"
"11","11","demographics_block","raceoption3","2",".",".",".","","1","15751"
"11","11","demographics_block","raceoption4","2",".",".",".","","1","15751"
"11","11","demographics_block","raceoption5","2",".",".",".","","1","15751"
"11","11","demographics_block","raceoption6","2",".",".",".","","1","15751"
"11","11","demographics_block","raceoption7","2",".",".",".","6","1","15751"
"11","11","demographics_block","raceoption8","2",".",".",".","","1","15751"
"11","11","demographics_block","raceoption9","2",".",".",".","","1","15751"
"11","11","demographics_block","raceother","2",".",".",".","","1","15751"
"11","11","demographics_block","raceother","2",".",".",".","","1","15751"
"11","11","demographics_block","english_language","2",".",".",".","Yes","1","15751"
"11","11","demographics_block","other","2",".",".",".","","1","15751"
"11","11","demographics_block","eyesight","3",".",".",".","Yes","1","6605"
"11","11","demographics_block","colorblind","3",".",".",".","No","1","6605"
"18","18","encoding","encoding","1","HairBand.jpg","3",".","37","0","817"
"18","18","encoding","encoding","2","Bus_DoubleDecker.jpg","3",".","37","0","820"
"18","18","encoding","encoding","3","Notepad.jpg","3",".","37","0","526"
"18","18","encoding","encoding","4","Suit_Women.jpg","1",".","37","0","536"
"18","18","encoding","encoding","5","Canister_Tea.jpg","3",".","37","0","499"
"18","18","encoding","encoding","6","Box_WoodCrate.jpg","3",".","37","0","756"
"18","18","encoding","encoding","7","ComputerKey_Escape.jpg","1",".","37","0","750"
"18","18","encoding","encoding","8","Toy_TrailerAirport.jpg","3",".","37","0","745"
"18","18","encoding","encoding","9","Tape_Dispenser.jpg","3",".","37","0","971"
"18","18","encoding","encoding","10","FuzzyDice.jpg","1",".","37","0","653"
"18","18","encoding","encoding","11","Pouch_Red.jpg","3",".","37","0","630"
"18","18","encoding","encoding","12","Sign_SlipperyRoad.jpg","3",".","37","0","448"
"18","18","encoding","encoding","13","FlintIgniter.jpg","3",".","37","0","651"
"18","18","encoding","encoding","14","Otoscope.jpg","3",".","37","0","565"
"18","18","encoding","encoding","15","Dragonfly.jpg","3",".","37","0","607"
"18","18","encoding","encoding","16","CDstack.jpg","1",".","37","0","729"
"18","18","encoding","encoding","17","Coral.jpg","3",".","36","0","843"
"18","18","encoding","encoding","18","Snowpea.jpg","1",".","36","0","566"
"18","18","encoding","encoding","19","Toy_Christmastree.jpg","3",".","37","0","704"
"18","18","encoding","encoding","20","TowelRack_Metal.jpg","3",".","37","0","818"
"18","18","encoding","encoding","21","Car_Buggy.jpg","1",".","37","0","660"
"18","18","encoding","encoding","22","Blueberry.jpg","3",".","36","0","647"
"18","18","encoding","encoding","23","MatchBook.jpg","3",".","37","0","519"
"18","18","encoding","encoding","24","Ginger.jpg","1",".","36","0","714"
"18","18","encoding","encoding","25","Carrot.jpg","3",".","36","0","476"
"18","18","encoding","encoding","26","Clippers_Glass.jpg","3",".","37","0","614"
"18","18","encoding","encoding","27","Coral.jpg","3",".","36","0","592"
"18","18","encoding","encoding","28","Bag_Toiletry.jpg","3",".","37","0","506"
"18","18","encoding","encoding","29","Boat_Colourful.jpg","3",".","37","0","636"
"18","18","encoding","encoding","30","Stool_Camping.jpg","1",".","37","0","598"
"18","18","encoding","encoding","31","Match.jpg","3",".","37","0","568"
"18","18","encoding","encoding","32","Toy_Firetruck.jpg","1",".","37","0","450"
"18","18","encoding","encoding","33","Toy_DonkeyFur.jpg","3",".","36","0","771"
"18","18","encoding","encoding","34","HairClipper.jpg","1",".","0","0","1000"
"18","18","encoding","encoding","35","Case_CD.jpg","3",".","37","0","512"
"18","18","encoding","encoding","36","Stick_Stirring.jpg","3",".","37","0","651"
"18","18","encoding","encoding","37","Shoes_Mould.jpg","3",".","37","0","621"
"18","18","encoding","encoding","38","Ruler_Wooden.jpg","3",".","37","0","535"
"18","18","encoding","encoding","39","PersonWooden.jpg","1",".","37","0","537"
"18","18","encoding","encoding","40","Paddle_Ball.jpg","3",".","37","0","513"
"18","18","encoding","encoding","41","Mitt_Blue.jpg","1",".","37","0","628"
"18","18","encoding","encoding","42","TreeStump.jpg","3",".","36","0","605"
"18","18","encoding","encoding","43","Shoes_Mould.jpg","3",".","37","0","639"
"18","18","encoding","encoding","44","Ruler_Wooden.jpg","3",".","37","0","463"
"18","18","encoding","encoding","45","LintRemover.jpg","1",".","37","0","530"
"18","18","encoding","encoding","46","Bucket_WoodenLight.jpg","3",".","37","0","460"
"18","18","encoding","encoding","47","TowelRack_Metal.jpg","3",".","37","0","510"
"18","18","encoding","encoding","48","WalkieTalkie_Yellow.jpg","3",".","37","0","480"
"18","18","encoding","encoding","49","Neckrest.jpg","3",".","37","0","443"
"18","18","encoding","encoding","50","Cheeseburger.jpg","3",".","37","0","677"
"18","18","encoding","encoding","51","Shirt_Tshirt.jpg","3",".","37","0","487"
"18","18","encoding","encoding","52","Piano_Upright.jpg","1",".","37","0","457"
"18","18","encoding","encoding","53","Flashlight.jpg","3",".","37","0","510"
"18","18","encoding","encoding","54","Camera_Video.jpg","1",".","37","0","439"
"18","18","encoding","encoding","55","Paddle_Ball.jpg","3",".","37","0","424"
"18","18","encoding","encoding","56","Fan_Straw.jpg","1",".","37","0","426"
"18","18","encoding","encoding","57","Toy_TrailerAirport.jpg","3",".","37","0","444"
"18","18","encoding","encoding","58","Lynx.jpg","3",".","37","0","678"
"18","18","encoding","encoding","59","Decoration_ChristmasWhite.jpg","3",".","37","0","489"
"18","18","encoding","encoding","60","Glove_Baseball.jpg","1",".","37","0","435"
"18","18","encoding","encoding","61","PowderProtein.jpg","3",".","37","0","470"
"18","18","encoding","encoding","62","PowderProtein.jpg","3",".","37","0","374"
"18","18","encoding","encoding","63","ShinPads.jpg","3",".","37","0","489"
"18","18","encoding","encoding","64","Toy_BearBrownPlushie.jpg","3",".","37","0","602"
"18","18","encoding","encoding","65","Squash_Butternut.jpg","3",".","37","0","412"
"18","18","encoding","encoding","67","Ruler_Wooden.jpg","3",".","37","0","482"
"18","18","encoding","encoding","68","Notepad.jpg","3",".","37","0","460"
"18","18","encoding","encoding","69","Nail.jpg","1",".","37","0","422"
"18","18","encoding","encoding","70","Stick_Stirring.jpg","3",".","37","0","408"
"18","18","encoding","encoding","71","Helicopter.jpg","3",".","37","0","458"
"18","18","encoding","encoding","72","Toy_BeadMaze.jpg","3",".","37","0","453"
"18","18","encoding","encoding","73","BrainSagittal.jpg","3",".","37","0","703"
"18","18","encoding","encoding","74","Walkman.jpg","3",".","37","0","481"
"18","18","encoding","encoding","75","Jars_PetFood.jpg","3",".","37","0","475"
"18","18","encoding","encoding","76","Hat_Police.jpg","1",".","37","0","541"
"18","18","encoding","encoding","77","BrainSagittal.jpg","3",".","37","0","464"
"18","18","encoding","encoding","78","TelescopeSpacecraft.jpg","1",".","37","0","434"
"18","18","encoding","encoding","79","Coral.jpg","3",".","36","0","675"
"18","18","encoding","encoding","80","WaterCooler.jpg","3",".","37","0","622"
"18","18","encoding","encoding","81","Flashlight.jpg","3",".","37","0","631"
"18","18","encoding","encoding","82","Paddle_Canoe.jpg","3",".","37","0","449"
"18","18","encoding","encoding","83","Lynx.jpg","3",".","36","0","507"
"18","18","encoding","encoding","84","Paddle_Canoe.jpg","3",".","37","0","413"
"18","18","encoding","encoding","85","Card_Deck.jpg","1",".","37","0","584"
"18","18","encoding","encoding","86","ShoeLace_Flat.jpg","3",".","37","0","482"
"18","18","encoding","encoding","87","TowelRack_Brown.jpg","3",".","37","0","404"
"18","18","encoding","encoding","88","Toy_Ladybug.jpg","3",".","37","0","837"
"18","18","encoding","encoding","89","TowelRack_Metal.jpg","3",".","37","0","416"
"18","18","encoding","encoding","90","BrainSagittal.jpg","3",".","37","0","474"
"18","18","encoding","encoding","91","Celery.jpg","1",".","36","0","556"
"18","18","encoding","encoding","92","VinylRecord.jpg","1",".","37","0","486"
"18","18","encoding","encoding","93","Drum_Ramadan.jpg","1",".","37","0","465"
"18","18","encoding","encoding","94","Broccoli.jpg","3",".","36","0","491"
"18","18","encoding","encoding","95","Toy_Ladybug.jpg","3",".","37","0","493"
"18","18","encoding","encoding","96","Toy_Wooden rings.jpg","1",".","37","0","528"
"18","18","encoding","encoding","97","Helicopter.jpg","3",".","37","0","546"
"18","18","encoding","encoding","98","Squash_Butternut.jpg","3",".","36","0","860"
"18","18","encoding","encoding","99","BowlingPin.jpg","3",".","37","0","702"
"18","18","encoding","encoding","100","Stone_Spa.jpg","3",".","37","0","552"
"18","18","encoding","encoding","101","MatchBook.jpg","3",".","37","0","458"
"18","18","encoding","encoding","102","Toy_Bat.jpg","1",".","36","0","700"
"18","18","encoding","encoding","103","Coin.jpg","3",".","37","0","447"
"18","18","encoding","encoding","104","Desk_Office.jpg","3",".","37","0","433"
"18","18","encoding","encoding","105","Coin.jpg","3",".","37","0","467"
"18","18","encoding","encoding","106","DeepFryer.jpg","1",".","37","0","594"
"18","18","encoding","encoding","107","Pretzel_Sticks.jpg","1",".","36","0","816"
"18","18","encoding","encoding","108","GrillRack.jpg","1",".","37","0","474"
"18","18","encoding","encoding","109","Computer_ExpansionCard.jpg","3",".","37","0","636"
"18","18","encoding","encoding","110","Suitcase.jpg","3",".","37","0","878"
"18","18","encoding","encoding","111","ColoringSet.jpg","1",".","37","0","688"
"18","18","encoding","encoding","112","NailFiles.jpg","1",".","37","0","530"
"18","18","encoding","encoding","113","Puzzle_Animal.jpg","1",".","37","0","749"
"18","18","encoding","encoding","114","Bus_DoubleDecker.jpg","3",".","37","0","751"
"18","18","encoding","encoding","115","Box_Cutlery.jpg","1",".","37","0","753"
"18","18","encoding","encoding","116","BowlingPin.jpg","3",".","37","0","427"
"18","18","encoding","encoding","117","WaterCooler.jpg","3",".","37","0","813"
"18","18","encoding","encoding","118","Card_TwoSpade.jpg","1",".","37","0","801"
"18","18","encoding","encoding","119","Backhoe.jpg","3",".","37","0","666"
"18","18","encoding","encoding","120","Squash_Butternut.jpg","3",".","36","0","516"
"18","18","encoding","encoding","121","Toy_BeadMaze.jpg","3",".","37","0","382"
"18","18","encoding","encoding","122","Lynx.jpg","3",".","36","0","552"
"18","18","encoding","encoding","123","Speakers_Theatre.jpg","1",".","37","0","706"
"18","18","encoding","encoding","124","Dog_Bulldog.jpg","3",".","36","0","556"
"18","18","encoding","encoding","125","Decoration_ChristmasWhite.jpg","3",".","37","0","462"
"18","18","encoding","encoding","126","TreeStump.jpg","3",".","36","0","585"
"18","18","encoding","encoding","127","PowderProtein.jpg","3",".","37","0","651"
"18","18","encoding","encoding","128","Lobster.jpg","3",".","37","0","413"
"18","18","encoding","encoding","129","IroningBoard.jpg","1",".","37","0","439"
"18","18","encoding","encoding","130","Pouch_Red.jpg","3",".","37","0","534"
"18","18","encoding","encoding","131","Seeder.jpg","1",".","37","0","522"
"18","18","encoding","encoding","133","Snorkle.jpg","1",".","37","0","467"
"18","18","encoding","encoding","134","ClothesDryingRack.jpg","1",".","37","0","484"
"18","18","encoding","encoding","135","ShoeLace_Flat.jpg","3",".","37","0","662"
"18","18","encoding","encoding","136","Heater_ElectricUpright.jpg","3",".","37","0","472"
"18","18","encoding","encoding","137","Match.jpg","3",".","37","0","531"
"18","18","encoding","encoding","138","Pyramid.jpg","3",".","0","0","1000"
"18","18","encoding","encoding","139","Canister_Tea.jpg","3",".","37","0","461"
"18","18","encoding","encoding","140","Sphinx.jpg","3",".","37","0","511"
"18","18","encoding","encoding","141","Protractor.jpg","1",".","37","0","476"
"18","18","encoding","encoding","142","Bowl_Chopsticks.jpg","1",".","37","0","492"
"18","18","encoding","encoding","143","ShinPads.jpg","3",".","37","0","462"
"18","18","encoding","encoding","144","Ostrich.jpg","3",".","36","0","616"
"18","18","encoding","encoding","145","Coin.jpg","3",".","37","0","450"
"18","18","encoding","encoding","146","Sign_SlipperyRoad.jpg","3",".","37","0","373"
"18","18","encoding","encoding","147","Broccoli.jpg","3",".","36","0","503"
"18","18","encoding","encoding","148","Toy_Christmastree.jpg","3",".","37","0","593"
"18","18","encoding","encoding","149","Suitcase.jpg","3",".","37","0","507"
"18","18","encoding","encoding","150","Tray_Metal.jpg","3",".","37","0","405"
"18","18","encoding","encoding","151","Computer_ExpansionCard.jpg","3",".","37","0","431"
"18","18","encoding","encoding","152","Scorpion.jpg","3",".","36","0","517"
"18","18","encoding","encoding","153","Sphinx.jpg","3",".","37","0","582"
"18","18","encoding","encoding","154","Toy_BearBrownPlushie.jpg","3",".","37","0","705"
"18","18","encoding","encoding","155","Carrot.jpg","3",".","37","0","700"
"18","18","encoding","encoding","156","Pasta_Fettuccine.jpg","3",".","37","0","589"
"18","18","encoding","encoding","157","Sandwich_Ham.jpg","1",".","36","0","615"
"18","18","encoding","encoding","158","Canister_Tea.jpg","3",".","37","0","401"
"18","18","encoding","encoding","159","DonaldDuck_Toy.jpg","1",".","37","0","474"
"18","18","encoding","encoding","160","Backhoe.jpg","3",".","37","0","453"
"18","18","encoding","encoding","161","Dog_Bulldog.jpg","3",".","36","0","551"
"18","18","encoding","encoding","162","Pouch_Red.jpg","3",".","37","0","402"
"18","18","encoding","encoding","163","Mat_Bamboo.jpg","3",".","37","0","380"
"18","18","encoding","encoding","164","Bucket_WoodenLight.jpg","3",".","37","0","414"
"18","18","encoding","encoding","165","Toy_BeadMaze.jpg","3",".","37","0","416"
"18","18","encoding","encoding","166","CarLighter.jpg","1",".","37","0","418"
"18","18","encoding","encoding","167","Stone_Spa.jpg","3",".","37","0","421"
"18","18","encoding","encoding","168","Toy_Ladybug.jpg","3",".","37","0","423"
"18","18","encoding","encoding","169","MortarPestle_WhiteMarble.jpg","1",".","37","0","465"
"18","18","encoding","encoding","170","Tape_Dispenser.jpg","3",".","37","0","459"
"18","18","encoding","encoding","171","SoapDish.jpg","1",".","37","0","429"
"18","18","encoding","encoding","172","Shirt_Tshirt.jpg","3",".","37","0","456"
"18","18","encoding","encoding","173","Mat_Bamboo.jpg","3",".","37","0","474"
"18","18","encoding","encoding","174","Shovel_Garden.jpg","3",".","37","0","594"
"18","18","encoding","encoding","175","Dropper.jpg","1",".","37","0","325"
"18","18","encoding","encoding","176","Heater_Outdoor.jpg","3",".","37","0","80"
"18","18","encoding","encoding","177","Heater_Outdoor.jpg","3",".","37","0","506"
"18","18","encoding","encoding","178","Toy_TrailerAirport.jpg","3",".","37","0","460"
"18","18","encoding","encoding","179","Balcony.jpg","3",".","37","0","518"
"18","18","encoding","encoding","180","FlintIgniter.jpg","3",".","37","0","424"
"18","18","encoding","encoding","181","Toy_DonkeyFur.jpg","3",".","37","0","651"
"18","18","encoding","encoding","182","Otoscope.jpg","3",".","37","0","365"
"18","18","encoding","encoding","183","Scorpion.jpg","3",".","36","0","567"
"18","18","encoding","encoding","184","WaterHeater.jpg","3",".","37","0","385"
"18","18","encoding","encoding","185","Pasta_Fettuccine.jpg","3",".","37","0","387"
"18","18","encoding","encoding","186","TreeStump.jpg","3",".","36","0","622"
"18","18","encoding","encoding","187","TowelRack_Brown.jpg","3",".","37","0","424"
"18","18","encoding","encoding","188","Shirt_Tshirt.jpg","3",".","37","0","361"
"18","18","encoding","encoding","189","Clippers_Glass.jpg","3",".","37","0","404"
"18","18","encoding","encoding","190","Flashlight.jpg","3",".","37","0","375"
"18","18","encoding","encoding","191","MatchBook.jpg","3",".","37","0","449"
"18","18","encoding","encoding","192","Sphinx.jpg","3",".","37","0","515"
"18","18","encoding","encoding","193","BowlingPin.jpg","3",".","37","0","381"
"18","18","encoding","encoding","194","Heater_ElectricUpright.jpg","3",".","37","0","415"
"18","18","encoding","encoding","195","SnowmanDecor.jpg","1",".","37","0","466"
"18","18","encoding","encoding","196","Notepad.jpg","3",".","37","0","492"
"18","18","encoding","encoding","197","Backhoe.jpg","3",".","37","0","526"
"18","18","encoding","encoding","199","Barrel_Wine.jpg","3",".","37","0","616"
"18","18","encoding","encoding","200","LeafBlower.jpg","3",".","37","0","451"
"18","18","encoding","encoding","201","Dragonfly.jpg","3",".","36","0","685"
"18","18","encoding","encoding","202","WaterCooler.jpg","3",".","37","0","622"
"18","18","encoding","encoding","203","Dice.jpg","1",".","37","0","577"
"18","18","encoding","encoding","204","Tray_Metal.jpg","3",".","37","0","690"
"18","18","encoding","encoding","205","Shovel_Garden.jpg","3",".","37","0","499"
"18","18","encoding","encoding","206","ShinPads.jpg","3",".","37","0","463"
"18","18","encoding","encoding","207","Neckrest.jpg","3",".","37","0","513"
"18","18","encoding","encoding","208","Bicycle_Kids.jpg","1",".","37","0","579"
"18","18","encoding","encoding","209","Box_WoodCrate.jpg","3",".","37","0","525"
"18","18","encoding","encoding","210","Puffin.jpg","3",".","36","0","663"
"18","18","encoding","encoding","211","Puffin.jpg","3",".","36","0","450"
"18","18","encoding","encoding","212","WaterHeater.jpg","3",".","37","0","388"
"18","18","encoding","encoding","213","Shoes_Mould.jpg","3",".","37","0","590"
"18","18","encoding","encoding","214","Helicopter.jpg","3",".","37","0","560"
"18","18","encoding","encoding","215","Boat_Colourful.jpg","3",".","37","0","458"
"18","18","encoding","encoding","216","TowelRack_Brown.jpg","3",".","37","0","413"
"18","18","encoding","encoding","217","Broccoli.jpg","3",".","36","0","477"
"18","18","encoding","encoding","218","Barrel_Wine.jpg","3",".","37","0","487"
"18","18","encoding","encoding","219","Box_WoodCrate.jpg","3",".","37","0","442"
"18","18","encoding","encoding","220","Heater_ElectricUpright.jpg","3",".","37","0","372"
"18","18","encoding","encoding","221","FlintIgniter.jpg","3",".","37","0","470"
"18","18","encoding","encoding","222","Suitcase.jpg","3",".","37","0","440"
"18","18","encoding","encoding","223","Computer_ExpansionCard.jpg","3",".","37","0","458"
"18","18","encoding","encoding","224","WaterHeater.jpg","3",".","37","0","502"
"18","18","encoding","encoding","225","Stick_Stirring.jpg","3",".","37","0","414"
"18","18","encoding","encoding","226","RadioactiveContainer.jpg","3",".","37","0","456"
"18","18","encoding","encoding","227","WalkieTalkie_Yellow.jpg","3",".","37","0","425"
"18","18","encoding","encoding","228","Tray_Medical.jpg","1",".","37","0","451"
"18","18","encoding","encoding","229","Pyramid.jpg","3",".","37","0","517"
"18","18","encoding","encoding","230","LeafBlower.jpg","3",".","37","0","400"
"18","18","encoding","encoding","231","PaperCutter.jpg","1",".","37","0","409"
"18","18","encoding","encoding","232","Blueberry.jpg","3",".","36","0","692"
"18","18","encoding","encoding","233","Pear_Green.jpg","3",".","36","0","534"
"18","18","encoding","encoding","234","Bus_DoubleDecker.jpg","3",".","37","0","368"
"18","18","encoding","encoding","235","Toy_DonkeyFur.jpg","3",".","37","0","498"
"18","18","encoding","encoding","236","Balcony.jpg","3",".","37","0","372"
"18","18","encoding","encoding","237","Tape_Dispenser.jpg","3",".","37","0","486"
"18","18","encoding","encoding","238","Compressor.jpg","3",".","37","0","489"
"18","18","encoding","encoding","239","Dragonfly.jpg","3",".","37","0","427"
"18","18","encoding","encoding","240","Clamp_Screw.jpg","1",".","37","0","717"
"18","18","encoding","encoding","241","Cheeseburger.jpg","3",".","37","0","679"
"18","18","encoding","encoding","242","Lobster.jpg","3",".","36","0","625"
"18","18","encoding","encoding","243","RadioactiveContainer.jpg","3",".","37","0","500"
"18","18","encoding","encoding","244","Mask_VenetianCat.jpg","1",".","37","0","574"
"18","18","encoding","encoding","245","Pyramid.jpg","3",".","37","0","416"
"18","18","encoding","encoding","246","Desk_Office.jpg","3",".","37","0","401"
"18","18","encoding","encoding","247","Lips_Wax.jpg","1",".","37","0","708"
"18","18","encoding","encoding","248","EyeChart.jpg","1",".","37","0","582"
"18","18","encoding","encoding","249","Golf_Club.jpg","1",".","37","0","496"
"18","18","encoding","encoding","250","Lobster.jpg","3",".","36","0","602"
"18","18","encoding","encoding","251","Walkman.jpg","3",".","37","0","524"
"18","18","encoding","encoding","252","Desk_Office.jpg","3",".","37","0","526"
"18","18","encoding","encoding","253","Bag_Toiletry.jpg","3",".","37","0","976"
"18","18","encoding","encoding","254","Decoration_ChristmasWhite.jpg","3",".","37","0","443"
"18","18","encoding","encoding","255","Puffin.jpg","3",".","36","0","629"
"18","18","encoding","encoding","256","WalkieTalkie_Yellow.jpg","3",".","37","0","399"
"18","18","encoding","encoding","257","Walkman.jpg","3",".","37","0","457"
"18","18","encoding","encoding","258","Candleholder_LampShaped.jpg","1",".","37","0","427"
"18","18","encoding","encoding","259","Hat_Feather.jpg","1",".","37","0","678"
"18","18","encoding","encoding","260","Tray_Metal.jpg","3",".","37","0","416"
"18","18","encoding","encoding","261","Jars_PetFood.jpg","3",".","37","0","498"
"18","18","encoding","encoding","262","Toy_Rooster.jpg","1",".","37","0","700"
"18","18","encoding","encoding","263","Airplane_Small.jpg","1",".","37","0","454"
"18","18","encoding","encoding","265","Pear_Green.jpg","3",".","36","0","532"
"18","18","encoding","encoding","266","Balcony.jpg","3",".","37","0","758"
"18","18","encoding","encoding","267","Cloud.jpg","1",".","37","0","616"
"18","18","encoding","encoding","268","IceCubes.jpg","1",".","0","0","1000"
"18","18","encoding","encoding","269","Bag_Toiletry.jpg","3",".","37","0","428"
"18","18","encoding","encoding","270","Neckrest.jpg","3",".","37","0","486"
"18","18","encoding","encoding","271","Pear_Green.jpg","3",".","36","0","680"
"18","18","encoding","encoding","272","HairBand.jpg","3",".","37","0","410"
"18","18","encoding","encoding","273","Barrel_Wine.jpg","3",".","37","0","454"
"18","18","encoding","encoding","274","PumpBreast.jpg","1",".","37","0","551"
"18","18","encoding","encoding","275","Dog_Bulldog.jpg","3",".","36","0","545"
"18","18","encoding","encoding","276","Jars_PetFood.jpg","3",".","37","0","571"
"18","18","encoding","encoding","277","Cheeseburger.jpg","3",".","37","0","805"
"18","18","encoding","encoding","278","Shovel_Garden.jpg","3",".","37","0","911"
"18","18","encoding","encoding","279","RecorderInstrument.jpg","1",".","37","0","554"
"18","18","encoding","encoding","280","Clippers_Glass.jpg","3",".","37","0","436"
"18","18","encoding","encoding","281","Glasses_Sun.jpg","1",".","37","0","694"
"18","18","encoding","encoding","282","Compressor.jpg","3",".","37","0","520"
"18","18","encoding","encoding","283","Garlic_Clove.jpg","1",".","37","0","409"
"18","18","encoding","encoding","284","RadioactiveContainer.jpg","3",".","37","0","395"
"18","18","encoding","encoding","285","PaperTowel_Brown.jpg","1",".","37","0","726"
"18","18","encoding","encoding","286","SaladCaesar.jpg","1",".","36","0","727"
"18","18","encoding","encoding","287","Paddle_Ball.jpg","3",".","37","0","562"
"18","18","encoding","encoding","288","Sign_SlipperyRoad.jpg","3",".","37","0","483"
"18","18","encoding","encoding","289","Match.jpg","3",".","37","0","478"
"18","18","encoding","encoding","290","Pasta_Fettuccine.jpg","3",".","37","0","502"
"18","18","encoding","encoding","291","Blueberry.jpg","3",".","36","0","608"
"18","18","encoding","encoding","292","HairBand.jpg","3",".","37","0","410"
"18","18","encoding","encoding","293","Toy_BearBrownPlushie.jpg","3",".","37","0","549"
"18","18","encoding","encoding","294","Compressor.jpg","3",".","37","0","406"
"18","18","encoding","encoding","295","ShoeLace_Flat.jpg","3",".","37","0","457"
"18","18","encoding","encoding","296","Stone_Spa.jpg","3",".","37","0","731"
"18","18","encoding","encoding","297","Case_CD.jpg","3",".","37","0","533"
"18","18","encoding","encoding","298","Level.jpg","1",".","37","0","887"
"18","18","encoding","encoding","299","Sink_Kitchen.jpg","1",".","37","0","649"
"18","18","encoding","encoding","300","Makeup_Bag.jpg","1",".","37","0","668"
"18","18","encoding","encoding","301","Boar.jpg","3",".","36","0","606"
"18","18","encoding","encoding","302","Scorpion.jpg","3",".","36","0","987"
"18","18","encoding","encoding","303","Boar.jpg","3",".","36","0","610"
"18","18","encoding","encoding","304","LeafBlower.jpg","3",".","37","0","716"
"18","18","encoding","encoding","305","Ostrich.jpg","3",".","36","0","855"
"18","18","encoding","encoding","306","Boat_Colourful.jpg","3",".","37","0","929"
"18","18","encoding","encoding","307","Ostrich.jpg","3",".","36","0","539"
"18","18","encoding","encoding","308","OperaGlasses.jpg","1",".","37","0","445"
"18","18","encoding","encoding","309","Toy_Taxi.jpg","1",".","37","0","455"
"18","18","encoding","encoding","310","Case_CD.jpg","3",".","37","0","479"
"18","18","encoding","encoding","311","Mat_Bamboo.jpg","3",".","37","0","420"
"18","18","encoding","encoding","312","Bucket_WoodenLight.jpg","3",".","37","0","398"
"18","18","encoding","encoding","313","Cologne.jpg","1",".","37","0","408"
"18","18","encoding","encoding","314","Carrot.jpg","3",".","36","0","594"
"18","18","encoding","encoding","315","Shrimp.jpg","1",".","36","0","589"
"18","18","encoding","encoding","316","Paddle_Canoe.jpg","3",".","37","0","471"
"18","18","encoding","encoding","317","Boar.jpg","3",".","36","0","505"
"18","18","encoding","encoding","318","Stick_IceHockey.jpg","1",".","37","0","443"
"18","18","encoding","encoding","319","Toy_Christmastree.jpg","3",".","37","0","613"
"18","18","encoding","encoding","320","Toy_Dog.jpg","1",".","37","0","864"
"18","18","encoding","encoding","321","Heater_Outdoor.jpg","3",".","37","0","866"
"18","18","encoding","encoding","322","Bagpipes.jpg","1",".","37","0","915"
"18","18","encoding","encoding","323","Otoscope.jpg","3",".","37","0","716"
"18","18","encoding","encoding","324","VacuumHose.jpg","1",".","37","0","568"
"18","18","encoding","encoding","325","HairBand.jpg","",".","37","0","619"
"18","18","retrieval","old_object","1","Bag_Toiletry.jpg",".","3","36","1","998"
"18","18","retrieval","new_object","2","Bird_Duck.jpg",".",".","37","1","736"
"18","18","retrieval","old_object","3","Lips_Wax.jpg",".","1","36","1","1082"
"18","18","retrieval","old_object","4","Card_TwoSpade.jpg",".","1","36","1","1028"
"18","18","retrieval","old_object","5","Hat_Feather.jpg",".","1","36","1","726"
"18","18","retrieval","new_object","6","Toy_Truck.jpg",".",".","37","1","712"
"18","18","retrieval","new_object","7","Wontons.jpg",".",".","37","1","801"
"18","18","retrieval","new_object","8","Hockey_Puck.jpg",".",".","37","1","707"
"18","18","retrieval","new_object","9","Cable_JumpStart.jpg",".",".","37","1","629"
"18","18","retrieval","new_object","10","Bark.jpg",".",".","37","1","495"
"18","18","retrieval","new_object","11","Canister_Oil.jpg",".",".","37","1","497"
"18","18","retrieval","new_object","12","SelfieStick.jpg",".",".","37","1","570"
"18","18","retrieval","new_object","13","Mask_Ski.jpg",".",".","37","1","539"
"18","18","retrieval","old_object","14","Toy_Dog.jpg",".","1","37","0","494"
"18","18","retrieval","old_object","15","OperaGlasses.jpg",".","1","36","1","1008"
"18","18","retrieval","new_object","16","Scythe.jpg",".",".","37","1","641"
"18","18","retrieval","old_object","17","Bucket_WoodenLight.jpg",".","3","36","1","643"
"18","18","retrieval","new_object","18","Milkshake_Strawberry.jpg",".",".","37","1","557"
"18","18","retrieval","new_object","19","Umbrella_Classic.jpg",".",".","37","1","566"
"18","18","retrieval","old_object","20","Drum_Ramadan.jpg",".","1","37","0","688"
"18","18","retrieval","old_object","21","Bus_DoubleDecker.jpg",".","3","36","1","578"
"18","18","retrieval","new_object","22","Desk_White.jpg",".",".","37","1","772"
"18","18","retrieval","old_object","23","Compressor.jpg",".","3","36","1","717"
"18","18","retrieval","new_object","24","Mug_Travel.jpg",".",".","37","1","671"
"18","18","retrieval","old_object","25","LintRemover.jpg",".","1","37","0","625"
"18","18","retrieval","old_object","26","Toy_BeadMaze.jpg",".","3","36","1","599"
"18","18","retrieval","old_object","27","RadioactiveContainer.jpg",".","3","36","1","549"
"18","18","retrieval","old_object","28","Jars_PetFood.jpg",".","3","36","1","599"
"18","18","retrieval","old_object","29","TreeStump.jpg",".","3","36","1","697"
"18","18","retrieval","old_object","30","SaladCaesar.jpg",".","1","36","1","739"
"18","18","retrieval","new_object","31","Bucket_Halloween.jpg",".",".","37","1","540"
"18","18","retrieval","old_object","32","Toy_BearBrownPlushie.jpg",".","3","36","1","622"
"18","18","retrieval","new_object","33","Mailbox_Antique.jpg",".",".","37","1","578"
"18","18","retrieval","new_object","34","Ladybug.jpg",".",".","37","1","722"
"18","18","retrieval","old_object","35","Balcony.jpg",".","3","36","1","628"
"18","18","retrieval","new_object","36","GasStation.jpg",".",".","37","1","581"
"18","18","retrieval","old_object","37","Broccoli.jpg",".","3","36","1","591"
"18","18","retrieval","new_object","38","Glass_Beer.jpg",".",".","37","1","721"
"18","18","retrieval","new_object","39","Bread_Carrot.jpg",".",".","37","1","587"
"18","18","retrieval","new_object","40","Bread_Loaf.jpg",".",".","37","1","757"
"18","18","retrieval","new_object","41","Toy_PandaPlushie.jpg",".",".","37","1","695"
"18","18","retrieval","new_object","42","Heelpad.jpg",".",".","37","1","529"
"18","18","retrieval","old_object","43","Ginger.jpg",".","1","36","1","803"
"18","18","retrieval","new_object","44","ManholeCover.jpg",".",".","37","1","627"
"18","18","retrieval","new_object","45","Tube_Glue.jpg",".",".","37","1","1095"
"18","18","retrieval","new_object","46","Sign_Construction.jpg",".",".","37","1","1360"
"18","18","retrieval","new_object","47","CodeDoorLock.jpg",".",".","37","1","578"
"18","18","retrieval","new_object","48","BumperCar.jpg",".",".","37","1","524"
"18","18","retrieval","old_object","49","Stool_Camping.jpg",".","1","37","0","494"
"18","18","retrieval","old_object","50","Mitt_Blue.jpg",".","1","37","0","624"
"18","18","retrieval","new_object","51","Hubcap.jpg",".",".","37","1","625"
"18","18","retrieval","old_object","52","Match.jpg",".","3","36","1","675"
"18","18","retrieval","new_object","53","SofaAntique.jpg",".",".","37","1","1228"
"18","18","retrieval","new_object","54","SatelliteDish.jpg",".",".","37","1","589"
"18","18","retrieval","new_object","55","Oars.jpg",".",".","37","1","903"
"18","18","retrieval","new_object","56","AirCompressor.jpg",".",".","36","0","713"
"18","18","retrieval","new_object","57","DoubleBass.jpg",".",".","37","1","1052"
"18","18","retrieval","old_object","58","RecorderInstrument.jpg",".","1","37","0","1045"
"18","18","retrieval","old_object","59","Protractor.jpg",".","1","37","0","623"
"18","18","retrieval","old_object","60","Makeup_Bag.jpg",".","1","36","1","1017"
"18","18","retrieval","old_object","61","Scorpion.jpg",".","3","36","1","537"
"18","18","retrieval","old_object","62","Dropper.jpg",".","1","37","0","547"
"18","18","retrieval","old_object","63","PersonWooden.jpg",".","1","36","1","789"
"18","18","retrieval","old_object","64","Hat_Police.jpg",".","1","37","0","646"
"18","18","retrieval","new_object","65","House_Wooden.jpg",".",".","37","1","600"
"18","18","retrieval","old_object","67","TelescopeSpacecraft.jpg",".","1","37","0","783"
"18","18","retrieval","new_object","68","Hat_Colonial.jpg",".",".","37","1","713"
"18","18","retrieval","old_object","69","Ruler_Wooden.jpg",".","3","36","1","587"
"18","18","retrieval","old_object","70","Clamp_Screw.jpg",".","1","37","0","773"
"18","18","retrieval","new_object","71","Thermometer_Room.jpg",".",".","37","1","855"
"18","18","retrieval","old_object","72","Toy_Bat.jpg",".","1","36","1","689"
"18","18","retrieval","new_object","73","Platter_Vegetables.jpg",".",".","37","1","651"
"18","18","retrieval","old_object","74","Flashlight.jpg",".","3","36","1","700"
"18","18","retrieval","new_object","75","Statue_Horse.jpg",".",".","37","1","654"
"18","18","retrieval","old_object","76","Pretzel_Sticks.jpg",".","1","36","1","728"
"18","18","retrieval","new_object","77","Bone.jpg",".",".","37","1","833"
"18","18","retrieval","old_object","78","Seeder.jpg",".","1","37","0","723"
"18","18","retrieval","new_object","79","Acorn.jpg",".",".","37","1","621"
"18","18","retrieval","new_object","80","Can_Oblong.jpg",".",".","37","1","518"
"18","18","retrieval","old_object","81","ComputerKey_Escape.jpg",".","1","36","1","672"
"18","18","retrieval","old_object","82","Celery.jpg",".","1","36","1","802"
"18","18","retrieval","old_object","83","Decoration_ChristmasWhite.jpg",".","3","36","1","596"
"18","18","retrieval","new_object","84","Tube_Paint.jpg",".",".","37","1","524"
"18","18","retrieval","new_object","85","SolderingIron.jpg",".",".","37","1","590"
"18","18","retrieval","new_object","86","Hanger.jpg",".",".","37","1","544"
"18","18","retrieval","old_object","87","Snorkle.jpg",".","1","36","1","722"
"18","18","retrieval","old_object","88","Card_Deck.jpg",".","1","37","0","492"
"18","18","retrieval","new_object","89","Handbag.jpg",".",".","36","0","763"
"18","18","retrieval","old_object","90","TowelRack_Metal.jpg",".","3","36","1","848"
"18","18","retrieval","new_object","91","Toy_MerryGoRound.jpg",".",".","37","1","665"
"18","18","retrieval","new_object","92","Mailbox_Community.jpg",".",".","37","1","566"
"18","18","retrieval","new_object","93","Cassette_Video.jpg",".",".","37","1","625"
"18","18","retrieval","new_object","94","Spear.jpg",".",".","37","1","661"
"18","18","retrieval","old_object","95","Puzzle_Animal.jpg",".","1","36","1","669"
"18","18","retrieval","old_object","96","Toy_Wooden rings.jpg",".","1","36","1","687"
"18","18","retrieval","old_object","97","Toy_Christmastree.jpg",".","3","36","1","689"
"18","18","retrieval","old_object","98","Stick_Stirring.jpg",".","3","36","1","539"
"18","18","retrieval","old_object","99","Speakers_Theatre.jpg",".","1","37","0","885"
"18","18","retrieval","old_object","100","Candleholder_LampShaped.jpg",".","1","37","0","655"
"18","18","retrieval","new_object","101","Candy_Lozenge.jpg",".",".","37","1","673"
"18","18","retrieval","old_object","102","WalkieTalkie_Yellow.jpg",".","3","36","1","707"
"18","18","retrieval","old_object","103","Sandwich_Ham.jpg",".","1","36","1","628"
"18","18","retrieval","old_object","104","Carrot.jpg",".","3","36","1","614"
"18","18","retrieval","new_object","105","Lens_Camera.jpg",".",".","37","1","696"
"18","18","retrieval","old_object","106","PaperCutter.jpg",".","1","37","0","546"
"18","18","retrieval","new_object","107","Bag_Diaper.jpg",".",".","37","1","604"
"18","18","retrieval","old_object","108","ColoringSet.jpg",".","1","36","1","614"
"18","18","retrieval","new_object","109","Cake_Cheese.jpg",".",".","37","1","632"
"18","18","retrieval","new_object","110","Wire_ElectricalSingle.jpg",".",".","37","1","650"
"18","18","retrieval","new_object","111","Corkboard.jpg",".",".","37","1","692"
"18","18","retrieval","old_object","112","Level.jpg",".","1","37","0","934"
"18","18","retrieval","new_object","113","Lollipop_Rainbow.jpg",".",".","37","1","568"
"18","18","retrieval","old_object","114","ShinPads.jpg",".","3","36","1","673"
"18","18","retrieval","old_object","115","Toy_Taxi.jpg",".","1","37","0","579"
"18","18","retrieval","new_object","116","Radish.jpg",".",".","37","1","645"
"18","18","retrieval","new_object","117","CoffeeLid.jpg",".",".","37","1","535"
"18","18","retrieval","old_object","118","Bowl_Chopsticks.jpg",".","1","37","0","737"
"18","18","retrieval","new_object","119","Van.jpg",".",".","37","1","747"
"18","18","retrieval","new_object","120","Spatula.jpg",".",".","37","1","869"
"18","18","retrieval","old_object","121","Dragonfly.jpg",".","3","36","1","951"
"18","18","retrieval","new_object","122","Taco.jpg",".",".","37","1","641"
"18","18","retrieval","new_object","123","Amp.jpg",".",".","37","1","658"
"18","18","retrieval","old_object","124","DeepFryer.jpg",".","1","37","0","644"
"18","18","retrieval","old_object","125","BrainSagittal.jpg",".","3","36","1","782"
"18","18","retrieval","new_object","126","Briefcase_Silver.jpg",".",".","37","1","840"
"18","18","retrieval","new_object","127","Bowl_Glass.jpg",".",".","37","1","1250"
"18","18","retrieval","new_object","128","DartBoard.jpg",".",".","37","1","956"
"18","18","retrieval","new_object","129","PagodaModel.jpg",".",".","37","1","702"
"18","18","retrieval","old_object","130","Paddle_Canoe.jpg",".","3","36","1","704"
"18","18","retrieval","new_object","131","Stove_WithOven.jpg",".",".","37","1","616"
"18","18","retrieval","new_object","133","Flags_CheckeredRacing.jpg",".",".","37","1","996"
"18","18","retrieval","old_object","134","Pear_Green.jpg",".","3","36","1","638"
"18","18","retrieval","new_object","135","MechanicalSpring.jpg",".",".","37","1","784"
"18","18","retrieval","old_object","136","Ostrich.jpg",".","3","36","1","714"
"18","18","retrieval","old_object","137","VinylRecord.jpg",".","1","36","1","691"
"18","18","retrieval","new_object","138","FireAlarm.jpg",".",".","37","1","813"
"18","18","retrieval","new_object","139","Lighter_Black.jpg",".",".","37","1","647"
"18","18","retrieval","new_object","140","Makeup_Compact.jpg",".",".","37","1","669"
"18","18","retrieval","new_object","141","Toy_LambPlushie.jpg",".",".","37","1","708"
"18","18","retrieval","new_object","142","Envelope_Manila.jpg",".",".","37","1","515"
"18","18","retrieval","old_object","143","Sign_SlipperyRoad.jpg",".","3","36","1","790"
"18","18","retrieval","old_object","144","Dice.jpg",".","1","37","0","544"
"18","18","retrieval","old_object","145","Lobster.jpg",".","3","36","1","770"
"18","18","retrieval","old_object","146","Canister_Tea.jpg",".","3","36","1","859"
"18","18","retrieval","old_object","147","Neckrest.jpg",".","3","36","1","1005"
"18","18","retrieval","old_object","148","Shoes_Mould.jpg",".","3","36","1","951"
"18","18","retrieval","new_object","149","Candy_Toffee.jpg",".",".","37","1","625"
"18","18","retrieval","new_object","150","Mask_HockeyGoalie.jpg",".",".","37","1","651"
"18","18","retrieval","old_object","151","Suitcase.jpg",".","3","36","1","781"
"18","18","retrieval","old_object","152","Case_CD.jpg",".","3","36","1","839"
"18","18","retrieval","new_object","153","Cannon.jpg",".",".","37","1","689"
"18","18","retrieval","old_object","154","Clippers_Glass.jpg",".","3","36","1","643"
"18","18","retrieval","new_object","155","Crab.jpg",".",".","37","1","772"
"18","18","retrieval","old_object","156","ClothesDryingRack.jpg",".","1","37","0","908"
"18","18","retrieval","new_object","157","IceCream_Popsicle.jpg",".",".","37","1","718"
"18","18","retrieval","new_object","158","Hedgehog.jpg",".",".","37","1","586"
"18","18","retrieval","old_object","159","Tape_Dispenser.jpg",".","3","37","0","626"
"18","18","retrieval","old_object","160","Shirt_Tshirt.jpg",".","3","36","1","604"
"18","18","retrieval","new_object","161","Toy_Lizard.jpg",".",".","37","1","646"
"18","18","retrieval","old_object","162","MatchBook.jpg",".","3","36","1","728"
"18","18","retrieval","old_object","163","Cloud.jpg",".","1","36","1","657"
"18","18","retrieval","old_object","164","Tray_Metal.jpg",".","3","36","1","659"
"18","18","retrieval","old_object","165","PaperTowel_Brown.jpg",".","1","36","1","669"
"18","18","retrieval","new_object","166","HoseNozzle.jpg",".",".","37","1","863"
"18","18","retrieval","new_object","167","Statue_Man.jpg",".",".","37","1","790"
"18","18","retrieval","new_object","168","WateringCan_Antique.jpg",".",".","37","1","632"
"18","18","retrieval","old_object","169","HairClipper.jpg",".","1","37","0","938"
"18","18","retrieval","old_object","170","Heater_ElectricUpright.jpg",".","3","36","1","708"
"18","18","retrieval","new_object","171","Cart_Janitor.jpg",".",".","37","1","662"
"18","18","retrieval","old_object","172","HairBand.jpg",".","3","36","1","695"
"18","18","retrieval","new_object","173","Light_Halogen.jpg",".",".","37","1","601"
"18","18","retrieval","old_object","174","Toy_Rooster.jpg",".","1","36","1","755"
"18","18","retrieval","new_object","175","SolderingWire.jpg",".",".","37","1","956"
"18","18","retrieval","new_object","176","Garlic_Whole.jpg",".",".","36","0","1118"
"18","18","retrieval","new_object","177","Clock_Interior.jpg",".",".","37","1","672"
"18","18","retrieval","new_object","178","Barometer_Wood.jpg",".",".","37","1","617"
"18","18","retrieval","old_object","179","ShoeLace_Flat.jpg",".","3","36","1","811"
"18","18","retrieval","new_object","180","Barometer.jpg",".",".","37","1","733"
"18","18","retrieval","new_object","181","Helmet_Football.jpg",".",".","37","1","580"
"18","18","retrieval","new_object","182","Clave.jpg",".",".","37","1","609"
"18","18","retrieval","old_object","183","Boat_Colourful.jpg",".","3","36","1","739"
"18","18","retrieval","new_object","184","TortillaChip.jpg",".",".","37","1","605"
"18","18","retrieval","new_object","185","Bible.jpg",".",".","37","1","758"
"18","18","retrieval","old_object","186","Shovel_Garden.jpg",".","3","36","1","672"
"18","18","retrieval","new_object","187","MousepadAndMouse.jpg",".",".","37","1","610"
"18","18","retrieval","new_object","188","Microwave.jpg",".",".","37","1","660"
"18","18","retrieval","new_object","189","Bread_Melon.jpg",".",".","37","1","718"
"18","18","retrieval","old_object","190","Cologne.jpg",".","1","36","1","752"
"18","18","retrieval","new_object","191","Bandage_Adhesive.jpg",".",".","37","1","562"
"18","18","retrieval","new_object","192","Case_Pencil.jpg",".",".","37","1","572"
"18","18","retrieval","new_object","193","Binder.jpg",".",".","37","1","628"
"18","18","retrieval","old_object","194","SoapDish.jpg",".","1","37","0","591"
"18","18","retrieval","new_object","195","Barbecue_Charcoal.jpg",".",".","37","1","761"
"18","18","retrieval","old_object","196","Stick_IceHockey.jpg",".","1","36","1","747"
"18","18","retrieval","new_object","197","Ship_Cruise.jpg",".",".","37","1","828"
"18","18","retrieval","new_object","199","Tree_Fir.jpg",".",".","37","1","574"
"18","18","retrieval","new_object","200","Bat_Cricket.jpg",".",".","37","1","648"
"18","18","retrieval","new_object","201","ProjectorScreen.jpg",".",".","37","1","586"
"18","18","retrieval","new_object","202","Arch_Triomphe.jpg",".",".","37","1","819"
"18","18","retrieval","old_object","203","Coral.jpg",".","3","36","1","717"
"18","18","retrieval","old_object","204","Otoscope.jpg",".","3","36","1","847"
"18","18","retrieval","new_object","205","Television.jpg",".",".","37","1","593"
"18","18","retrieval","old_object","206","FlintIgniter.jpg",".","3","36","1","723"
"18","18","retrieval","old_object","207","Boar.jpg",".","3","36","1","588"
"18","18","retrieval","old_object","208","Computer_ExpansionCard.jpg",".","3","36","1","686"
"18","18","retrieval","old_object","209","Bicycle_Kids.jpg",".","1","36","1","1240"
"18","18","retrieval","new_object","210","Jar_Honey.jpg",".",".","37","1","1034"
"18","18","retrieval","new_object","211","Bus_School.jpg",".",".","37","1","901"
"18","18","retrieval","new_object","212","Table_Saw.jpg",".",".","37","1","1029"
"18","18","retrieval","old_object","213","DonaldDuck_Toy.jpg",".","1","37","0","624"
"18","18","retrieval","old_object","214","Paddle_Ball.jpg",".","3","36","1","905"
"18","18","retrieval","old_object","215","Car_Buggy.jpg",".","1","37","0","667"
"18","18","retrieval","old_object","216","Glove_Baseball.jpg",".","1","37","0","1572"
"18","18","retrieval","old_object","217","Pyramid.jpg",".","3","36","1","670"
"18","18","retrieval","old_object","218","Pouch_Red.jpg",".","3","36","1","776"
"18","18","retrieval","old_object","219","CarLighter.jpg",".","1","37","0","602"
"18","18","retrieval","old_object","220","Bagpipes.jpg",".","1","37","0","692"
"18","18","retrieval","old_object","221","Camera_Video.jpg",".","1","36","1","857"
"18","18","retrieval","old_object","222","WaterCooler.jpg",".","3","36","1","855"
"18","18","retrieval","old_object","223","Glasses_Sun.jpg",".","1","36","1","979"
"18","18","retrieval","new_object","224","Backpack_Suitcase.jpg",".",".","37","1","1163"
"18","18","retrieval","new_object","225","Castle_Sand.jpg",".",".","37","1","1165"
"18","18","retrieval","new_object","226","Branch.jpg",".",".","37","1","743"
"18","18","retrieval","new_object","227","sign_traffic.jpg",".",".","37","1","625"
"18","18","retrieval","new_object","228","PyramidWooden.jpg",".",".","37","1","859"
"18","18","retrieval","new_object","229","Gecko.jpg",".",".","37","1","693"
"18","18","retrieval","new_object","230","PulleyWooden.jpg",".",".","37","1","823"
"18","18","retrieval","old_object","231","Blueberry.jpg",".","3","36","1","632"
"18","18","retrieval","new_object","232","TailLight.jpg",".",".","37","1","698"
"18","18","retrieval","new_object","233","Box_FirstAid.jpg",".",".","37","1","533"
"18","18","retrieval","new_object","234","Bread_Roll.jpg",".",".","37","1","910"
"18","18","retrieval","old_object","235","Cheeseburger.jpg",".","3","36","1","743"
"18","18","retrieval","new_object","236","Cymbals.jpg",".",".","37","1","889"
"18","18","retrieval","new_object","237","Light_Studio.jpg",".",".","37","1","627"
"18","18","retrieval","old_object","238","CDstack.jpg",".","1","37","0","1053"
"18","18","retrieval","old_object","239","EyeChart.jpg",".","1","37","0","887"
"18","18","retrieval","old_object","240","Airplane_Small.jpg",".","1","37","0","1224"
"18","18","retrieval","old_object","241","SnowmanDecor.jpg",".","1","37","0","778"
"18","18","retrieval","new_object","242","PocketKnife.jpg",".",".","37","1","684"
"18","18","retrieval","new_object","243","Stone_AncientWriting.jpg",".",".","37","1","910"
"18","18","retrieval","new_object","244","Carousel.jpg",".",".","37","1","848"
"18","18","retrieval","new_object","245","Light_Fixtures.jpg",".",".","37","1","642"
"18","18","retrieval","old_object","246","Coin.jpg",".","3","36","1","701"
"18","18","retrieval","old_object","247","Toy_TrailerAirport.jpg",".","3","36","1","797"
"18","18","retrieval","old_object","248","IceCubes.jpg",".","1","37","0","799"
"18","18","retrieval","old_object","249","Nail.jpg",".","1","36","1","729"
