"group","subject","blockcode","trialcode","trialnum","stimulus","encoding_condition","old_object_condition","response","correct","latency"
"10","10","encoding","encoding","1","A73.jpg","1",".","37","0","704"
"10","10","encoding","encoding","2","B55.jpg","3",".","37","0","751"
"10","10","encoding","encoding","3","A54.jpg","1",".","37","0","694"
"10","10","encoding","encoding","4","B6.jpg","3",".","37","0","706"
"10","10","encoding","encoding","5","B47.jpg","3",".","37","0","617"
"10","10","encoding","encoding","6","A53.jpg","1",".","37","0","747"
"10","10","encoding","encoding","7","B20.jpg","3",".","36","0","588"
"10","10","encoding","encoding","8","A57.jpg","1",".","37","0","613"
"10","10","encoding","encoding","9","B76.jpg","3",".","36","0","979"
"10","10","encoding","encoding","10","A62.jpg","1",".","37","0","945"
"10","10","encoding","encoding","11","B36.jpg","3",".","37","0","766"
"10","10","encoding","encoding","12","B49.jpg","3",".","0","0","1000"
"10","10","encoding","encoding","13","B44.jpg","3",".","37","0","863"
"10","10","encoding","encoding","14","A50.jpg","1",".","37","0","687"
"10","10","encoding","encoding","15","A71.jpg","1",".","37","0","537"
"10","10","encoding","encoding","16","B25.jpg","3",".","37","0","587"
"10","10","encoding","encoding","17","A42.jpg","1",".","37","0","623"
"10","10","encoding","encoding","18","B47.jpg","3",".","37","0","616"
"10","10","encoding","encoding","19","A5.jpg","1",".","37","0","578"
"10","10","encoding","encoding","20","B71.jpg","3",".","37","0","586"
"10","10","encoding","encoding","21","B10.jpg","3",".","36","0","782"
"10","10","encoding","encoding","22","B28.jpg","3",".","37","0","870"
"10","10","encoding","encoding","23","B19.jpg","3",".","37","0","513"
"10","10","encoding","encoding","24","B34.jpg","3",".","37","0","712"
"10","10","encoding","encoding","25","A44.jpg","1",".","37","0","506"
"10","10","encoding","encoding","26","B42.jpg","3",".","37","0","504"
"10","10","encoding","encoding","27","B24.jpg","3",".","37","0","424"
"10","10","encoding","encoding","28","B31.jpg","3",".","37","0","472"
"10","10","encoding","encoding","29","B78.jpg","3",".","37","0","466"
"10","10","encoding","encoding","30","B49.jpg","3",".","37","0","733"
"10","10","encoding","encoding","31","A13.jpg","1",".","37","0","500"
"10","10","encoding","encoding","32","B42.jpg","3",".","37","0","413"
"10","10","encoding","encoding","33","B31.jpg","3",".","37","0","416"
"10","10","encoding","encoding","34","B73.jpg","3",".","36","0","607"
"10","10","encoding","encoding","35","A1.jpg","1",".","36","0","448"
"10","10","encoding","encoding","36","B68.jpg","3",".","37","0","575"
"10","10","encoding","encoding","37","B12.jpg","3",".","37","0","532"
"10","10","encoding","encoding","38","A14.jpg","1",".","37","0","435"
"10","10","encoding","encoding","39","B15.jpg","3",".","37","0","389"
"10","10","encoding","encoding","40","B29.jpg","3",".","37","0","373"
"10","10","encoding","encoding","41","A34.jpg","1",".","37","0","394"
"10","10","encoding","encoding","42","B29.jpg","3",".","37","0","343"
"10","10","encoding","encoding","43","B26.jpg","3",".","37","0","628"
"10","10","encoding","encoding","44","B13.jpg","3",".","36","0","504"
"10","10","encoding","encoding","45","A46.jpg","1",".","37","0","430"
"10","10","encoding","encoding","46","B12.jpg","3",".","37","0","524"
"10","10","encoding","encoding","47","B57.jpg","3",".","37","0","449"
"10","10","encoding","encoding","48","B63.jpg","3",".","37","0","418"
"10","10","encoding","encoding","49","B8.jpg","3",".","37","0","464"
"10","10","encoding","encoding","50","B53.jpg","3",".","37","0","443"
"10","10","encoding","encoding","51","B39.jpg","3",".","37","0","525"
"10","10","encoding","encoding","52","B48.jpg","3",".","37","0","429"
"10","10","encoding","encoding","53","B71.jpg","3",".","37","0","461"
"10","10","encoding","encoding","54","B45.jpg","3",".","37","0","407"
"10","10","encoding","encoding","55","B24.jpg","3",".","37","0","411"
"10","10","encoding","encoding","56","B59.jpg","3",".","37","0","392"
"10","10","encoding","encoding","57","B26.jpg","3",".","37","0","548"
"10","10","encoding","encoding","58","B77.jpg","3",".","36","0","558"
"10","10","encoding","encoding","59","B39.jpg","3",".","37","0","437"
"10","10","encoding","encoding","60","B51.jpg","3",".","37","0","455"
"10","10","encoding","encoding","61","B7.jpg","3",".","37","0","656"
"10","10","encoding","encoding","62","A68.jpg","1",".","36","0","616"
"10","10","encoding","encoding","63","B46.jpg","3",".","37","0","431"
"10","10","encoding","encoding","64","B15.jpg","3",".","37","0","406"
"10","10","encoding","encoding","65","B70.jpg","3",".","37","0","413"
"10","10","encoding","encoding","67","B46.jpg","3",".","37","0","503"
"10","10","encoding","encoding","68","B4.jpg","3",".","37","0","791"
"10","10","encoding","encoding","69","B40.jpg","3",".","37","0","515"
"10","10","encoding","encoding","70","B49.jpg","3",".","37","0","611"
"10","10","encoding","encoding","71","B72.jpg","3",".","37","0","637"
"10","10","encoding","encoding","72","B54.jpg","3",".","37","0","615"
"10","10","encoding","encoding","73","B40.jpg","3",".","37","0","434"
"10","10","encoding","encoding","74","A65.jpg","1",".","37","0","467"
"10","10","encoding","encoding","75","A30.jpg","1",".","37","0","385"
"10","10","encoding","encoding","76","B11.jpg","3",".","37","0","422"
"10","10","encoding","encoding","77","B69.jpg","3",".","37","0","414"
"10","10","encoding","encoding","78","B77.jpg","3",".","37","0","719"
"10","10","encoding","encoding","79","B12.jpg","3",".","37","0","478"
"10","10","encoding","encoding","80","B3.jpg","3",".","37","0","435"
"10","10","encoding","encoding","81","A22.jpg","1",".","37","0","434"
"10","10","encoding","encoding","82","A56.jpg","1",".","37","0","434"
"10","10","encoding","encoding","83","B13.jpg","3",".","36","0","537"
"10","10","encoding","encoding","84","B4.jpg","3",".","37","0","802"
"10","10","encoding","encoding","85","B67.jpg","3",".","37","0","460"
"10","10","encoding","encoding","86","B22.jpg","3",".","37","0","463"
"10","10","encoding","encoding","87","B23.jpg","3",".","37","0","367"
"10","10","encoding","encoding","88","B36.jpg","3",".","37","0","463"
"10","10","encoding","encoding","89","B64.jpg","3",".","37","0","403"
"10","10","encoding","encoding","90","B58.jpg","3",".","37","0","667"
"10","10","encoding","encoding","91","A15.jpg","1",".","37","0","512"
"10","10","encoding","encoding","92","B70.jpg","3",".","37","0","513"
"10","10","encoding","encoding","93","B72.jpg","3",".","37","0","420"
"10","10","encoding","encoding","94","B27.jpg","3",".","37","0","529"
"10","10","encoding","encoding","95","A40.jpg","1",".","37","0","490"
"10","10","encoding","encoding","96","B58.jpg","3",".","37","0","523"
"10","10","encoding","encoding","97","A28.jpg","1",".","37","0","601"
"10","10","encoding","encoding","98","A60.jpg","1",".","37","0","532"
"10","10","encoding","encoding","99","B47.jpg","3",".","37","0","396"
"10","10","encoding","encoding","100","B46.jpg","3",".","37","0","417"
"10","10","encoding","encoding","101","B66.jpg","3",".","37","0","438"
"10","10","encoding","encoding","102","A32.jpg","1",".","37","0","450"
"10","10","encoding","encoding","103","B53.jpg","3",".","37","0","413"
"10","10","encoding","encoding","104","A20.jpg","1",".","36","0","588"
"10","10","encoding","encoding","105","B54.jpg","3",".","37","0","510"
"10","10","encoding","encoding","106","A6.jpg","1",".","36","0","521"
"10","10","encoding","encoding","107","B75.jpg","3",".","37","0","719"
"10","10","encoding","encoding","108","B10.jpg","3",".","37","0","387"
"10","10","encoding","encoding","109","B7.jpg","3",".","37","0","548"
"10","10","encoding","encoding","110","B19.jpg","3",".","37","0","439"
"10","10","encoding","encoding","111","B52.jpg","3",".","37","0","539"
"10","10","encoding","encoding","112","B23.jpg","3",".","37","0","422"
"10","10","encoding","encoding","113","B75.jpg","3",".","37","0","474"
"10","10","encoding","encoding","114","A11.jpg","1",".","37","0","416"
"10","10","encoding","encoding","115","B7.jpg","3",".","37","0","436"
"10","10","encoding","encoding","116","A66.jpg","1",".","36","0","551"
"10","10","encoding","encoding","117","A52.jpg","1",".","37","0","408"
"10","10","encoding","encoding","118","B76.jpg","3",".","36","0","651"
"10","10","encoding","encoding","119","B9.jpg","3",".","37","0","459"
"10","10","encoding","encoding","120","B13.jpg","3",".","37","0","409"
"10","10","encoding","encoding","121","B19.jpg","3",".","37","0","457"
"10","10","encoding","encoding","122","B4.jpg","3",".","37","0","693"
"10","10","encoding","encoding","123","B21.jpg","3",".","36","0","736"
"10","10","encoding","encoding","124","A19.jpg","1",".","37","0","702"
"10","10","encoding","encoding","125","B44.jpg","3",".","37","0","414"
"10","10","encoding","encoding","126","B20.jpg","3",".","36","0","559"
"10","10","encoding","encoding","127","A24.jpg","1",".","37","0","598"
"10","10","encoding","encoding","128","A0.jpg","1",".","37","0","594"
"10","10","encoding","encoding","129","A76.jpg","1",".","37","0","473"
"10","10","encoding","encoding","130","B56.jpg","3",".","36","0","668"
"10","10","encoding","encoding","131","B8.jpg","3",".","37","0","460"
"10","10","encoding","encoding","133","B52.jpg","3",".","37","0","586"
"10","10","encoding","encoding","134","B75.jpg","3",".","37","0","541"
"10","10","encoding","encoding","135","B30.jpg","3",".","37","0","481"
"10","10","encoding","encoding","136","B38.jpg","3",".","37","0","467"
"10","10","encoding","encoding","137","B9.jpg","3",".","37","0","436"
"10","10","encoding","encoding","138","B57.jpg","3",".","37","0","436"
"10","10","encoding","encoding","139","B53.jpg","3",".","37","0","460"
"10","10","encoding","encoding","140","B5.jpg","3",".","37","0","420"
"10","10","encoding","encoding","141","B66.jpg","3",".","37","0","844"
"10","10","encoding","encoding","142","B1.jpg","3",".","37","0","457"
"10","10","encoding","encoding","143","A23.jpg","1",".","37","0","409"
"10","10","encoding","encoding","144","A4.jpg","1",".","37","0","442"
"10","10","encoding","encoding","145","B26.jpg","3",".","37","0","446"
"10","10","encoding","encoding","146","B5.jpg","3",".","37","0","494"
"10","10","encoding","encoding","147","A38.jpg","1",".","37","0","518"
"10","10","encoding","encoding","148","B32.jpg","3",".","37","0","446"
"10","10","encoding","encoding","149","B17.jpg","3",".","37","0","562"
"10","10","encoding","encoding","150","B78.jpg","3",".","37","0","469"
"10","10","encoding","encoding","151","A55.jpg","1",".","37","0","451"
"10","10","encoding","encoding","152","B79.jpg","3",".","37","0","452"
"10","10","encoding","encoding","153","A51.jpg","1",".","37","0","572"
"10","10","encoding","encoding","154","B22.jpg","3",".","37","0","490"
"10","10","encoding","encoding","155","A21.jpg","1",".","37","0","404"
"10","10","encoding","encoding","156","B2.jpg","3",".","37","0","414"
"10","10","encoding","encoding","157","B65.jpg","3",".","37","0","419"
"10","10","encoding","encoding","158","A72.jpg","1",".","37","0","390"
"10","10","encoding","encoding","159","B50.jpg","3",".","37","0","552"
"10","10","encoding","encoding","160","B58.jpg","3",".","37","0","441"
"10","10","encoding","encoding","161","B45.jpg","3",".","37","0","451"
"10","10","encoding","encoding","162","B31.jpg","3",".","37","0","475"
"10","10","encoding","encoding","163","B35.jpg","3",".","37","0","471"
"10","10","encoding","encoding","164","A39.jpg","1",".","36","0","700"
"10","10","encoding","encoding","165","A45.jpg","1",".","36","0","812"
"10","10","encoding","encoding","166","B66.jpg","3",".","37","0","675"
"10","10","encoding","encoding","167","B2.jpg","3",".","37","0","473"
"10","10","encoding","encoding","168","B76.jpg","3",".","36","0","537"
"10","10","encoding","encoding","169","B55.jpg","3",".","37","0","513"
"10","10","encoding","encoding","170","B33.jpg","3",".","37","0","487"
"10","10","encoding","encoding","171","B56.jpg","3",".","36","0","568"
"10","10","encoding","encoding","172","B45.jpg","3",".","37","0","440"
"10","10","encoding","encoding","173","A7.jpg","1",".","36","0","609"
"10","10","encoding","encoding","174","A27.jpg","1",".","37","0","597"
"10","10","encoding","encoding","175","B28.jpg","3",".","37","0","454"
"10","10","encoding","encoding","176","A48.jpg","1",".","37","0","582"
"10","10","encoding","encoding","177","B57.jpg","3",".","37","0","440"
"10","10","encoding","encoding","178","B79.jpg","3",".","37","0","451"
"10","10","encoding","encoding","179","B22.jpg","3",".","37","0","519"
"10","10","encoding","encoding","180","B55.jpg","3",".","37","0","434"
"10","10","encoding","encoding","181","A43.jpg","1",".","36","0","631"
"10","10","encoding","encoding","182","A35.jpg","1",".","37","0","418"
"10","10","encoding","encoding","183","B32.jpg","3",".","37","0","461"
"10","10","encoding","encoding","184","B6.jpg","3",".","37","0","439"
"10","10","encoding","encoding","185","A64.jpg","1",".","37","0","394"
"10","10","encoding","encoding","186","B35.jpg","3",".","37","0","406"
"10","10","encoding","encoding","187","B41.jpg","3",".","37","0","426"
"10","10","encoding","encoding","188","B62.jpg","3",".","37","0","436"
"10","10","encoding","encoding","189","B8.jpg","3",".","37","0","404"
"10","10","encoding","encoding","190","B64.jpg","3",".","36","0","602"
"10","10","encoding","encoding","191","B17.jpg","3",".","37","0","456"
"10","10","encoding","encoding","192","A78.jpg","1",".","37","0","391"
"10","10","encoding","encoding","193","B33.jpg","3",".","37","0","455"
"10","10","encoding","encoding","194","A31.jpg","1",".","36","0","560"
"10","10","encoding","encoding","195","B11.jpg","3",".","37","0","385"
"10","10","encoding","encoding","196","B60.jpg","3",".","36","0","557"
"10","10","encoding","encoding","197","B43.jpg","3",".","37","0","387"
"10","10","encoding","encoding","199","B2.jpg","3",".","37","0","470"
"10","10","encoding","encoding","200","B78.jpg","3",".","37","0","426"
"10","10","encoding","encoding","201","B43.jpg","3",".","37","0","581"
"10","10","encoding","encoding","202","B69.jpg","3",".","37","0","530"
"10","10","encoding","encoding","203","A12.jpg","1",".","37","0","479"
"10","10","encoding","encoding","204","B37.jpg","3",".","37","0","480"
"10","10","encoding","encoding","205","B50.jpg","3",".","37","0","430"
"10","10","encoding","encoding","206","B51.jpg","3",".","37","0","582"
"10","10","encoding","encoding","207","A25.jpg","1",".","37","0","390"
"10","10","encoding","encoding","208","A3.jpg","1",".","37","0","410"
"10","10","encoding","encoding","209","A26.jpg","1",".","36","0","497"
"10","10","encoding","encoding","210","A29.jpg","1",".","37","0","493"
"10","10","encoding","encoding","211","B50.jpg","3",".","37","0","440"
"10","10","encoding","encoding","212","B41.jpg","3",".","37","0","471"
"10","10","encoding","encoding","213","B24.jpg","3",".","37","0","431"
"10","10","encoding","encoding","214","B1.jpg","3",".","37","0","420"
"10","10","encoding","encoding","215","B65.jpg","3",".","37","0","406"
"10","10","encoding","encoding","216","B43.jpg","3",".","37","0","490"
"10","10","encoding","encoding","217","B56.jpg","3",".","36","0","489"
"10","10","encoding","encoding","218","B51.jpg","3",".","37","0","499"
"10","10","encoding","encoding","219","B16.jpg","3",".","37","0","684"
"10","10","encoding","encoding","220","A77.jpg","1",".","37","0","511"
"10","10","encoding","encoding","221","B39.jpg","3",".","37","0","453"
"10","10","encoding","encoding","222","B61.jpg","3",".","37","0","762"
"10","10","encoding","encoding","223","B35.jpg","3",".","37","0","412"
"10","10","encoding","encoding","224","B3.jpg","3",".","37","0","438"
"10","10","encoding","encoding","225","B15.jpg","3",".","37","0","354"
"10","10","encoding","encoding","226","A9.jpg","1",".","37","0","426"
"10","10","encoding","encoding","227","B63.jpg","3",".","37","0","470"
"10","10","encoding","encoding","228","B16.jpg","3",".","37","0","486"
"10","10","encoding","encoding","229","B59.jpg","3",".","37","0","367"
"10","10","encoding","encoding","230","B70.jpg","3",".","37","0","407"
"10","10","encoding","encoding","231","A61.jpg","1",".","37","0","385"
"10","10","encoding","encoding","232","A67.jpg","1",".","0","0","1000"
"10","10","encoding","encoding","233","A59.jpg","1",".","37","0","419"
"10","10","encoding","encoding","234","A75.jpg","1",".","37","0","389"
"10","10","encoding","encoding","235","A41.jpg","1",".","37","0","438"
"10","10","encoding","encoding","236","B67.jpg","3",".","37","0","366"
"10","10","encoding","encoding","237","B0.jpg","3",".","37","0","402"
"10","10","encoding","encoding","238","A49.jpg","1",".","37","0","523"
"10","10","encoding","encoding","239","B62.jpg","3",".","37","0","400"
"10","10","encoding","encoding","240","B68.jpg","3",".","37","0","515"
"10","10","encoding","encoding","241","B73.jpg","3",".","37","0","456"
"10","10","encoding","encoding","242","B74.jpg","3",".","37","0","412"
"10","10","encoding","encoding","243","B74.jpg","3",".","36","0","476"
"10","10","encoding","encoding","244","A58.jpg","1",".","37","0","522"
"10","10","encoding","encoding","245","B14.jpg","3",".","37","0","612"
"10","10","encoding","encoding","246","A69.jpg","1",".","37","0","512"
"10","10","encoding","encoding","247","B30.jpg","3",".","37","0","609"
"10","10","encoding","encoding","248","A47.jpg","1",".","37","0","553"
"10","10","encoding","encoding","249","B61.jpg","3",".","37","0","554"
"10","10","encoding","encoding","250","B27.jpg","3",".","37","0","477"
"10","10","encoding","encoding","251","B67.jpg","3",".","37","0","425"
"10","10","encoding","encoding","252","B14.jpg","3",".","37","0","471"
"10","10","encoding","encoding","253","B77.jpg","3",".","36","0","484"
"10","10","encoding","encoding","254","B30.jpg","3",".","37","0","401"
"10","10","encoding","encoding","255","B36.jpg","3",".","37","0","477"
"10","10","encoding","encoding","256","A36.jpg","1",".","37","0","425"
"10","10","encoding","encoding","257","A70.jpg","1",".","37","0","525"
"10","10","encoding","encoding","258","B74.jpg","3",".","36","0","515"
"10","10","encoding","encoding","259","A79.jpg","1",".","37","0","462"
"10","10","encoding","encoding","260","B63.jpg","3",".","37","0","442"
"10","10","encoding","encoding","261","B44.jpg","3",".","37","0","427"
"10","10","encoding","encoding","262","B18.jpg","3",".","37","0","437"
"10","10","encoding","encoding","263","B48.jpg","3",".","37","0","452"
"10","10","encoding","encoding","265","A63.jpg","1",".","37","0","630"
"10","10","encoding","encoding","266","B59.jpg","3",".","37","0","405"
"10","10","encoding","encoding","267","A16.jpg","1",".","37","0","432"
"10","10","encoding","encoding","268","A10.jpg","1",".","37","0","382"
"10","10","encoding","encoding","269","B27.jpg","3",".","37","0","504"
"10","10","encoding","encoding","270","B60.jpg","3",".","36","0","574"
"10","10","encoding","encoding","271","B37.jpg","3",".","37","0","468"
"10","10","encoding","encoding","272","B0.jpg","3",".","37","0","471"
"10","10","encoding","encoding","273","B34.jpg","3",".","37","0","424"
"10","10","encoding","encoding","274","B69.jpg","3",".","37","0","455"
"10","10","encoding","encoding","275","B68.jpg","3",".","37","0","482"
"10","10","encoding","encoding","276","A2.jpg","1",".","37","0","438"
"10","10","encoding","encoding","277","B9.jpg","3",".","37","0","443"
"10","10","encoding","encoding","278","B38.jpg","3",".","37","0","509"
"10","10","encoding","encoding","279","B41.jpg","3",".","37","0","462"
"10","10","encoding","encoding","280","B79.jpg","3",".","37","0","503"
"10","10","encoding","encoding","281","A37.jpg","1",".","37","0","562"
"10","10","encoding","encoding","282","B29.jpg","3",".","37","0","378"
"10","10","encoding","encoding","283","B20.jpg","3",".","36","0","525"
"10","10","encoding","encoding","284","B23.jpg","3",".","37","0","376"
"10","10","encoding","encoding","285","B5.jpg","3",".","37","0","440"
"10","10","encoding","encoding","286","B21.jpg","3",".","37","0","752"
"10","10","encoding","encoding","287","B21.jpg","3",".","37","0","488"
"10","10","encoding","encoding","288","B60.jpg","3",".","36","0","571"
"10","10","encoding","encoding","289","B72.jpg","3",".","37","0","544"
"10","10","encoding","encoding","290","B38.jpg","3",".","37","0","410"
"10","10","encoding","encoding","291","B3.jpg","3",".","37","0","417"
"10","10","encoding","encoding","292","B25.jpg","3",".","37","0","486"
"10","10","encoding","encoding","293","B18.jpg","3",".","37","0","453"
"10","10","encoding","encoding","294","B48.jpg","3",".","37","0","412"
"10","10","encoding","encoding","295","B62.jpg","3",".","37","0","457"
"10","10","encoding","encoding","296","B33.jpg","3",".","37","0","445"
"10","10","encoding","encoding","297","B40.jpg","3",".","37","0","471"
"10","10","encoding","encoding","298","B54.jpg","3",".","37","0","522"
"10","10","encoding","encoding","299","B28.jpg","3",".","37","0","429"
"10","10","encoding","encoding","300","B73.jpg","3",".","36","0","508"
"10","10","encoding","encoding","301","B61.jpg","3",".","37","0","524"
"10","10","encoding","encoding","302","B32.jpg","3",".","37","0","647"
"10","10","encoding","encoding","303","A8.jpg","1",".","37","0","461"
"10","10","encoding","encoding","304","B25.jpg","3",".","37","0","505"
"10","10","encoding","encoding","305","B65.jpg","3",".","37","0","369"
"10","10","encoding","encoding","306","B18.jpg","3",".","37","0","464"
"10","10","encoding","encoding","307","B64.jpg","3",".","36","0","495"
"10","10","encoding","encoding","308","B10.jpg","3",".","36","0","424"
"10","10","encoding","encoding","309","B37.jpg","3",".","37","0","465"
"10","10","encoding","encoding","310","B42.jpg","3",".","37","0","255"
"10","10","encoding","encoding","311","B16.jpg","3",".","37","0","507"
"10","10","encoding","encoding","312","B34.jpg","3",".","37","0","391"
"10","10","encoding","encoding","313","B6.jpg","3",".","37","0","424"
"10","10","encoding","encoding","314","A17.jpg","1",".","37","0","495"
"10","10","encoding","encoding","315","B17.jpg","3",".","37","0","405"
"10","10","encoding","encoding","316","A33.jpg","1",".","37","0","520"
"10","10","encoding","encoding","317","A18.jpg","1",".","36","0","805"
"10","10","encoding","encoding","318","A74.jpg","1",".","37","0","493"
"10","10","encoding","encoding","319","B11.jpg","3",".","37","0","431"
"10","10","encoding","encoding","320","B52.jpg","3",".","37","0","489"
"10","10","encoding","encoding","321","B0.jpg","3",".","37","0","387"
"10","10","encoding","encoding","322","B1.jpg","3",".","37","0","417"
"10","10","encoding","encoding","323","B71.jpg","3",".","37","0","430"
"10","10","encoding","encoding","324","B14.jpg","3",".","37","0","517"
"10","10","encoding","encoding","325","A73.jpg","",".","37","0","431"
"10","10","retrieval","new_object","1","C64.jpg",".",".","37","1","1806"
"10","10","retrieval","new_object","2","D29.jpg",".",".","37","1","887"
"10","10","retrieval","old_object","3","B4.jpg",".","3","36","1","951"
"10","10","retrieval","old_object","4","A56.jpg",".","1","36","1","869"
"10","10","retrieval","old_object","5","B54.jpg",".","3","36","1","669"
"10","10","retrieval","old_object","6","A17.jpg",".","1","36","1","678"
"10","10","retrieval","old_object","7","A78.jpg",".","1","36","1","607"
"10","10","retrieval","new_object","8","C31.jpg",".",".","37","1","886"
"10","10","retrieval","old_object","9","A18.jpg",".","1","36","1","780"
"10","10","retrieval","old_object","10","A4.jpg",".","1","36","1","894"
"10","10","retrieval","new_object","11","D66.jpg",".",".","37","1","814"
"10","10","retrieval","old_object","12","A74.jpg",".","1","36","1","996"
"10","10","retrieval","old_object","13","B20.jpg",".","3","36","1","735"
"10","10","retrieval","new_object","14","C76.jpg",".",".","37","1","887"
"10","10","retrieval","new_object","15","D24.jpg",".",".","37","1","986"
"10","10","retrieval","old_object","16","B53.jpg",".","3","36","1","1019"
"10","10","retrieval","new_object","17","C57.jpg",".",".","37","1","748"
"10","10","retrieval","new_object","18","C4.jpg",".",".","37","1","731"
"10","10","retrieval","new_object","19","C24.jpg",".",".","37","1","714"
"10","10","retrieval","new_object","20","D32.jpg",".",".","37","1","714"
"10","10","retrieval","new_object","21","D20.jpg",".",".","37","1","1044"
"10","10","retrieval","old_object","22","A63.jpg",".","1","36","1","898"
"10","10","retrieval","new_object","23","C38.jpg",".",".","37","1","766"
"10","10","retrieval","new_object","24","D50.jpg",".",".","36","0","1236"
"10","10","retrieval","old_object","25","A65.jpg",".","1","36","1","718"
"10","10","retrieval","old_object","26","B62.jpg",".","3","36","1","603"
"10","10","retrieval","new_object","27","D69.jpg",".",".","37","1","792"
"10","10","retrieval","old_object","28","A43.jpg",".","1","36","1","717"
"10","10","retrieval","old_object","29","B43.jpg",".","3","36","1","733"
"10","10","retrieval","new_object","30","D11.jpg",".",".","37","1","1018"
"10","10","retrieval","old_object","31","A30.jpg",".","1","36","1","832"
"10","10","retrieval","new_object","32","C47.jpg",".",".","37","1","1022"
"10","10","retrieval","new_object","33","D42.jpg",".",".","37","1","926"
"10","10","retrieval","new_object","34","C11.jpg",".",".","37","1","802"
"10","10","retrieval","new_object","35","C41.jpg",".",".","37","1","691"
"10","10","retrieval","new_object","36","C48.jpg",".",".","37","1","687"
"10","10","retrieval","old_object","37","A31.jpg",".","1","36","1","839"
"10","10","retrieval","new_object","38","D64.jpg",".",".","37","1","795"
"10","10","retrieval","old_object","39","B31.jpg",".","3","37","0","773"
"10","10","retrieval","old_object","40","A21.jpg",".","1","37","0","1696"
"10","10","retrieval","old_object","41","A69.jpg",".","1","36","1","1085"
"10","10","retrieval","old_object","42","B71.jpg",".","3","36","1","720"
"10","10","retrieval","old_object","43","A9.jpg",".","1","36","1","924"
"10","10","retrieval","old_object","44","B26.jpg",".","3","36","1","696"
"10","10","retrieval","new_object","45","C49.jpg",".",".","37","1","893"
"10","10","retrieval","new_object","46","C21.jpg",".",".","37","1","897"
"10","10","retrieval","new_object","47","D44.jpg",".",".","37","1","1203"
"10","10","retrieval","new_object","48","C50.jpg",".",".","37","1","872"
"10","10","retrieval","new_object","49","C77.jpg",".",".","37","1","767"
"10","10","retrieval","old_object","50","B14.jpg",".","3","36","1","933"
"10","10","retrieval","new_object","51","D26.jpg",".",".","37","1","712"
"10","10","retrieval","new_object","52","C66.jpg",".",".","36","0","906"
"10","10","retrieval","new_object","53","D23.jpg",".",".","37","1","1428"
"10","10","retrieval","new_object","54","C39.jpg",".",".","37","1","616"
"10","10","retrieval","old_object","55","A34.jpg",".","1","36","1","896"
"10","10","retrieval","new_object","56","C62.jpg",".",".","37","1","791"
"10","10","retrieval","old_object","57","B68.jpg",".","3","36","1","1049"
"10","10","retrieval","old_object","58","B55.jpg",".","3","36","1","548"
"10","10","retrieval","old_object","59","A29.jpg",".","1","36","1","948"
"10","10","retrieval","old_object","60","A64.jpg",".","1","36","1","628"
"10","10","retrieval","old_object","61","B67.jpg",".","3","36","1","634"
"10","10","retrieval","new_object","62","D21.jpg",".",".","37","1","688"
"10","10","retrieval","old_object","63","B33.jpg",".","3","36","1","871"
"10","10","retrieval","new_object","64","D56.jpg",".",".","37","1","755"
"10","10","retrieval","new_object","65","C46.jpg",".",".","37","1","820"
"10","10","retrieval","new_object","67","D39.jpg",".",".","37","1","1080"
"10","10","retrieval","new_object","68","C5.jpg",".",".","37","1","677"
"10","10","retrieval","old_object","69","B2.jpg",".","3","36","1","705"
"10","10","retrieval","new_object","70","D28.jpg",".",".","37","1","745"
"10","10","retrieval","old_object","71","B7.jpg",".","3","36","1","872"
"10","10","retrieval","old_object","72","A44.jpg",".","1","36","1","822"
"10","10","retrieval","new_object","73","C32.jpg",".",".","37","1","711"
"10","10","retrieval","old_object","74","B39.jpg",".","3","36","1","976"
"10","10","retrieval","old_object","75","A16.jpg",".","1","36","1","569"
"10","10","retrieval","old_object","76","A8.jpg",".","1","36","1","728"
"10","10","retrieval","old_object","77","A70.jpg",".","1","36","1","664"
"10","10","retrieval","old_object","78","B44.jpg",".","3","36","1","787"
"10","10","retrieval","old_object","79","A5.jpg",".","1","36","1","975"
"10","10","retrieval","new_object","80","D9.jpg",".",".","37","1","740"
"10","10","retrieval","old_object","81","A0.jpg",".","1","36","1","861"
"10","10","retrieval","new_object","82","D36.jpg",".",".","37","1","737"
"10","10","retrieval","new_object","83","C73.jpg",".",".","37","1","763"
"10","10","retrieval","old_object","84","B9.jpg",".","3","36","1","794"
"10","10","retrieval","new_object","85","C37.jpg",".",".","37","1","639"
"10","10","retrieval","new_object","86","D27.jpg",".",".","37","1","864"
"10","10","retrieval","new_object","87","D43.jpg",".",".","37","1","763"
"10","10","retrieval","new_object","88","D19.jpg",".",".","37","1","884"
"10","10","retrieval","new_object","89","C17.jpg",".",".","37","1","752"
"10","10","retrieval","old_object","90","B47.jpg",".","3","36","1","659"
"10","10","retrieval","old_object","91","A66.jpg",".","1","36","1","704"
"10","10","retrieval","old_object","92","B27.jpg",".","3","36","1","567"
"10","10","retrieval","new_object","93","C51.jpg",".",".","37","1","805"
"10","10","retrieval","new_object","94","C9.jpg",".",".","37","1","996"
"10","10","retrieval","new_object","95","C6.jpg",".",".","37","1","761"
"10","10","retrieval","old_object","96","B21.jpg",".","3","36","1","977"
"10","10","retrieval","new_object","97","D79.jpg",".",".","37","1","985"
"10","10","retrieval","new_object","98","C68.jpg",".",".","37","1","792"
"10","10","retrieval","new_object","99","D40.jpg",".",".","37","1","855"
"10","10","retrieval","new_object","100","C16.jpg",".",".","37","1","824"
"10","10","retrieval","old_object","101","A27.jpg",".","1","36","1","980"
"10","10","retrieval","old_object","102","A73.jpg",".","1","36","1","804"
"10","10","retrieval","old_object","103","B59.jpg",".","3","36","1","713"
"10","10","retrieval","new_object","104","C25.jpg",".",".","37","1","747"
"10","10","retrieval","old_object","105","A39.jpg",".","1","36","1","934"
"10","10","retrieval","old_object","106","B17.jpg",".","3","36","1","832"
"10","10","retrieval","new_object","107","C56.jpg",".",".","37","1","703"
"10","10","retrieval","new_object","108","D67.jpg",".",".","37","1","905"
"10","10","retrieval","new_object","109","D46.jpg",".",".","37","1","840"
"10","10","retrieval","new_object","110","C22.jpg",".",".","37","1","569"
"10","10","retrieval","new_object","111","D33.jpg",".",".","37","1","556"
"10","10","retrieval","old_object","112","A19.jpg",".","1","36","1","822"
"10","10","retrieval","new_object","113","D13.jpg",".",".","37","1","671"
"10","10","retrieval","new_object","114","D31.jpg",".",".","37","1","847"
"10","10","retrieval","new_object","115","D3.jpg",".",".","37","1","1017"
"10","10","retrieval","new_object","116","D55.jpg",".",".","37","1","761"
"10","10","retrieval","old_object","117","B42.jpg",".","3","36","1","793"
"10","10","retrieval","new_object","118","D18.jpg",".",".","37","1","701"
"10","10","retrieval","old_object","119","A48.jpg",".","1","36","1","855"
"10","10","retrieval","old_object","120","B30.jpg",".","3","36","1","559"
"10","10","retrieval","old_object","121","B46.jpg",".","3","36","1","574"
"10","10","retrieval","new_object","122","D17.jpg",".",".","37","1","681"
"10","10","retrieval","old_object","123","B73.jpg",".","3","36","1","964"
"10","10","retrieval","old_object","124","B29.jpg",".","3","36","1","812"
"10","10","retrieval","old_object","125","A68.jpg",".","1","36","1","644"
"10","10","retrieval","old_object","126","B35.jpg",".","3","36","1","783"
"10","10","retrieval","new_object","127","C20.jpg",".",".","37","1","692"
"10","10","retrieval","new_object","128","D78.jpg",".",".","37","1","968"
"10","10","retrieval","new_object","129","C63.jpg",".",".","37","1","973"
"10","10","retrieval","new_object","130","C74.jpg",".",".","37","1","804"
"10","10","retrieval","old_object","131","B65.jpg",".","3","36","1","766"
"10","10","retrieval","new_object","133","C26.jpg",".",".","37","1","886"
"10","10","retrieval","new_object","134","C55.jpg",".",".","37","1","691"
"10","10","retrieval","new_object","135","C13.jpg",".",".","37","1","519"
"10","10","retrieval","old_object","136","A79.jpg",".","1","37","0","565"
"10","10","retrieval","old_object","137","A33.jpg",".","1","36","1","724"
"10","10","retrieval","old_object","138","A7.jpg",".","1","36","1","614"
"10","10","retrieval","old_object","139","A22.jpg",".","1","36","1","1073"
"10","10","retrieval","old_object","140","B22.jpg",".","3","36","1","730"
"10","10","retrieval","new_object","141","D72.jpg",".",".","37","1","679"
"10","10","retrieval","new_object","142","C60.jpg",".",".","37","1","852"
"10","10","retrieval","new_object","143","C69.jpg",".",".","37","1","651"
"10","10","retrieval","old_object","144","B12.jpg",".","3","36","1","554"
"10","10","retrieval","old_object","145","A62.jpg",".","1","37","0","663"
"10","10","retrieval","new_object","146","D48.jpg",".",".","37","1","737"
"10","10","retrieval","new_object","147","D12.jpg",".",".","37","1","728"
"10","10","retrieval","new_object","148","C23.jpg",".",".","37","1","991"
"10","10","retrieval","new_object","149","C28.jpg",".",".","37","1","1293"
"10","10","retrieval","new_object","150","D74.jpg",".",".","37","1","741"
"10","10","retrieval","new_object","151","D77.jpg",".",".","37","1","755"
"10","10","retrieval","new_object","152","C79.jpg",".",".","37","1","1313"
"10","10","retrieval","new_object","153","D59.jpg",".",".","37","1","725"
"10","10","retrieval","new_object","154","C54.jpg",".",".","37","1","649"
"10","10","retrieval","old_object","155","B66.jpg",".","3","36","1","752"
"10","10","retrieval","new_object","156","D76.jpg",".",".","37","1","866"
"10","10","retrieval","new_object","157","D34.jpg",".",".","37","1","788"
"10","10","retrieval","old_object","158","A59.jpg",".","1","36","1","1030"
"10","10","retrieval","old_object","159","A38.jpg",".","1","36","1","921"
"10","10","retrieval","old_object","160","B1.jpg",".","3","36","1","573"
"10","10","retrieval","new_object","161","C72.jpg",".",".","37","1","834"
"10","10","retrieval","old_object","162","B61.jpg",".","3","36","1","899"
"10","10","retrieval","new_object","163","C3.jpg",".",".","37","1","899"
"10","10","retrieval","new_object","164","D8.jpg",".",".","37","1","1316"
"10","10","retrieval","old_object","165","A77.jpg",".","1","37","0","1009"
"10","10","retrieval","old_object","166","B69.jpg",".","3","36","1","714"
"10","10","retrieval","new_object","167","C45.jpg",".",".","37","1","778"
"10","10","retrieval","new_object","168","D30.jpg",".",".","37","1","967"
"10","10","retrieval","old_object","169","A2.jpg",".","1","37","0","969"
"10","10","retrieval","new_object","170","C2.jpg",".",".","37","1","746"
"10","10","retrieval","new_object","171","D65.jpg",".",".","37","1","713"
"10","10","retrieval","old_object","172","B56.jpg",".","3","36","1","612"
"10","10","retrieval","new_object","173","C52.jpg",".",".","37","1","702"
"10","10","retrieval","new_object","174","C30.jpg",".",".","37","1","840"
"10","10","retrieval","new_object","175","D4.jpg",".",".","37","1","630"
"10","10","retrieval","old_object","176","A32.jpg",".","1","37","0","1322"
"10","10","retrieval","new_object","177","D54.jpg",".",".","37","1","854"
"10","10","retrieval","old_object","178","B74.jpg",".","3","36","1","670"
"10","10","retrieval","new_object","179","D53.jpg",".",".","37","1","1347"
"10","10","retrieval","old_object","180","B58.jpg",".","3","36","1","695"
"10","10","retrieval","new_object","181","D60.jpg",".",".","37","1","769"
"10","10","retrieval","new_object","182","D25.jpg",".",".","37","1","865"
"10","10","retrieval","old_object","183","B78.jpg",".","3","36","1","826"
"10","10","retrieval","new_object","184","C43.jpg",".",".","37","1","683"
"10","10","retrieval","old_object","185","B8.jpg",".","3","36","1","840"
"10","10","retrieval","new_object","186","C75.jpg",".",".","37","1","671"
"10","10","retrieval","old_object","187","A76.jpg",".","1","36","1","718"
"10","10","retrieval","old_object","188","B3.jpg",".","3","36","1","618"
"10","10","retrieval","old_object","189","A52.jpg",".","1","36","1","616"
"10","10","retrieval","old_object","190","B51.jpg",".","3","36","1","708"
"10","10","retrieval","new_object","191","D45.jpg",".",".","37","1","660"
"10","10","retrieval","old_object","192","B70.jpg",".","3","36","1","778"
"10","10","retrieval","old_object","193","B75.jpg",".","3","36","1","586"
"10","10","retrieval","new_object","194","D10.jpg",".",".","37","1","927"
"10","10","retrieval","old_object","195","A25.jpg",".","1","36","1","834"
"10","10","retrieval","new_object","196","D47.jpg",".",".","37","1","663"
"10","10","retrieval","old_object","197","A51.jpg",".","1","36","1","1036"
"10","10","retrieval","new_object","199","D0.jpg",".",".","37","1","809"
"10","10","retrieval","new_object","200","D38.jpg",".",".","37","1","906"
"10","10","retrieval","old_object","201","B16.jpg",".","3","36","1","887"
"10","10","retrieval","old_object","202","B63.jpg",".","3","36","1","869"
"10","10","retrieval","new_object","203","C61.jpg",".",".","37","1","1076"
"10","10","retrieval","old_object","204","B13.jpg",".","3","36","1","754"
"10","10","retrieval","old_object","205","A1.jpg",".","1","36","1","779"
"10","10","retrieval","new_object","206","D22.jpg",".",".","37","1","719"
"10","10","retrieval","new_object","207","C59.jpg",".",".","37","1","753"
"10","10","retrieval","new_object","208","C10.jpg",".",".","37","1","857"
"10","10","retrieval","new_object","209","C27.jpg",".",".","37","1","808"
"10","10","retrieval","old_object","210","B48.jpg",".","3","36","1","869"
"10","10","retrieval","old_object","211","B28.jpg",".","3","36","1","668"
"10","10","retrieval","new_object","212","D73.jpg",".",".","37","1","951"
"10","10","retrieval","new_object","213","D49.jpg",".",".","37","1","946"
"10","10","retrieval","new_object","214","D58.jpg",".",".","37","1","836"
"10","10","retrieval","old_object","215","B60.jpg",".","3","36","1","1037"
"10","10","retrieval","new_object","216","C53.jpg",".",".","37","1","813"
"10","10","retrieval","old_object","217","B40.jpg",".","3","36","1","873"
"10","10","retrieval","old_object","218","A26.jpg",".","1","36","1","789"
"10","10","retrieval","new_object","219","C78.jpg",".",".","37","1","948"
"10","10","retrieval","new_object","220","C65.jpg",".",".","36","0","651"
"10","10","retrieval","new_object","221","D5.jpg",".",".","37","1","661"
"10","10","retrieval","new_object","222","D7.jpg",".",".","37","1","679"
"10","10","retrieval","old_object","223","A60.jpg",".","1","36","1","920"
"10","10","retrieval","new_object","224","C40.jpg",".",".","37","1","618"
"10","10","retrieval","new_object","225","D16.jpg",".",".","37","1","1259"
"10","10","retrieval","old_object","226","A50.jpg",".","1","36","1","1207"
"10","10","retrieval","old_object","227","B19.jpg",".","3","36","1","805"
"10","10","retrieval","old_object","228","B41.jpg",".","3","36","1","896"
"10","10","retrieval","old_object","229","B45.jpg",".","3","36","1","713"
"10","10","retrieval","new_object","230","C33.jpg",".",".","37","1","737"
"10","10","retrieval","old_object","231","A57.jpg",".","1","36","1","1043"
"10","10","retrieval","old_object","232","B0.jpg",".","3","36","1","944"
"10","10","retrieval","old_object","233","A11.jpg",".","1","37","0","1355"
"10","10","retrieval","new_object","234","D63.jpg",".",".","37","1","1127"
"10","10","retrieval","new_object","235","D35.jpg",".",".","37","1","778"
"10","10","retrieval","old_object","236","A3.jpg",".","1","36","1","863"
"10","10","retrieval","new_object","237","D51.jpg",".",".","37","1","802"
"10","10","retrieval","new_object","238","C58.jpg",".",".","37","1","1084"
"10","10","retrieval","new_object","239","C18.jpg",".",".","37","1","647"
"10","10","retrieval","old_object","240","A12.jpg",".","1","36","1","1065"
"10","10","retrieval","new_object","241","C36.jpg",".",".","37","1","870"
"10","10","retrieval","old_object","242","A41.jpg",".","1","36","1","1052"
"10","10","retrieval","new_object","243","D6.jpg",".",".","37","1","900"
"10","10","retrieval","new_object","244","C8.jpg",".",".","37","1","923"
"10","10","retrieval","old_object","245","A20.jpg",".","1","36","1","966"
"10","10","retrieval","new_object","246","D15.jpg",".",".","37","1","976"
"10","10","retrieval","new_object","247","D14.jpg",".",".","37","1","905"
"10","10","retrieval","new_object","248","C71.jpg",".",".","37","1","1390"
"10","10","retrieval","old_object","249","B11.jpg",".","3","36","1","1009"
"10","10","retrieval","new_object","250","D68.jpg",".",".","37","1","864"
"10","10","retrieval","new_object","251","D41.jpg",".",".","37","1","1003"
"10","10","retrieval","new_object","252","C29.jpg",".",".","37","1","831"
"10","10","retrieval","new_object","253","D70.jpg",".",".","37","1","1080"
"10","10","retrieval","old_object","254","A35.jpg",".","1","37","0","871"
"10","10","retrieval","old_object","255","A55.jpg",".","1","36","1","754"
"10","10","retrieval","old_object","256","A10.jpg",".","1","36","1","1146"
"10","10","retrieval","old_object","257","B50.jpg",".","3","36","1","810"
"10","10","retrieval","old_object","258","A15.jpg",".","1","36","1","749"
"10","10","retrieval","new_object","259","D37.jpg",".",".","37","1","898"
"10","10","retrieval","new_object","260","D52.jpg",".",".","37","1","894"
"10","10","retrieval","new_object","261","D75.jpg",".",".","37","1","1133"
"10","10","retrieval","old_object","262","B38.jpg",".","3","36","1","1014"
"10","10","retrieval","old_object","263","B37.jpg",".","3","36","1","731"
"10","10","retrieval","new_object","265","C1.jpg",".",".","37","1","961"
"10","10","retrieval","old_object","266","A61.jpg",".","1","36","1","879"
"10","10","retrieval","new_object","267","D71.jpg",".",".","36","0","894"
"10","10","retrieval","old_object","268","A67.jpg",".","1","36","1","1252"
"10","10","retrieval","old_object","269","A54.jpg",".","1","36","1","911"
"10","10","retrieval","old_object","270","A24.jpg",".","1","36","1","613"
"10","10","retrieval","old_object","271","B18.jpg",".","3","36","1","670"
"10","10","retrieval","new_object","272","C70.jpg",".",".","37","1","1583"
"10","10","retrieval","old_object","273","A23.jpg",".","1","36","1","1179"
"10","10","retrieval","new_object","274","D1.jpg",".",".","37","1","777"
"10","10","retrieval","old_object","275","A72.jpg",".","1","36","1","1894"
"10","10","retrieval","new_object","276","D2.jpg",".",".","37","1","881"
"10","10","retrieval","old_object","277","A42.jpg",".","1","36","1","997"
"10","10","retrieval","old_object","278","B57.jpg",".","3","36","1","1020"
"10","10","retrieval","new_object","279","C42.jpg",".",".","37","1","945"
"10","10","retrieval","old_object","280","B25.jpg",".","3","36","1","972"
"10","10","retrieval","new_object","281","C34.jpg",".",".","37","1","842"
"10","10","retrieval","new_object","282","D62.jpg",".",".","37","1","1107"
"10","10","retrieval","old_object","283","B77.jpg",".","3","36","1","1053"
"10","10","retrieval","new_object","284","D57.jpg",".",".","37","1","843"
"10","10","retrieval","old_object","285","A47.jpg",".","1","37","0","1598"
"10","10","retrieval","new_object","286","C0.jpg",".",".","37","1","1674"
"10","10","retrieval","new_object","287","C44.jpg",".",".","37","1","981"
"10","10","retrieval","old_object","288","A75.jpg",".","1","36","1","1253"
"10","10","retrieval","old_object","289","A46.jpg",".","1","36","1","857"
"10","10","retrieval","old_object","290","B23.jpg",".","3","36","1","685"
"10","10","retrieval","old_object","291","B32.jpg",".","3","36","1","595"
"10","10","retrieval","old_object","292","B34.jpg",".","3","36","1","634"
"10","10","retrieval","old_object","293","B49.jpg",".","3","36","1","675"
"10","10","retrieval","old_object","294","B6.jpg",".","3","36","1","620"
"10","10","retrieval","old_object","295","A45.jpg",".","1","36","1","668"
"10","10","retrieval","old_object","296","B15.jpg",".","3","36","1","920"
"10","10","retrieval","old_object","297","A13.jpg",".","1","36","1","753"
"10","10","retrieval","old_object","298","A36.jpg",".","1","36","1","1316"
"10","10","retrieval","new_object","299","C67.jpg",".",".","37","1","1194"
"10","10","retrieval","old_object","300","B72.jpg",".","3","36","1","769"
"10","10","retrieval","new_object","301","C19.jpg",".",".","37","1","873"
"10","10","retrieval","old_object","302","A40.jpg",".","1","37","0","726"
"10","10","retrieval","old_object","303","A58.jpg",".","1","36","1","1282"
"10","10","retrieval","old_object","304","A71.jpg",".","1","36","1","801"
"10","10","retrieval","old_object","305","A14.jpg",".","1","37","0","1326"
"10","10","retrieval","old_object","306","B64.jpg",".","3","36","1","991"
"10","10","retrieval","old_object","307","A6.jpg",".","1","36","1","903"
"10","10","retrieval","old_object","308","B36.jpg",".","3","36","1","608"
"10","10","retrieval","old_object","309","B24.jpg",".","3","36","1","630"
"10","10","retrieval","new_object","310","C7.jpg",".",".","37","1","1130"
"10","10","retrieval","old_object","311","B76.jpg",".","3","36","1","804"
"10","10","retrieval","new_object","312","C15.jpg",".",".","37","1","881"
"10","10","retrieval","new_object","313","D61.jpg",".",".","37","1","1047"
"10","10","retrieval","new_object","314","C35.jpg",".",".","37","1","938"
"10","10","retrieval","old_object","315","A53.jpg",".","1","36","1","1626"
"10","10","retrieval","old_object","316","B10.jpg",".","3","36","1","734"
"10","10","retrieval","new_object","317","C14.jpg",".",".","37","1","803"
"10","10","retrieval","old_object","318","B79.jpg",".","3","36","1","795"
"10","10","retrieval","old_object","319","A49.jpg",".","1","36","1","859"
"10","10","retrieval","new_object","320","C12.jpg",".",".","37","1","867"
"10","10","retrieval","new_object","321","D40.jpg",".",".","36","0","1381"
"10","10","retrieval","old_object","322","A28.jpg",".","1","36","1","848"
"10","10","retrieval","old_object","323","B5.jpg",".","3","36","1","691"
"10","10","retrieval","old_object","324","B52.jpg",".","3","36","1","596"
"10","10","retrieval","old_object","325","A37.jpg",".","1","37","0","1392"
"10","10","demographics_block","gender","1",".",".",".","Male","1","30014"
"10","10","demographics_block","age","1",".",".",".","54","1","30014"
"10","10","demographics_block","education","1",".",".",".","16","1","30014"
"10","10","demographics_block","left_right_handed","2",".",".",".","Right","1","8186"
"10","10","demographics_block","raceoption1","2",".",".",".","0","1","8186"
"10","10","demographics_block","raceoption2","2",".",".",".","","1","8186"
"10","10","demographics_block","raceoption3","2",".",".",".","","1","8186"
"10","10","demographics_block","raceoption4","2",".",".",".","","1","8186"
"10","10","demographics_block","raceoption5","2",".",".",".","","1","8186"
"10","10","demographics_block","raceoption6","2",".",".",".","","1","8186"
"10","10","demographics_block","raceoption7","2",".",".",".","","1","8186"
"10","10","demographics_block","raceoption8","2",".",".",".","","1","8186"
"10","10","demographics_block","raceoption9","2",".",".",".","","1","8186"
"10","10","demographics_block","raceother","2",".",".",".","","1","8186"
"10","10","demographics_block","raceother","2",".",".",".","","1","8186"
"10","10","demographics_block","english_language","2",".",".",".","Yes","1","8186"
"10","10","demographics_block","other","2",".",".",".","","1","8186"
"10","10","demographics_block","eyesight","3",".",".",".","Yes","1","4779"
"10","10","demographics_block","colorblind","3",".",".",".","No","1","4779"
"13","13","encoding","encoding","1","A73.jpg","1",".","0","0","1000"
"13","13","encoding","encoding","2","B55.jpg","3",".","37","0","756"
"13","13","encoding","encoding","3","A54.jpg","1",".","37","0","624"
"13","13","encoding","encoding","4","B6.jpg","3",".","37","0","667"
"13","13","encoding","encoding","5","B47.jpg","3",".","37","0","614"
"13","13","encoding","encoding","6","A53.jpg","1",".","37","0","656"
"13","13","encoding","encoding","7","B20.jpg","3",".","36","0","571"
"13","13","encoding","encoding","8","A57.jpg","1",".","37","0","671"
"13","13","encoding","encoding","9","B76.jpg","3",".","36","0","649"
"13","13","encoding","encoding","10","A62.jpg","1",".","37","0","693"
"13","13","encoding","encoding","11","B36.jpg","3",".","36","0","799"
"13","13","encoding","encoding","12","B49.jpg","3",".","0","0","1000"
"13","13","encoding","encoding","13","B44.jpg","3",".","37","0","861"
"13","13","encoding","encoding","14","A50.jpg","1",".","37","0","785"
"13","13","encoding","encoding","15","A71.jpg","1",".","37","0","604"
"13","13","encoding","encoding","16","B25.jpg","3",".","37","0","572"
"13","13","encoding","encoding","17","A42.jpg","1",".","37","0","665"
"13","13","encoding","encoding","18","B47.jpg","3",".","37","0","476"
"13","13","encoding","encoding","19","A5.jpg","1",".","37","0","582"
"13","13","encoding","encoding","20","B71.jpg","3",".","37","0","458"
"13","13","encoding","encoding","21","B10.jpg","3",".","36","0","693"
"13","13","encoding","encoding","22","B28.jpg","3",".","37","0","752"
"13","13","encoding","encoding","23","B19.jpg","3",".","37","0","611"
"13","13","encoding","encoding","24","B34.jpg","3",".","37","0","549"
"13","13","encoding","encoding","25","A44.jpg","1",".","37","0","545"
"13","13","encoding","encoding","26","B42.jpg","3",".","37","0","459"
"13","13","encoding","encoding","27","B24.jpg","3",".","37","0","519"
"13","13","encoding","encoding","28","B31.jpg","3",".","37","0","505"
"13","13","encoding","encoding","29","B78.jpg","3",".","37","0","524"
"13","13","encoding","encoding","30","B49.jpg","3",".","37","0","720"
"13","13","encoding","encoding","31","A13.jpg","1",".","37","0","611"
"13","13","encoding","encoding","32","B42.jpg","3",".","37","0","741"
"13","13","encoding","encoding","33","B31.jpg","3",".","37","0","648"
"13","13","encoding","encoding","34","B73.jpg","3",".","36","0","731"
"13","13","encoding","encoding","35","A1.jpg","1",".","36","0","574"
"13","13","encoding","encoding","36","B68.jpg","3",".","37","0","591"
"13","13","encoding","encoding","37","B12.jpg","3",".","37","0","500"
"13","13","encoding","encoding","38","A14.jpg","1",".","37","0","487"
"13","13","encoding","encoding","39","B15.jpg","3",".","37","0","450"
"13","13","encoding","encoding","40","B29.jpg","3",".","37","0","437"
"13","13","encoding","encoding","41","A34.jpg","1",".","37","0","440"
"13","13","encoding","encoding","42","B29.jpg","3",".","37","0","403"
"13","13","encoding","encoding","43","B26.jpg","3",".","37","0","750"
"13","13","encoding","encoding","44","B13.jpg","3",".","36","0","657"
"13","13","encoding","encoding","45","A46.jpg","1",".","37","0","548"
"13","13","encoding","encoding","46","B12.jpg","3",".","37","0","374"
"13","13","encoding","encoding","47","B57.jpg","3",".","37","0","401"
"13","13","encoding","encoding","48","B63.jpg","3",".","37","0","420"
"13","13","encoding","encoding","49","B8.jpg","3",".","37","0","359"
"13","13","encoding","encoding","50","B53.jpg","3",".","37","0","354"
"13","13","encoding","encoding","51","B39.jpg","3",".","37","0","621"
"13","13","encoding","encoding","52","B48.jpg","3",".","37","0","520"
"13","13","encoding","encoding","53","B71.jpg","3",".","37","0","435"
"13","13","encoding","encoding","54","B45.jpg","3",".","37","0","486"
"13","13","encoding","encoding","55","B24.jpg","3",".","37","0","409"
"13","13","encoding","encoding","56","B59.jpg","3",".","37","0","468"
"13","13","encoding","encoding","57","B26.jpg","3",".","37","0","399"
"13","13","encoding","encoding","58","B77.jpg","3",".","36","0","682"
"13","13","encoding","encoding","59","B39.jpg","3",".","37","0","653"
"13","13","encoding","encoding","60","B51.jpg","3",".","37","0","741"
"13","13","encoding","encoding","61","B7.jpg","3",".","37","0","890"
"13","13","encoding","encoding","62","A68.jpg","1",".","36","0","781"
"13","13","encoding","encoding","63","B46.jpg","3",".","37","0","792"
"13","13","encoding","encoding","64","B15.jpg","3",".","37","0","571"
"13","13","encoding","encoding","65","B70.jpg","3",".","37","0","502"
"13","13","encoding","encoding","67","B46.jpg","3",".","37","0","675"
"13","13","encoding","encoding","68","B4.jpg","3",".","36","0","750"
"13","13","encoding","encoding","69","B40.jpg","3",".","37","0","681"
"13","13","encoding","encoding","70","B49.jpg","3",".","36","0","796"
"13","13","encoding","encoding","71","B72.jpg","3",".","37","0","582"
"13","13","encoding","encoding","72","B54.jpg","3",".","37","0","586"
"13","13","encoding","encoding","73","B40.jpg","3",".","37","0","549"
"13","13","encoding","encoding","74","A65.jpg","1",".","37","0","493"
"13","13","encoding","encoding","75","A30.jpg","1",".","37","0","490"
"13","13","encoding","encoding","76","B11.jpg","3",".","37","0","501"
"13","13","encoding","encoding","77","B69.jpg","3",".","37","0","512"
"13","13","encoding","encoding","78","B77.jpg","3",".","36","0","731"
"13","13","encoding","encoding","79","B12.jpg","3",".","37","0","502"
"13","13","encoding","encoding","80","B3.jpg","3",".","37","0","489"
"13","13","encoding","encoding","81","A22.jpg","1",".","37","0","428"
"13","13","encoding","encoding","82","A56.jpg","1",".","37","0","543"
"13","13","encoding","encoding","83","B13.jpg","3",".","36","0","642"
"13","13","encoding","encoding","84","B4.jpg","3",".","36","0","693"
"13","13","encoding","encoding","85","B67.jpg","3",".","37","0","504"
"13","13","encoding","encoding","86","B22.jpg","3",".","37","0","467"
"13","13","encoding","encoding","87","B23.jpg","3",".","37","0","486"
"13","13","encoding","encoding","88","B36.jpg","3",".","37","0","440"
"13","13","encoding","encoding","89","B64.jpg","3",".","36","0","746"
"13","13","encoding","encoding","90","B58.jpg","3",".","37","0","694"
"13","13","encoding","encoding","91","A15.jpg","1",".","37","0","569"
"13","13","encoding","encoding","92","B70.jpg","3",".","37","0","476"
"13","13","encoding","encoding","93","B72.jpg","3",".","37","0","471"
"13","13","encoding","encoding","94","B27.jpg","3",".","37","0","435"
"13","13","encoding","encoding","95","A40.jpg","1",".","0","0","1000"
"13","13","encoding","encoding","96","B58.jpg","3",".","37","0","576"
"13","13","encoding","encoding","97","A28.jpg","1",".","37","0","515"
"13","13","encoding","encoding","98","A60.jpg","1",".","37","0","486"
"13","13","encoding","encoding","99","B47.jpg","3",".","37","0","409"
"13","13","encoding","encoding","100","B46.jpg","3",".","37","0","443"
"13","13","encoding","encoding","101","B66.jpg","3",".","37","0","526"
"13","13","encoding","encoding","102","A32.jpg","1",".","37","0","480"
"13","13","encoding","encoding","103","B53.jpg","3",".","37","0","795"
"13","13","encoding","encoding","104","A20.jpg","1",".","36","0","766"
"13","13","encoding","encoding","105","B54.jpg","3",".","37","0","673"
"13","13","encoding","encoding","106","A6.jpg","1",".","36","0","637"
"13","13","encoding","encoding","107","B75.jpg","3",".","37","0","967"
"13","13","encoding","encoding","108","B10.jpg","3",".","37","0","842"
"13","13","encoding","encoding","109","B7.jpg","3",".","36","0","806"
"13","13","encoding","encoding","110","B19.jpg","3",".","37","0","558"
"13","13","encoding","encoding","111","B52.jpg","3",".","37","0","507"
"13","13","encoding","encoding","112","B23.jpg","3",".","37","0","421"
"13","13","encoding","encoding","113","B75.jpg","3",".","36","0","736"
"13","13","encoding","encoding","114","A11.jpg","1",".","37","0","683"
"13","13","encoding","encoding","115","B7.jpg","3",".","36","0","622"
"13","13","encoding","encoding","116","A66.jpg","1",".","37","0","304"
"13","13","encoding","encoding","117","A52.jpg","1",".","37","0","643"
"13","13","encoding","encoding","118","B76.jpg","3",".","36","0","558"
"13","13","encoding","encoding","119","B9.jpg","3",".","0","0","1000"
"13","13","encoding","encoding","120","B13.jpg","3",".","36","0","580"
"13","13","encoding","encoding","121","B19.jpg","3",".","37","0","543"
"13","13","encoding","encoding","122","B4.jpg","3",".","36","0","538"
"13","13","encoding","encoding","123","B21.jpg","3",".","37","0","557"
"13","13","encoding","encoding","124","A19.jpg","1",".","37","0","632"
"13","13","encoding","encoding","125","B44.jpg","3",".","37","0","595"
"13","13","encoding","encoding","126","B20.jpg","3",".","36","0","511"
"13","13","encoding","encoding","127","A24.jpg","1",".","37","0","602"
"13","13","encoding","encoding","128","A0.jpg","1",".","37","0","725"
"13","13","encoding","encoding","129","A76.jpg","1",".","37","0","439"
"13","13","encoding","encoding","130","B56.jpg","3",".","36","0","594"
"13","13","encoding","encoding","131","B8.jpg","3",".","37","0","509"
"13","13","encoding","encoding","133","B52.jpg","3",".","37","0","652"
"13","13","encoding","encoding","134","B75.jpg","3",".","36","0","671"
"13","13","encoding","encoding","135","B30.jpg","3",".","37","0","633"
"13","13","encoding","encoding","136","B38.jpg","3",".","37","0","589"
"13","13","encoding","encoding","137","B9.jpg","3",".","37","0","496"
"13","13","encoding","encoding","138","B57.jpg","3",".","37","0","651"
"13","13","encoding","encoding","139","B53.jpg","3",".","36","0","717"
"13","13","encoding","encoding","140","B5.jpg","3",".","37","0","520"
"13","13","encoding","encoding","141","B66.jpg","3",".","36","0","690"
"13","13","encoding","encoding","142","B1.jpg","3",".","37","0","702"
"13","13","encoding","encoding","143","A23.jpg","1",".","37","0","649"
"13","13","encoding","encoding","144","A4.jpg","1",".","37","0","660"
"13","13","encoding","encoding","145","B26.jpg","3",".","37","0","431"
"13","13","encoding","encoding","146","B5.jpg","3",".","37","0","522"
"13","13","encoding","encoding","147","A38.jpg","1",".","37","0","485"
"13","13","encoding","encoding","148","B32.jpg","3",".","37","0","439"
"13","13","encoding","encoding","149","B17.jpg","3",".","37","0","458"
"13","13","encoding","encoding","150","B78.jpg","3",".","37","0","462"
"13","13","encoding","encoding","151","A55.jpg","1",".","37","0","489"
"13","13","encoding","encoding","152","B79.jpg","3",".","37","0","563"
"13","13","encoding","encoding","153","A51.jpg","1",".","0","0","1000"
"13","13","encoding","encoding","154","B22.jpg","3",".","37","0","577"
"13","13","encoding","encoding","155","A21.jpg","1",".","37","0","516"
"13","13","encoding","encoding","156","B2.jpg","3",".","37","0","455"
"13","13","encoding","encoding","157","B65.jpg","3",".","37","0","442"
"13","13","encoding","encoding","158","A72.jpg","1",".","37","0","436"
"13","13","encoding","encoding","159","B50.jpg","3",".","37","0","440"
"13","13","encoding","encoding","160","B58.jpg","3",".","37","0","402"
"13","13","encoding","encoding","161","B45.jpg","3",".","37","0","533"
"13","13","encoding","encoding","162","B31.jpg","3",".","37","0","456"
"13","13","encoding","encoding","163","B35.jpg","3",".","37","0","459"
"13","13","encoding","encoding","164","A39.jpg","1",".","37","0","406"
"13","13","encoding","encoding","165","A45.jpg","1",".","36","0","769"
"13","13","encoding","encoding","166","B66.jpg","3",".","37","0","660"
"13","13","encoding","encoding","167","B2.jpg","3",".","37","0","599"
"13","13","encoding","encoding","168","B76.jpg","3",".","36","0","634"
"13","13","encoding","encoding","169","B55.jpg","3",".","37","0","533"
"13","13","encoding","encoding","170","B33.jpg","3",".","37","0","464"
"13","13","encoding","encoding","171","B56.jpg","3",".","36","0","563"
"13","13","encoding","encoding","172","B45.jpg","3",".","37","0","637"
"13","13","encoding","encoding","173","A7.jpg","1",".","36","0","616"
"13","13","encoding","encoding","174","A27.jpg","1",".","37","0","635"
"13","13","encoding","encoding","175","B28.jpg","3",".","37","0","558"
"13","13","encoding","encoding","176","A48.jpg","1",".","37","0","585"
"13","13","encoding","encoding","177","B57.jpg","3",".","37","0","500"
"13","13","encoding","encoding","178","B79.jpg","3",".","37","0","551"
"13","13","encoding","encoding","179","B22.jpg","3",".","37","0","458"
"13","13","encoding","encoding","180","B55.jpg","3",".","37","0","509"
"13","13","encoding","encoding","181","A43.jpg","1",".","36","0","624"
"13","13","encoding","encoding","182","A35.jpg","1",".","37","0","635"
"13","13","encoding","encoding","183","B32.jpg","3",".","37","0","518"
"13","13","encoding","encoding","184","B6.jpg","3",".","37","0","569"
"13","13","encoding","encoding","185","A64.jpg","1",".","37","0","468"
"13","13","encoding","encoding","186","B35.jpg","3",".","37","0","454"
"13","13","encoding","encoding","187","B41.jpg","3",".","37","0","441"
"13","13","encoding","encoding","188","B62.jpg","3",".","37","0","483"
"13","13","encoding","encoding","189","B8.jpg","3",".","37","0","448"
"13","13","encoding","encoding","190","B64.jpg","3",".","37","0","410"
"13","13","encoding","encoding","191","B17.jpg","3",".","37","0","581"
"13","13","encoding","encoding","192","A78.jpg","1",".","37","0","640"
"13","13","encoding","encoding","193","B33.jpg","3",".","37","0","507"
"13","13","encoding","encoding","194","A31.jpg","1",".","36","0","549"
"13","13","encoding","encoding","195","B11.jpg","3",".","37","0","552"
"13","13","encoding","encoding","196","B60.jpg","3",".","36","0","539"
"13","13","encoding","encoding","197","B43.jpg","3",".","37","0","972"
"13","13","encoding","encoding","199","B2.jpg","3",".","37","0","548"
"13","13","encoding","encoding","200","B78.jpg","3",".","37","0","479"
"13","13","encoding","encoding","201","B43.jpg","3",".","37","0","865"
"13","13","encoding","encoding","202","B69.jpg","3",".","37","0","508"
"13","13","encoding","encoding","203","A12.jpg","1",".","37","0","511"
"13","13","encoding","encoding","204","B37.jpg","3",".","37","0","602"
"13","13","encoding","encoding","205","B50.jpg","3",".","37","0","613"
"13","13","encoding","encoding","206","B51.jpg","3",".","37","0","639"
"13","13","encoding","encoding","207","A25.jpg","1",".","37","0","483"
"13","13","encoding","encoding","208","A3.jpg","1",".","37","0","501"
"13","13","encoding","encoding","209","A26.jpg","1",".","36","0","512"
"13","13","encoding","encoding","210","A29.jpg","1",".","37","0","451"
"13","13","encoding","encoding","211","B50.jpg","3",".","37","0","438"
"13","13","encoding","encoding","212","B41.jpg","3",".","37","0","417"
"13","13","encoding","encoding","213","B24.jpg","3",".","37","0","436"
"13","13","encoding","encoding","214","B1.jpg","3",".","37","0","447"
"13","13","encoding","encoding","215","B65.jpg","3",".","37","0","506"
"13","13","encoding","encoding","216","B43.jpg","3",".","37","0","637"
"13","13","encoding","encoding","217","B56.jpg","3",".","36","0","512"
"13","13","encoding","encoding","218","B51.jpg","3",".","37","0","523"
"13","13","encoding","encoding","219","B16.jpg","3",".","37","0","582"
"13","13","encoding","encoding","220","A77.jpg","1",".","37","0","472"
"13","13","encoding","encoding","221","B39.jpg","3",".","37","0","451"
"13","13","encoding","encoding","222","B61.jpg","3",".","37","0","430"
"13","13","encoding","encoding","223","B35.jpg","3",".","37","0","457"
"13","13","encoding","encoding","224","B3.jpg","3",".","37","0","452"
"13","13","encoding","encoding","225","B15.jpg","3",".","37","0","470"
"13","13","encoding","encoding","226","A9.jpg","1",".","37","0","489"
"13","13","encoding","encoding","227","B63.jpg","3",".","37","0","500"
"13","13","encoding","encoding","228","B16.jpg","3",".","37","0","583"
"13","13","encoding","encoding","229","B59.jpg","3",".","37","0","522"
"13","13","encoding","encoding","230","B70.jpg","3",".","37","0","501"
"13","13","encoding","encoding","231","A61.jpg","1",".","37","0","432"
"13","13","encoding","encoding","232","A67.jpg","1",".","36","0","611"
"13","13","encoding","encoding","233","A59.jpg","1",".","37","0","574"
"13","13","encoding","encoding","234","A75.jpg","1",".","37","0","537"
"13","13","encoding","encoding","235","A41.jpg","1",".","37","0","524"
"13","13","encoding","encoding","236","B67.jpg","3",".","37","0","463"
"13","13","encoding","encoding","237","B0.jpg","3",".","37","0","419"
"13","13","encoding","encoding","238","A49.jpg","1",".","37","0","566"
"13","13","encoding","encoding","239","B62.jpg","3",".","37","0","664"
"13","13","encoding","encoding","240","B68.jpg","3",".","37","0","499"
"13","13","encoding","encoding","241","B73.jpg","3",".","36","0","581"
"13","13","encoding","encoding","242","B74.jpg","3",".","36","0","520"
"13","13","encoding","encoding","243","B74.jpg","3",".","36","0","444"
"13","13","encoding","encoding","244","A58.jpg","1",".","37","0","598"
"13","13","encoding","encoding","245","B14.jpg","3",".","37","0","593"
"13","13","encoding","encoding","246","A69.jpg","1",".","37","0","588"
"13","13","encoding","encoding","247","B30.jpg","3",".","37","0","551"
"13","13","encoding","encoding","248","A47.jpg","1",".","37","0","530"
"13","13","encoding","encoding","249","B61.jpg","3",".","37","0","437"
"13","13","encoding","encoding","250","B27.jpg","3",".","37","0","433"
"13","13","encoding","encoding","251","B67.jpg","3",".","37","0","443"
"13","13","encoding","encoding","252","B14.jpg","3",".","37","0","454"
"13","13","encoding","encoding","253","B77.jpg","3",".","36","0","579"
"13","13","encoding","encoding","254","B30.jpg","3",".","37","0","515"
"13","13","encoding","encoding","255","B36.jpg","3",".","37","0","479"
"13","13","encoding","encoding","256","A36.jpg","1",".","37","0","530"
"13","13","encoding","encoding","257","A70.jpg","1",".","37","0","525"
"13","13","encoding","encoding","258","B74.jpg","3",".","37","0","535"
"13","13","encoding","encoding","259","A79.jpg","1",".","37","0","676"
"13","13","encoding","encoding","260","B63.jpg","3",".","37","0","726"
"13","13","encoding","encoding","261","B44.jpg","3",".","37","0","616"
"13","13","encoding","encoding","262","B18.jpg","3",".","37","0","627"
"13","13","encoding","encoding","263","B48.jpg","3",".","37","0","535"
"13","13","encoding","encoding","265","A63.jpg","1",".","37","0","661"
"13","13","encoding","encoding","266","B59.jpg","3",".","37","0","552"
"13","13","encoding","encoding","267","A16.jpg","1",".","37","0","835"
"13","13","encoding","encoding","268","A10.jpg","1",".","37","0","518"
"13","13","encoding","encoding","269","B27.jpg","3",".","37","0","417"
"13","13","encoding","encoding","270","B60.jpg","3",".","36","0","668"
"13","13","encoding","encoding","271","B37.jpg","3",".","37","0","655"
"13","13","encoding","encoding","272","B0.jpg","3",".","37","0","458"
"13","13","encoding","encoding","273","B34.jpg","3",".","37","0","445"
"13","13","encoding","encoding","274","B69.jpg","3",".","37","0","447"
"13","13","encoding","encoding","275","B68.jpg","3",".","37","0","682"
"13","13","encoding","encoding","276","A2.jpg","1",".","37","0","493"
"13","13","encoding","encoding","277","B9.jpg","3",".","37","0","440"
"13","13","encoding","encoding","278","B38.jpg","3",".","37","0","547"
"13","13","encoding","encoding","279","B41.jpg","3",".","37","0","550"
"13","13","encoding","encoding","280","B79.jpg","3",".","37","0","481"
"13","13","encoding","encoding","281","A37.jpg","1",".","37","0","532"
"13","13","encoding","encoding","282","B29.jpg","3",".","37","0","439"
"13","13","encoding","encoding","283","B20.jpg","3",".","36","0","586"
"13","13","encoding","encoding","284","B23.jpg","3",".","37","0","533"
"13","13","encoding","encoding","285","B5.jpg","3",".","37","0","464"
"13","13","encoding","encoding","286","B21.jpg","3",".","36","0","555"
"13","13","encoding","encoding","287","B21.jpg","3",".","37","0","766"
"13","13","encoding","encoding","288","B60.jpg","3",".","36","0","672"
"13","13","encoding","encoding","289","B72.jpg","3",".","37","0","603"
"13","13","encoding","encoding","290","B38.jpg","3",".","37","0","566"
"13","13","encoding","encoding","291","B3.jpg","3",".","37","0","465"
"13","13","encoding","encoding","292","B25.jpg","3",".","37","0","364"
"13","13","encoding","encoding","293","B18.jpg","3",".","37","0","415"
"13","13","encoding","encoding","294","B48.jpg","3",".","37","0","466"
"13","13","encoding","encoding","295","B62.jpg","3",".","37","0","525"
"13","13","encoding","encoding","296","B33.jpg","3",".","37","0","528"
"13","13","encoding","encoding","297","B40.jpg","3",".","37","0","563"
"13","13","encoding","encoding","298","B54.jpg","3",".","37","0","574"
"13","13","encoding","encoding","299","B28.jpg","3",".","37","0","561"
"13","13","encoding","encoding","300","B73.jpg","3",".","36","0","580"
"13","13","encoding","encoding","301","B61.jpg","3",".","37","0","599"
"13","13","encoding","encoding","302","B32.jpg","3",".","37","0","594"
"13","13","encoding","encoding","303","A8.jpg","1",".","37","0","492"
"13","13","encoding","encoding","304","B25.jpg","3",".","37","0","495"
"13","13","encoding","encoding","305","B65.jpg","3",".","37","0","650"
"13","13","encoding","encoding","306","B18.jpg","3",".","37","0","475"
"13","13","encoding","encoding","307","B64.jpg","3",".","36","0","608"
"13","13","encoding","encoding","308","B10.jpg","3",".","37","0","722"
"13","13","encoding","encoding","309","B37.jpg","3",".","37","0","597"
"13","13","encoding","encoding","310","B42.jpg","3",".","37","0","552"
"13","13","encoding","encoding","311","B16.jpg","3",".","37","0","475"
"13","13","encoding","encoding","312","B34.jpg","3",".","37","0","471"
"13","13","encoding","encoding","313","B6.jpg","3",".","37","0","425"
"13","13","encoding","encoding","314","A17.jpg","1",".","37","0","460"
"13","13","encoding","encoding","315","B17.jpg","3",".","37","0","536"
"13","13","encoding","encoding","316","A33.jpg","1",".","37","0","514"
"13","13","encoding","encoding","317","A18.jpg","1",".","36","0","618"
"13","13","encoding","encoding","318","A74.jpg","1",".","37","0","576"
"13","13","encoding","encoding","319","B11.jpg","3",".","37","0","532"
"13","13","encoding","encoding","320","B52.jpg","3",".","37","0","534"
"13","13","encoding","encoding","321","B0.jpg","3",".","37","0","520"
"13","13","encoding","encoding","322","B1.jpg","3",".","37","0","475"
"13","13","encoding","encoding","323","B71.jpg","3",".","37","0","430"
"13","13","encoding","encoding","324","B14.jpg","3",".","37","0","449"
"13","13","encoding","encoding","325","A73.jpg","",".","37","0","420"
"13","13","retrieval","old_object","1","B4.jpg",".","3","36","1","704"
"13","13","retrieval","old_object","2","A56.jpg",".","1","36","1","1252"
"13","13","retrieval","old_object","3","B54.jpg",".","3","36","1","1254"
"13","13","retrieval","new_object","4","D48.jpg",".",".","37","1","827"
"13","13","retrieval","old_object","5","A17.jpg",".","1","36","1","972"
"13","13","retrieval","old_object","6","A78.jpg",".","1","37","0","920"
"13","13","retrieval","new_object","7","D63.jpg",".",".","37","1","900"
"13","13","retrieval","old_object","8","A18.jpg",".","1","36","1","710"
"13","13","retrieval","old_object","9","A4.jpg",".","1","36","1","801"
"13","13","retrieval","new_object","10","D4.jpg",".",".","37","1","844"
"13","13","retrieval","old_object","11","A74.jpg",".","1","37","0","751"
"13","13","retrieval","old_object","12","B20.jpg",".","3","36","1","779"
"13","13","retrieval","new_object","13","C26.jpg",".",".","36","0","1246"
"13","13","retrieval","old_object","14","B53.jpg",".","3","36","1","976"
"13","13","retrieval","new_object","15","D49.jpg",".",".","37","1","1052"
"13","13","retrieval","new_object","16","D28.jpg",".",".","37","1","1398"
"13","13","retrieval","new_object","17","D16.jpg",".",".","37","1","899"
"13","13","retrieval","new_object","18","D0.jpg",".",".","37","1","766"
"13","13","retrieval","new_object","19","D34.jpg",".",".","37","1","721"
"13","13","retrieval","old_object","20","A63.jpg",".","1","37","0","716"
"13","13","retrieval","old_object","21","A65.jpg",".","1","36","1","799"
"13","13","retrieval","old_object","22","B62.jpg",".","3","36","1","794"
"13","13","retrieval","new_object","23","D5.jpg",".",".","37","1","970"
"13","13","retrieval","old_object","24","A43.jpg",".","1","36","1","744"
"13","13","retrieval","new_object","25","C65.jpg",".",".","37","1","875"
"13","13","retrieval","old_object","26","B43.jpg",".","3","36","1","1062"
"13","13","retrieval","old_object","27","A30.jpg",".","1","36","1","954"
"13","13","retrieval","old_object","28","A31.jpg",".","1","36","1","997"
"13","13","retrieval","old_object","29","B31.jpg",".","3","36","1","696"
"13","13","retrieval","old_object","30","A21.jpg",".","1","37","0","1059"
"13","13","retrieval","old_object","31","A69.jpg",".","1","36","1","1070"
"13","13","retrieval","old_object","32","B71.jpg",".","3","36","1","833"
"13","13","retrieval","old_object","33","A9.jpg",".","1","36","1","828"
"13","13","retrieval","new_object","34","D76.jpg",".",".","37","1","1239"
"13","13","retrieval","new_object","35","D25.jpg",".",".","37","1","898"
"13","13","retrieval","old_object","36","B26.jpg",".","3","36","1","822"
"13","13","retrieval","old_object","37","B14.jpg",".","3","36","1","769"
"13","13","retrieval","old_object","38","A34.jpg",".","1","37","0","1108"
"13","13","retrieval","old_object","39","B68.jpg",".","3","36","1","735"
"13","13","retrieval","new_object","40","D42.jpg",".",".","37","1","938"
"13","13","retrieval","new_object","41","C1.jpg",".",".","37","1","1181"
"13","13","retrieval","old_object","42","B55.jpg",".","3","36","1","904"
"13","13","retrieval","old_object","43","A29.jpg",".","1","36","1","995"
"13","13","retrieval","new_object","44","D18.jpg",".",".","37","1","806"
"13","13","retrieval","old_object","45","A64.jpg",".","1","36","1","817"
"13","13","retrieval","new_object","46","D13.jpg",".",".","37","1","701"
"13","13","retrieval","new_object","47","C3.jpg",".",".","37","1","1016"
"13","13","retrieval","old_object","48","B67.jpg",".","3","36","1","843"
"13","13","retrieval","new_object","49","C0.jpg",".",".","37","1","1003"
"13","13","retrieval","new_object","50","C15.jpg",".",".","37","1","1016"
"13","13","retrieval","old_object","51","B33.jpg",".","3","36","1","876"
"13","13","retrieval","new_object","52","C76.jpg",".",".","37","1","983"
"13","13","retrieval","old_object","53","B2.jpg",".","3","37","0","1210"
"13","13","retrieval","new_object","54","C14.jpg",".",".","37","1","845"
"13","13","retrieval","new_object","55","C42.jpg",".",".","37","1","713"
"13","13","retrieval","new_object","56","C18.jpg",".",".","37","1","940"
"13","13","retrieval","new_object","57","C56.jpg",".",".","37","1","751"
"13","13","retrieval","new_object","58","C60.jpg",".",".","37","1","850"
"13","13","retrieval","new_object","59","C38.jpg",".",".","37","1","589"
"13","13","retrieval","old_object","60","B7.jpg",".","3","36","1","736"
"13","13","retrieval","new_object","61","C27.jpg",".",".","37","1","907"
"13","13","retrieval","new_object","62","C30.jpg",".",".","37","1","822"
"13","13","retrieval","old_object","63","A44.jpg",".","1","37","0","1001"
"13","13","retrieval","old_object","64","B39.jpg",".","3","36","1","844"
"13","13","retrieval","new_object","65","C11.jpg",".",".","37","1","951"
"13","13","retrieval","old_object","67","A16.jpg",".","1","36","1","909"
"13","13","retrieval","new_object","68","C44.jpg",".",".","37","1","833"
"13","13","retrieval","new_object","69","C40.jpg",".",".","37","1","971"
"13","13","retrieval","old_object","70","A8.jpg",".","1","36","1","902"
"13","13","retrieval","new_object","71","D53.jpg",".",".","37","1","841"
"13","13","retrieval","old_object","72","A70.jpg",".","1","36","1","1269"
"13","13","retrieval","new_object","73","D59.jpg",".",".","37","1","783"
"13","13","retrieval","old_object","74","B44.jpg",".","3","36","1","843"
"13","13","retrieval","new_object","75","D50.jpg",".",".","36","0","917"
"13","13","retrieval","new_object","76","D36.jpg",".",".","37","1","928"
"13","13","retrieval","new_object","77","C28.jpg",".",".","37","1","1612"
"13","13","retrieval","new_object","78","D10.jpg",".",".","36","0","919"
"13","13","retrieval","old_object","79","A5.jpg",".","1","37","0","1250"
"13","13","retrieval","new_object","80","C35.jpg",".",".","37","1","1158"
"13","13","retrieval","new_object","81","D43.jpg",".",".","37","1","952"
"13","13","retrieval","new_object","82","C61.jpg",".",".","37","1","852"
"13","13","retrieval","old_object","83","A0.jpg",".","1","37","0","791"
"13","13","retrieval","new_object","84","C53.jpg",".",".","37","1","978"
"13","13","retrieval","old_object","85","B9.jpg",".","3","36","1","797"
"13","13","retrieval","old_object","86","B47.jpg",".","3","36","1","856"
"13","13","retrieval","old_object","87","A66.jpg",".","1","36","1","731"
"13","13","retrieval","new_object","88","C59.jpg",".",".","37","1","758"
"13","13","retrieval","old_object","89","B27.jpg",".","3","36","1","953"
"13","13","retrieval","old_object","90","B21.jpg",".","3","36","1","1069"
"13","13","retrieval","old_object","91","A27.jpg",".","1","36","1","959"
"13","13","retrieval","new_object","92","D2.jpg",".",".","36","0","1058"
"13","13","retrieval","new_object","93","D41.jpg",".",".","37","1","965"
"13","13","retrieval","new_object","94","D68.jpg",".",".","37","1","953"
"13","13","retrieval","new_object","95","D67.jpg",".",".","37","1","1092"
"13","13","retrieval","new_object","96","C33.jpg",".",".","37","1","1278"
"13","13","retrieval","old_object","97","A73.jpg",".","1","36","1","868"
"13","13","retrieval","old_object","98","B59.jpg",".","3","36","1","894"
"13","13","retrieval","old_object","99","A39.jpg",".","1","36","1","777"
"13","13","retrieval","new_object","100","D75.jpg",".",".","36","0","1034"
"13","13","retrieval","new_object","101","C22.jpg",".",".","37","1","1103"
"13","13","retrieval","old_object","102","B17.jpg",".","3","36","1","842"
"13","13","retrieval","new_object","103","D72.jpg",".",".","37","1","869"
"13","13","retrieval","old_object","104","A19.jpg",".","1","37","0","1032"
"13","13","retrieval","new_object","105","C43.jpg",".",".","37","1","843"
"13","13","retrieval","old_object","106","B42.jpg",".","3","36","1","798"
"13","13","retrieval","old_object","107","A48.jpg",".","1","36","1","865"
"13","13","retrieval","new_object","108","C17.jpg",".",".","36","0","852"
"13","13","retrieval","new_object","109","C68.jpg",".",".","37","1","927"
"13","13","retrieval","old_object","110","B30.jpg",".","3","36","1","1082"
"13","13","retrieval","new_object","111","D1.jpg",".",".","37","1","1029"
"13","13","retrieval","old_object","112","B46.jpg",".","3","36","1","784"
"13","13","retrieval","old_object","113","B73.jpg",".","3","36","1","692"
"13","13","retrieval","old_object","114","B29.jpg",".","3","36","1","663"
"13","13","retrieval","new_object","115","C12.jpg",".",".","37","1","938"
"13","13","retrieval","new_object","116","C47.jpg",".",".","37","1","1333"
"13","13","retrieval","old_object","117","A68.jpg",".","1","36","1","704"
"13","13","retrieval","old_object","118","B35.jpg",".","3","36","1","755"
"13","13","retrieval","old_object","119","B65.jpg",".","3","36","1","718"
"13","13","retrieval","new_object","120","D15.jpg",".",".","36","0","1201"
"13","13","retrieval","new_object","121","D60.jpg",".",".","37","1","988"
"13","13","retrieval","new_object","122","C19.jpg",".",".","36","0","1223"
"13","13","retrieval","new_object","123","C29.jpg",".",".","37","1","754"
"13","13","retrieval","new_object","124","C66.jpg",".",".","36","0","982"
"13","13","retrieval","new_object","125","C6.jpg",".",".","37","1","736"
"13","13","retrieval","new_object","126","D54.jpg",".",".","37","1","817"
"13","13","retrieval","new_object","127","D11.jpg",".",".","37","1","1030"
"13","13","retrieval","new_object","128","D21.jpg",".",".","37","1","1055"
"13","13","retrieval","old_object","129","A79.jpg",".","1","37","0","1436"
"13","13","retrieval","new_object","130","C73.jpg",".",".","36","0","893"
"13","13","retrieval","new_object","131","D77.jpg",".",".","37","1","1362"
"13","13","retrieval","new_object","133","D58.jpg",".",".","37","1","870"
"13","13","retrieval","old_object","134","A33.jpg",".","1","36","1","881"
"13","13","retrieval","old_object","135","A7.jpg",".","1","37","0","820"
"13","13","retrieval","new_object","136","C36.jpg",".",".","37","1","983"
"13","13","retrieval","new_object","137","D23.jpg",".",".","37","1","818"
"13","13","retrieval","new_object","138","D62.jpg",".",".","37","1","749"
"13","13","retrieval","new_object","139","C34.jpg",".",".","36","0","888"
"13","13","retrieval","old_object","140","A22.jpg",".","1","36","1","851"
"13","13","retrieval","new_object","141","D65.jpg",".",".","37","1","1015"
"13","13","retrieval","old_object","142","B22.jpg",".","3","36","1","850"
"13","13","retrieval","old_object","143","B12.jpg",".","3","36","1","814"
"13","13","retrieval","new_object","144","D74.jpg",".",".","36","0","1096"
"13","13","retrieval","new_object","145","C46.jpg",".",".","36","0","739"
"13","13","retrieval","old_object","146","A62.jpg",".","1","36","1","790"
"13","13","retrieval","old_object","147","B66.jpg",".","3","36","1","753"
"13","13","retrieval","new_object","148","D6.jpg",".",".","37","1","916"
"13","13","retrieval","new_object","149","D78.jpg",".",".","37","1","975"
"13","13","retrieval","new_object","150","C5.jpg",".",".","37","1","834"
"13","13","retrieval","new_object","151","C75.jpg",".",".","37","1","949"
"13","13","retrieval","old_object","152","A59.jpg",".","1","37","0","832"
"13","13","retrieval","new_object","153","D8.jpg",".",".","37","1","811"
"13","13","retrieval","new_object","154","D31.jpg",".",".","37","1","830"
"13","13","retrieval","old_object","155","A38.jpg",".","1","36","1","809"
"13","13","retrieval","old_object","156","B1.jpg",".","3","36","1","812"
"13","13","retrieval","new_object","157","C79.jpg",".",".","37","1","1087"
"13","13","retrieval","old_object","158","B61.jpg",".","3","36","1","947"
"13","13","retrieval","new_object","159","D22.jpg",".",".","37","1","894"
"13","13","retrieval","old_object","160","A77.jpg",".","1","37","0","1305"
"13","13","retrieval","old_object","161","B69.jpg",".","3","36","1","732"
"13","13","retrieval","new_object","162","D29.jpg",".",".","37","1","999"
"13","13","retrieval","old_object","163","A2.jpg",".","1","36","1","914"
"13","13","retrieval","old_object","164","B56.jpg",".","3","36","1","774"
"13","13","retrieval","new_object","165","C57.jpg",".",".","37","1","1208"
"13","13","retrieval","old_object","166","A32.jpg",".","1","37","0","1300"
"13","13","retrieval","old_object","167","B74.jpg",".","3","36","1","936"
"13","13","retrieval","new_object","168","C71.jpg",".",".","36","0","971"
"13","13","retrieval","old_object","169","B58.jpg",".","3","37","0","1093"
"13","13","retrieval","old_object","170","B78.jpg",".","3","36","1","1168"
"13","13","retrieval","old_object","171","B8.jpg",".","3","36","1","724"
"13","13","retrieval","old_object","172","A76.jpg",".","1","36","1","735"
"13","13","retrieval","old_object","173","B3.jpg",".","3","36","1","721"
"13","13","retrieval","new_object","174","D19.jpg",".",".","36","0","1333"
"13","13","retrieval","new_object","175","C74.jpg",".",".","37","1","792"
"13","13","retrieval","new_object","176","C77.jpg",".",".","37","1","1162"
"13","13","retrieval","old_object","177","A52.jpg",".","1","37","0","1517"
"13","13","retrieval","new_object","178","C25.jpg",".",".","37","1","1026"
"13","13","retrieval","new_object","179","D66.jpg",".",".","37","1","1397"
"13","13","retrieval","new_object","180","D35.jpg",".",".","37","1","1080"
"13","13","retrieval","old_object","181","B51.jpg",".","3","36","1","1043"
"13","13","retrieval","new_object","182","C8.jpg",".",".","36","0","974"
"13","13","retrieval","new_object","183","C54.jpg",".",".","37","1","889"
"13","13","retrieval","new_object","184","D56.jpg",".",".","37","1","964"
"13","13","retrieval","old_object","185","B70.jpg",".","3","36","1","799"
"13","13","retrieval","new_object","186","C55.jpg",".",".","36","0","882"
"13","13","retrieval","old_object","187","B75.jpg",".","3","36","1","814"
"13","13","retrieval","new_object","188","C49.jpg",".",".","0","0","2000"
"13","13","retrieval","old_object","189","A25.jpg",".","1","36","1","940"
"13","13","retrieval","old_object","190","A51.jpg",".","1","36","1","719"
"13","13","retrieval","old_object","191","B16.jpg",".","3","36","1","698"
"13","13","retrieval","old_object","192","B63.jpg",".","3","36","1","709"
"13","13","retrieval","old_object","193","B13.jpg",".","3","36","1","592"
"13","13","retrieval","new_object","194","C32.jpg",".",".","37","1","1131"
"13","13","retrieval","new_object","195","D32.jpg",".",".","37","1","894"
"13","13","retrieval","old_object","196","A1.jpg",".","1","36","1","769"
"13","13","retrieval","new_object","197","C10.jpg",".",".","37","1","1084"
"13","13","retrieval","new_object","199","C20.jpg",".",".","37","1","798"
"13","13","retrieval","new_object","200","D73.jpg",".",".","37","1","1162"
"13","13","retrieval","old_object","201","B48.jpg",".","3","36","1","756"
"13","13","retrieval","new_object","202","D17.jpg",".",".","37","1","791"
"13","13","retrieval","old_object","203","B28.jpg",".","3","37","0","674"
"13","13","retrieval","new_object","204","C24.jpg",".",".","37","1","965"
"13","13","retrieval","new_object","205","D39.jpg",".",".","37","1","856"
"13","13","retrieval","old_object","206","B60.jpg",".","3","36","1","659"
"13","13","retrieval","old_object","207","B40.jpg",".","3","36","1","790"
"13","13","retrieval","new_object","208","D20.jpg",".",".","37","1","1017"
"13","13","retrieval","old_object","209","A26.jpg",".","1","36","1","860"
"13","13","retrieval","new_object","210","D79.jpg",".",".","37","1","847"
"13","13","retrieval","new_object","211","C37.jpg",".",".","37","1","986"
"13","13","retrieval","new_object","212","D70.jpg",".",".","37","1","933"
"13","13","retrieval","new_object","213","C52.jpg",".",".","37","1","1000"
"13","13","retrieval","new_object","214","C64.jpg",".",".","37","1","931"
"13","13","retrieval","new_object","215","D27.jpg",".",".","37","1","758"
"13","13","retrieval","new_object","216","D14.jpg",".",".","37","1","826"
"13","13","retrieval","new_object","217","C50.jpg",".",".","37","1","957"
"13","13","retrieval","old_object","218","A60.jpg",".","1","36","1","824"
"13","13","retrieval","new_object","219","C21.jpg",".",".","37","1","915"
"13","13","retrieval","new_object","220","C9.jpg",".",".","36","0","854"
"13","13","retrieval","old_object","221","A50.jpg",".","1","36","1","737"
"13","13","retrieval","old_object","222","B19.jpg",".","3","36","1","684"
"13","13","retrieval","new_object","223","C69.jpg",".",".","37","1","1105"
"13","13","retrieval","old_object","224","B41.jpg",".","3","36","1","754"
"13","13","retrieval","new_object","225","C48.jpg",".",".","36","0","1381"
"13","13","retrieval","new_object","226","D12.jpg",".",".","37","1","962"
"13","13","retrieval","new_object","227","D71.jpg",".",".","37","1","1140"
"13","13","retrieval","new_object","228","C16.jpg",".",".","37","1","1222"
"13","13","retrieval","old_object","229","B45.jpg",".","3","36","1","881"
"13","13","retrieval","new_object","230","D26.jpg",".",".","36","0","1236"
"13","13","retrieval","new_object","231","D61.jpg",".",".","37","1","1255"
"13","13","retrieval","old_object","232","A57.jpg",".","1","36","1","834"
"13","13","retrieval","old_object","233","B0.jpg",".","3","36","1","678"
"13","13","retrieval","new_object","234","D69.jpg",".",".","36","0","1105"
"13","13","retrieval","old_object","235","A11.jpg",".","1","37","0","1004"
"13","13","retrieval","old_object","236","A3.jpg",".","1","37","0","983"
"13","13","retrieval","new_object","237","D37.jpg",".",".","37","1","913"
"13","13","retrieval","old_object","238","A12.jpg",".","1","36","1","972"
"13","13","retrieval","old_object","239","A41.jpg",".","1","36","1","711"
"13","13","retrieval","old_object","240","A20.jpg",".","1","36","1","724"
"13","13","retrieval","old_object","241","B11.jpg",".","3","36","1","687"
"13","13","retrieval","new_object","242","C51.jpg",".",".","36","0","954"
"13","13","retrieval","new_object","243","D7.jpg",".",".","37","1","932"
"13","13","retrieval","old_object","244","A35.jpg",".","1","37","0","1247"
"13","13","retrieval","old_object","245","A55.jpg",".","1","36","1","874"
"13","13","retrieval","old_object","246","A10.jpg",".","1","0","0","2000"
"13","13","retrieval","new_object","247","C41.jpg",".",".","36","0","992"
"13","13","retrieval","old_object","248","B50.jpg",".","3","36","1","908"
"13","13","retrieval","old_object","249","A15.jpg",".","1","36","1","782"
"13","13","retrieval","old_object","250","B38.jpg",".","3","36","1","699"
"13","13","retrieval","old_object","251","B37.jpg",".","3","36","1","731"
"13","13","retrieval","old_object","252","A61.jpg",".","1","36","1","744"
"13","13","retrieval","old_object","253","A67.jpg",".","1","36","1","643"
"13","13","retrieval","old_object","254","A54.jpg",".","1","36","1","598"
"13","13","retrieval","old_object","255","A24.jpg",".","1","36","1","657"
"13","13","retrieval","old_object","256","B18.jpg",".","3","36","1","708"
"13","13","retrieval","new_object","257","D64.jpg",".",".","37","1","1295"
"13","13","retrieval","old_object","258","A23.jpg",".","1","37","0","978"
"13","13","retrieval","new_object","259","D47.jpg",".",".","37","1","789"
"13","13","retrieval","new_object","260","D38.jpg",".",".","37","1","840"
"13","13","retrieval","old_object","261","A72.jpg",".","1","36","1","762"
"13","13","retrieval","old_object","262","A42.jpg",".","1","36","1","677"
"13","13","retrieval","new_object","263","D57.jpg",".",".","37","1","904"
"13","13","retrieval","new_object","265","C78.jpg",".",".","37","1","846"
"13","13","retrieval","old_object","266","B57.jpg",".","3","36","1","737"
"13","13","retrieval","new_object","267","C39.jpg",".",".","37","1","908"
"13","13","retrieval","old_object","268","B25.jpg",".","3","36","1","720"
"13","13","retrieval","old_object","269","B77.jpg",".","3","36","1","962"
"13","13","retrieval","old_object","270","A47.jpg",".","1","36","1","981"
"13","13","retrieval","old_object","271","A75.jpg",".","1","36","1","832"
"13","13","retrieval","new_object","272","D51.jpg",".",".","37","1","1059"
"13","13","retrieval","old_object","273","A46.jpg",".","1","37","0","926"
"13","13","retrieval","old_object","274","B23.jpg",".","3","36","1","649"
"13","13","retrieval","new_object","275","C7.jpg",".",".","36","0","700"
"13","13","retrieval","new_object","276","D45.jpg",".",".","36","0","943"
"13","13","retrieval","old_object","277","B32.jpg",".","3","36","1","722"
"13","13","retrieval","new_object","278","C72.jpg",".",".","37","1","893"
"13","13","retrieval","old_object","279","B34.jpg",".","3","36","1","848"
"13","13","retrieval","old_object","280","B49.jpg",".","3","36","1","691"
"13","13","retrieval","old_object","281","B6.jpg",".","3","36","1","798"
"13","13","retrieval","new_object","282","C45.jpg",".",".","37","1","1153"
"13","13","retrieval","old_object","283","A45.jpg",".","1","36","1","788"
"13","13","retrieval","old_object","284","B15.jpg",".","3","36","1","783"
"13","13","retrieval","old_object","285","A13.jpg",".","1","36","1","746"
"13","13","retrieval","old_object","286","A36.jpg",".","1","36","1","902"
"13","13","retrieval","old_object","287","B72.jpg",".","3","36","1","769"
"13","13","retrieval","old_object","288","A40.jpg",".","1","37","0","1796"
"13","13","retrieval","old_object","289","A58.jpg",".","1","36","1","846"
"13","13","retrieval","new_object","290","C31.jpg",".",".","37","1","1066"
"13","13","retrieval","new_object","291","C62.jpg",".",".","37","1","1005"
"13","13","retrieval","new_object","292","C70.jpg",".",".","36","0","984"
"13","13","retrieval","old_object","293","A71.jpg",".","1","36","1","635"
"13","13","retrieval","old_object","294","A14.jpg",".","1","36","1","646"
"13","13","retrieval","new_object","295","C4.jpg",".",".","37","1","938"
"13","13","retrieval","old_object","296","B64.jpg",".","3","0","0","2000"
"13","13","retrieval","new_object","297","D46.jpg",".",".","37","1","864"
"13","13","retrieval","old_object","298","A6.jpg",".","1","36","1","754"
"13","13","retrieval","new_object","299","C58.jpg",".",".","37","1","974"
"13","13","retrieval","new_object","300","D55.jpg",".",".","37","1","1457"
"13","13","retrieval","new_object","301","D30.jpg",".",".","37","1","941"
"13","13","retrieval","new_object","302","C13.jpg",".",".","37","1","767"
"13","13","retrieval","new_object","303","D24.jpg",".",".","37","1","938"
"13","13","retrieval","old_object","304","B36.jpg",".","3","36","1","829"
"13","13","retrieval","old_object","305","B24.jpg",".","3","36","1","785"
"13","13","retrieval","new_object","306","C2.jpg",".",".","36","0","917"
"13","13","retrieval","new_object","307","C67.jpg",".",".","36","0","887"
"13","13","retrieval","new_object","308","D52.jpg",".",".","37","1","890"
"13","13","retrieval","old_object","309","B76.jpg",".","3","36","1","670"
"13","13","retrieval","new_object","310","D3.jpg",".",".","37","1","841"
"13","13","retrieval","old_object","311","A53.jpg",".","1","36","1","948"
"13","13","retrieval","old_object","312","B10.jpg",".","3","36","1","742"
"13","13","retrieval","new_object","313","C63.jpg",".",".","37","1","1000"
"13","13","retrieval","old_object","314","B79.jpg",".","3","36","1","652"
"13","13","retrieval","new_object","315","D9.jpg",".",".","37","1","886"
"13","13","retrieval","old_object","316","A49.jpg",".","1","37","0","1123"
"13","13","retrieval","old_object","317","A28.jpg",".","1","37","0","806"
"13","13","retrieval","old_object","318","B5.jpg",".","3","36","1","681"
"13","13","retrieval","new_object","319","D33.jpg",".",".","37","1","845"
"13","13","retrieval","old_object","320","B52.jpg",".","3","36","1","855"
"13","13","retrieval","new_object","321","C23.jpg",".",".","37","1","794"
"13","13","retrieval","old_object","322","A37.jpg",".","1","37","0","1031"
"13","13","retrieval","new_object","323","D40.jpg",".",".","37","1","1177"
"13","13","retrieval","new_object","324","D44.jpg",".",".","37","1","995"
"13","13","retrieval","old_object","325","B4.jpg",".","","36","1","696"
"13","13","demographics_block","gender","1",".",".",".","Male","1","20722"
"13","13","demographics_block","age","1",".",".",".","58","1","20722"
"13","13","demographics_block","education","1",".",".",".","16","1","20722"
"13","13","demographics_block","left_right_handed","2",".",".",".","Right","1","12723"
"13","13","demographics_block","raceoption1","2",".",".",".","","1","12723"
"13","13","demographics_block","raceoption2","2",".",".",".","","1","12723"
"13","13","demographics_block","raceoption3","2",".",".",".","","1","12723"
"13","13","demographics_block","raceoption4","2",".",".",".","","1","12723"
"13","13","demographics_block","raceoption5","2",".",".",".","","1","12723"
"13","13","demographics_block","raceoption6","2",".",".",".","","1","12723"
"13","13","demographics_block","raceoption7","2",".",".",".","","1","12723"
"13","13","demographics_block","raceoption8","2",".",".",".","7","1","12723"
"13","13","demographics_block","raceoption9","2",".",".",".","","1","12723"
"13","13","demographics_block","raceother","2",".",".",".","","1","12723"
"13","13","demographics_block","raceother","2",".",".",".","","1","12723"
"13","13","demographics_block","english_language","2",".",".",".","Yes","1","12723"
"13","13","demographics_block","other","2",".",".",".","","1","12723"
"13","13","demographics_block","eyesight","3",".",".",".","Yes","1","9595"
"13","13","demographics_block","colorblind","3",".",".",".","No","1","9595"
"15","15","encoding","encoding","1","A73.jpg","1",".","0","0","1000"
"15","15","encoding","encoding","2","B55.jpg","3",".","0","0","1000"
"15","15","encoding","encoding","3","A54.jpg","1",".","37","0","675"
"15","15","encoding","encoding","4","B6.jpg","3",".","37","0","413"
"15","15","encoding","encoding","5","B47.jpg","3",".","37","0","511"
"15","15","encoding","encoding","6","A53.jpg","1",".","37","0","482"
"15","15","encoding","encoding","7","B20.jpg","3",".","36","0","532"
"15","15","encoding","encoding","8","A57.jpg","1",".","37","0","526"
"15","15","encoding","encoding","9","B76.jpg","3",".","36","0","400"
"15","15","encoding","encoding","10","A62.jpg","1",".","37","0","506"
"15","15","encoding","encoding","11","B36.jpg","3",".","37","0","436"
"15","15","encoding","encoding","12","B49.jpg","3",".","36","0","518"
"15","15","encoding","encoding","13","B44.jpg","3",".","37","0","696"
"15","15","encoding","encoding","14","A50.jpg","1",".","37","0","450"
"15","15","encoding","encoding","15","A71.jpg","1",".","37","0","364"
"15","15","encoding","encoding","16","B25.jpg","3",".","37","0","374"
"15","15","encoding","encoding","17","A42.jpg","1",".","37","0","832"
"15","15","encoding","encoding","18","B47.jpg","3",".","37","0","386"
"15","15","encoding","encoding","19","A5.jpg","1",".","37","0","396"
"15","15","encoding","encoding","20","B71.jpg","3",".","37","0","398"
"15","15","encoding","encoding","21","B10.jpg","3",".","37","0","464"
"15","15","encoding","encoding","22","B28.jpg","3",".","37","0","435"
"15","15","encoding","encoding","23","B19.jpg","3",".","37","0","365"
"15","15","encoding","encoding","24","B34.jpg","3",".","37","0","479"
"15","15","encoding","encoding","25","A44.jpg","1",".","37","0","297"
"15","15","encoding","encoding","26","B42.jpg","3",".","37","0","643"
"15","15","encoding","encoding","27","B24.jpg","3",".","37","0","829"
"15","15","encoding","encoding","28","B31.jpg","3",".","37","0","439"
"15","15","encoding","encoding","29","B78.jpg","3",".","37","0","425"
"15","15","encoding","encoding","30","B49.jpg","3",".","37","0","571"
"15","15","encoding","encoding","31","A13.jpg","1",".","37","0","469"
"15","15","encoding","encoding","32","B42.jpg","3",".","37","0","367"
"15","15","encoding","encoding","33","B31.jpg","3",".","37","0","393"
"15","15","encoding","encoding","34","B73.jpg","3",".","36","0","643"
"15","15","encoding","encoding","35","A1.jpg","1",".","36","0","461"
"15","15","encoding","encoding","36","B68.jpg","3",".","37","0","512"
"15","15","encoding","encoding","37","B12.jpg","3",".","37","0","425"
"15","15","encoding","encoding","38","A14.jpg","1",".","37","0","380"
"15","15","encoding","encoding","39","B15.jpg","3",".","37","0","470"
"15","15","encoding","encoding","40","B29.jpg","3",".","37","0","384"
"15","15","encoding","encoding","41","A34.jpg","1",".","37","0","370"
"15","15","encoding","encoding","42","B29.jpg","3",".","37","0","372"
