"group","subject","blockcode","trialcode","trialnum","stimulus","encoding_condition","old_object_condition","response","correct","latency"
"19","19","encoding","encoding","1","CoffeeGrinder.jpg","3",".","0","0","1000"
"19","19","encoding","encoding","2","Lighter_Yellow.jpg","3",".","0","0","1000"
"19","19","encoding","encoding","3","Clock_Radio.jpg","3",".","0","0","1000"
"19","19","encoding","encoding","4","Hockey_Equipment.jpg","3",".","37","0","71"
"19","19","encoding","encoding","5","Bugle.jpg","1",".","0","0","1000"
"19","19","encoding","encoding","6","Sock_Ankle.jpg","3",".","36","0","60"
"19","19","encoding","encoding","7","Gorilla.jpg","3",".","37","0","64"
"19","19","encoding","encoding","8","Icepick.jpg","1",".","0","0","1000"
"19","19","encoding","encoding","9","DrillBit.jpg","3",".","0","0","1000"
"19","19","encoding","encoding","10","Toy_PoliceCar.jpg","3",".","0","0","1000"
"19","19","encoding","encoding","11","Outhouse.jpg","3",".","0","0","1000"
"19","19","encoding","encoding","12","Comb.jpg","3",".","0","0","1000"
"19","19","encoding","encoding","13","BicycleGear.jpg","1",".","37","0","67"
"19","19","encoding","encoding","14","Hawk.jpg","3",".","37","0","711"
"19","19","encoding","encoding","15","FlipFlop_PairBlue.jpg","3",".","37","0","493"
"19","19","encoding","encoding","16","Bandage_Wrap.jpg","1",".","37","0","182"
"19","19","encoding","encoding","17","Thermos_MetalSleek.jpg","1",".","37","0","83"
"19","19","encoding","encoding","18","Exercise_Machine.jpg","3",".","37","0","64"
"19","19","encoding","encoding","19","Hockey_Equipment.jpg","3",".","37","0","189"
"19","19","encoding","encoding","20","Decoration_WallOrnament.jpg","3",".","37","0","77"
"19","19","encoding","encoding","21","Toolbox_Old.jpg","3",".","37","0","202"
"19","19","encoding","encoding","22","Toy_BearBlackPlastic.jpg","3",".","0","0","1000"
"19","19","encoding","encoding","23","Helmet_Knight.jpg","3",".","0","0","1000"
"19","19","encoding","encoding","24","Cannister_Gas.jpg","3",".","0","0","1000"
"19","19","encoding","encoding","25","SkiPoles.jpg","3",".","0","0","1000"
"19","19","encoding","encoding","26","BicycleChain.jpg","3",".","37","0","68"
"19","19","encoding","encoding","27","Brooch_Fish.jpg","1",".","37","0","610"
"19","19","encoding","encoding","28","Bottle_Specimen.jpg","1",".","37","0","479"
"19","19","encoding","encoding","29","DivingBoard.jpg","3",".","37","0","551"
"19","19","encoding","encoding","30","Boxcutter.jpg","1",".","37","0","613"
"19","19","encoding","encoding","31","Gorilla.jpg","3",".","37","0","330"
"19","19","encoding","encoding","32","Kite_Rainbow.jpg","3",".","36","0","85"
"19","19","encoding","encoding","33","Outhouse.jpg","3",".","37","0","118"
"19","19","encoding","encoding","34","Sign_TrafficArrow.jpg","3",".","37","0","196"
"19","19","encoding","encoding","35","LampPost_OneBulb.jpg","3",".","37","0","84"
"19","19","encoding","encoding","36","Cross.jpg","3",".","37","0","132"
"19","19","encoding","encoding","37","Cannister_Gas.jpg","3",".","37","0","64"
"19","19","encoding","encoding","38","SaxophoneSoprano.jpg","3",".","37","0","238"
"19","19","encoding","encoding","39","SewingMachine.jpg","1",".","37","0","194"
"19","19","encoding","encoding","40","Clock_Radio.jpg","3",".","37","0","24"
"19","19","encoding","encoding","41","LampPost_OneBulb.jpg","3",".","37","0","226"
"19","19","encoding","encoding","42","SkullDeer.jpg","1",".","37","0","401"
"19","19","encoding","encoding","43","Truck_Dump.jpg","3",".","37","0","60"
"19","19","encoding","encoding","44","Jug_Milk.jpg","3",".","37","0","65"
"19","19","encoding","encoding","45","MobilityScooter.jpg","3",".","37","0","474"
"19","19","encoding","encoding","46","ContactLens.jpg","3",".","37","0","107"
"19","19","encoding","encoding","47","Toy_SeeSaw.jpg","3",".","37","0","641"
"19","19","encoding","encoding","48","Pajamas.jpg","1",".","37","0","104"
"19","19","encoding","encoding","49","Glass_Martini.jpg","3",".","37","0","24"
"19","19","encoding","encoding","50","Seashell_AlternateTellin.jpg","3",".","37","0","256"
"19","19","encoding","encoding","51","Syrup_Maple.jpg","1",".","37","0","177"
"19","19","encoding","encoding","52","Comb.jpg","3",".","37","0","184"
"19","19","encoding","encoding","53","Seashell_AlternateTellin.jpg","3",".","37","0","627"
"19","19","encoding","encoding","54","Dress_Blue.jpg","3",".","37","0","764"
"19","19","encoding","encoding","55","Paddle_Beach.jpg","3",".","37","0","323"
"19","19","encoding","encoding","56","Can_OilSpout.jpg","1",".","37","0","495"
"19","19","encoding","encoding","57","DivingBoard.jpg","3",".","37","0","84"
"19","19","encoding","encoding","58","KitchenTools.jpg","3",".","37","0","191"
"19","19","encoding","encoding","59","Toy_PoliceCar.jpg","3",".","37","0","67"
"19","19","encoding","encoding","60","DrillBit.jpg","3",".","37","0","252"
"19","19","encoding","encoding","61","Baster.jpg","3",".","37","0","338"
"19","19","encoding","encoding","62","Sign_TrafficArrow.jpg","3",".","0","0","1000"
"19","19","encoding","encoding","63","CookieCutter_Tree.jpg","3",".","37","0","155"
"19","19","encoding","encoding","64","Shoe_Pink.jpg","3",".","37","0","131"
"19","19","encoding","encoding","65","Switch_LightWhite.jpg","3",".","37","0","135"
"19","19","encoding","encoding","67","Dart.jpg","3",".","37","0","690"
"19","19","encoding","encoding","68","Bottle_BubbleBlower.jpg","3",".","37","0","254"
"19","19","encoding","encoding","69","Decoration_WallOrnament.jpg","3",".","37","0","180"
"19","19","encoding","encoding","70","Truck_Dump.jpg","3",".","37","0","250"
"19","19","encoding","encoding","71","Toy_DollOffice.jpg","3",".","37","0","81"
"19","19","encoding","encoding","72","Sink_Bathroom.jpg","3",".","37","0","221"
"19","19","encoding","encoding","73","ReindeerHeadband.jpg","1",".","37","0","74"
"19","19","encoding","encoding","74","Toolbox_Old.jpg","3",".","37","0","249"
"19","19","encoding","encoding","75","Toolbox_RedOpen.jpg","3",".","37","0","387"
"19","19","encoding","encoding","76","BicycleChain.jpg","3",".","36","0","111"
"19","19","encoding","encoding","77","Screw.jpg","3",".","37","0","544"
"19","19","encoding","encoding","78","Currants.jpg","3",".","37","0","184"
"19","19","encoding","encoding","79","Spatula_1.jpg","1",".","37","0","327"
"19","19","encoding","encoding","80","BoogieBoard.jpg","3",".","37","0","79"
"19","19","encoding","encoding","81","Microphone.jpg","1",".","37","0","276"
"19","19","encoding","encoding","82","Drum_Brazilan.jpg","1",".","36","0","325"
"19","19","encoding","encoding","83","House_Rural.jpg","3",".","37","0","365"
"19","19","encoding","encoding","84","Pasta_Spaghetti.jpg","1",".","37","0","315"
"19","19","encoding","encoding","85","Boots_KneeHigh.jpg","3",".","37","0","483"
"19","19","encoding","encoding","86","Toolbox_Old.jpg","3",".","37","0","682"
"19","19","encoding","encoding","87","Jar_Cotton.jpg","3",".","37","0","525"
"19","19","encoding","encoding","88","Lamp_TableWhite.jpg","3",".","0","0","1000"
"19","19","encoding","encoding","89","BicycleOdometer.jpg","3",".","37","0","537"
"19","19","encoding","encoding","90","Toy_SeeSaw.jpg","3",".","37","0","429"
"19","19","encoding","encoding","91","Hat_Baseball.jpg","3",".","37","0","88"
"19","19","encoding","encoding","92","Carbiner_Ascender.jpg","3",".","36","0","0"
"19","19","encoding","encoding","93","Telescope.jpg","3",".","36","0","70"
"19","19","encoding","encoding","94","Jug_Milk.jpg","3",".","36","0","187"
"19","19","encoding","encoding","95","Crib_Basket.jpg","3",".","37","0","76"
"19","19","encoding","encoding","96","PaperStack.jpg","3",".","37","0","204"
"19","19","encoding","encoding","97","Switch_LightWhite.jpg","3",".","37","0","242"
"19","19","encoding","encoding","98","Pot_Cooking.jpg","3",".","37","0","20"
"19","19","encoding","encoding","99","Fridge.jpg","1",".","37","0","441"
"19","19","encoding","encoding","100","Arch.jpg","1",".","37","0","121"
"19","19","encoding","encoding","101","BicycleOdometer.jpg","3",".","37","0","116"
"19","19","encoding","encoding","102","Comb.jpg","3",".","37","0","319"
"19","19","encoding","encoding","103","Socks_Winter.jpg","3",".","0","0","1000"
"19","19","encoding","encoding","104","Tofu.jpg","3",".","0","0","1000"
"19","19","encoding","encoding","105","Hawk.jpg","3",".","37","0","406"
"19","19","encoding","encoding","106","Kite_Rainbow.jpg","3",".","37","0","429"
"19","19","encoding","encoding","107","Toy_TableSet.jpg","3",".","37","0","459"
"19","19","encoding","encoding","108","ElasticBand.jpg","1",".","37","0","80"
"19","19","encoding","encoding","109","Sink_Bathroom.jpg","3",".","37","0","373"
"19","19","encoding","encoding","110","PropellerFan.jpg","3",".","37","0","67"
"19","19","encoding","encoding","111","Pickaxe.jpg","3",".","37","0","507"
"19","19","encoding","encoding","112","CookieCutter_Tree.jpg","3",".","37","0","444"
"19","19","encoding","encoding","113","Brace_Back.jpg","1",".","37","0","65"
"19","19","encoding","encoding","114","Flower_Orchid.jpg","1",".","36","0","102"
"19","19","encoding","encoding","115","BicycleChain.jpg","3",".","0","0","1000"
"19","19","encoding","encoding","116","Jar_Cotton.jpg","3",".","36","0","73"
"19","19","encoding","encoding","117","Tire_Hollow.jpg","3",".","36","0","165"
"19","19","encoding","encoding","118","PropellerFan.jpg","3",".","37","0","204"
"19","19","encoding","encoding","119","CrepeMaker.jpg","3",".","37","0","191"
"19","19","encoding","encoding","120","SundaeBanana.jpg","3",".","37","0","235"
"19","19","encoding","encoding","121","Chipmunk.jpg","1",".","37","0","238"
"19","19","encoding","encoding","122","Cross.jpg","3",".","37","0","269"
"19","19","encoding","encoding","123","PaperStack.jpg","3",".","37","0","508"
"19","19","encoding","encoding","124","BloodpPresureCuff.jpg","3",".","37","0","139"
"19","19","encoding","encoding","125","Screw.jpg","3",".","37","0","136"
"19","19","encoding","encoding","126","Box_Present.jpg","3",".","37","0","68"
"19","19","encoding","encoding","127","Box_Present.jpg","3",".","37","0","88"
"19","19","encoding","encoding","128","Tofu.jpg","3",".","37","0","821"
"19","19","encoding","encoding","129","Case_DVD.jpg","1",".","37","0","93"
"19","19","encoding","encoding","130","Bench_Wooden.jpg","1",".","37","0","225"
"19","19","encoding","encoding","131","Glass_Martini.jpg","3",".","37","0","62"
"19","19","encoding","encoding","133","Tape_Washi.jpg","1",".","0","0","1000"
"19","19","encoding","encoding","134","Outhouse.jpg","3",".","37","0","262"
"19","19","encoding","encoding","135","Box_Present.jpg","3",".","37","0","100"
"19","19","encoding","encoding","136","CrepeMaker.jpg","3",".","37","0","30"
"19","19","encoding","encoding","137","Helmet_Knight.jpg","3",".","37","0","165"
"19","19","encoding","encoding","138","ShearsGarden.jpg","3",".","37","0","179"
"19","19","encoding","encoding","139","GranolaBar.jpg","3",".","37","0","170"
"19","19","encoding","encoding","140","Gorilla.jpg","3",".","37","0","280"
"19","19","encoding","encoding","141","Kite_Rainbow.jpg","3",".","0","0","1000"
"19","19","encoding","encoding","142","Iron_Antique.jpg","1",".","37","0","680"
"19","19","encoding","encoding","143","FlipFlop_PairBlue.jpg","3",".","0","0","1000"
"19","19","encoding","encoding","144","Toolbox_RedOpen.jpg","3",".","37","0","418"
"19","19","encoding","encoding","145","Carbiner_Ascender.jpg","3",".","37","0","138"
"19","19","encoding","encoding","146","SaxophoneSoprano.jpg","3",".","37","0","272"
"19","19","encoding","encoding","147","BicycleOdometer.jpg","3",".","37","0","151"
"19","19","encoding","encoding","148","Seashell_AlternateTellin.jpg","3",".","37","0","142"
"19","19","encoding","encoding","149","Clock_Radio.jpg","3",".","37","0","365"
"19","19","encoding","encoding","150","Frame_Oval.jpg","1",".","37","0","656"
"19","19","encoding","encoding","151","Tweezers.jpg","1",".","0","0","1000"
"19","19","encoding","encoding","152","Hottub.jpg","1",".","37","0","410"
"19","19","encoding","encoding","153","Crib_Basket.jpg","3",".","37","0","31"
"19","19","encoding","encoding","154","PanCooking.jpg","3",".","37","0","235"
"19","19","encoding","encoding","155","Dart.jpg","3",".","37","0","118"
"19","19","encoding","encoding","156","Cage_Bird.jpg","1",".","37","0","613"
"19","19","encoding","encoding","157","Dolphine.jpg","1",".","37","0","489"
"19","19","encoding","encoding","158","Lamp_TableWhite.jpg","3",".","37","0","215"
"19","19","encoding","encoding","159","Beaker.jpg","1",".","37","0","211"
"19","19","encoding","encoding","160","Exercise_Machine.jpg","3",".","37","0","769"
"19","19","encoding","encoding","161","PanCooking.jpg","3",".","37","0","185"
"19","19","encoding","encoding","162","SundaeBanana.jpg","3",".","37","0","423"
"19","19","encoding","encoding","163","Hammer.jpg","1",".","0","0","1000"
"19","19","encoding","encoding","164","Gun_Glue.jpg","3",".","37","0","258"
"19","19","encoding","encoding","165","Socks_Winter.jpg","3",".","37","0","322"
"19","19","encoding","encoding","166","Hazelnut.jpg","1",".","37","0","248"
"19","19","encoding","encoding","167","Exercise_Machine.jpg","3",".","37","0","456"
"19","19","encoding","encoding","168","Tire_Hollow.jpg","3",".","0","0","1000"
"19","19","encoding","encoding","169","Wheel_Steering.jpg","1",".","0","0","1000"
"19","19","encoding","encoding","170","ContactLens.jpg","3",".","37","0","117"
"19","19","encoding","encoding","171","Bell_Hand.jpg","3",".","37","0","90"
"19","19","encoding","encoding","172","DrillBit.jpg","3",".","37","0","74"
"19","19","encoding","encoding","173","Toy_TableSet.jpg","3",".","37","0","511"
"19","19","encoding","encoding","174","ShoppingCart.jpg","3",".","37","0","286"
"19","19","encoding","encoding","175","Hoverboard.jpg","1",".","37","0","93"
"19","19","encoding","encoding","176","CoffeeGrinder.jpg","3",".","37","0","104"
"19","19","encoding","encoding","177","CrepeMaker.jpg","3",".","0","0","1000"
"19","19","encoding","encoding","178","Pen_Ballpoint.jpg","3",".","0","0","1000"
"19","19","encoding","encoding","179","Dart.jpg","3",".","0","0","1000"
"19","19","encoding","encoding","180","Cabinet_Office.jpg","1",".","37","0","753"
"19","19","encoding","encoding","181","Dress_Blue.jpg","3",".","37","0","74"
"19","19","encoding","encoding","182","Cannister_Gas.jpg","3",".","0","0","1000"
"19","19","encoding","encoding","183","KeyHook_Occupied.jpg","1",".","37","0","271"
"19","19","encoding","encoding","184","TireRims.jpg","3",".","37","0","276"
"19","19","encoding","encoding","185","GranolaBar.jpg","3",".","37","0","80"
"19","19","encoding","encoding","186","Pot_Cooking.jpg","3",".","37","0","82"
"19","19","encoding","encoding","187","Hockey_Equipment.jpg","3",".","37","0","216"
"19","19","encoding","encoding","188","Chinchilla.jpg","1",".","37","0","169"
"19","19","encoding","encoding","189","KitchenTools.jpg","3",".","37","0","81"
"19","19","encoding","encoding","190","Bomb.jpg","1",".","37","0","100"
"19","19","encoding","encoding","191","CoffeeGrinder.jpg","3",".","37","0","171"
"19","19","encoding","encoding","192","Bottle_BubbleBlower.jpg","3",".","37","0","1"
"19","19","encoding","encoding","193","TireRims.jpg","3",".","37","0","149"
"19","19","encoding","encoding","194","Makeup_Foundation.jpg","1",".","37","0","160"
"19","19","encoding","encoding","195","Toy_BearBlackPlastic.jpg","3",".","37","0","247"
"19","19","encoding","encoding","196","Paddle_Beach.jpg","3",".","37","0","80"
"19","19","encoding","encoding","197","SundaeBanana.jpg","3",".","37","0","104"
"19","19","encoding","encoding","199","Boots_KneeHigh.jpg","3",".","37","0","147"
"19","19","encoding","encoding","200","BoogieBoard.jpg","3",".","37","0","113"
"19","19","encoding","encoding","201","House_Rural.jpg","3",".","37","0","115"
"19","19","encoding","encoding","202","Switch_LightWhite.jpg","3",".","37","0","122"
"19","19","encoding","encoding","203","Hat_Baseball.jpg","3",".","37","0","117"
"19","19","encoding","encoding","204","PanCooking.jpg","3",".","37","0","207"
"19","19","encoding","encoding","205","OnionRed.jpg","1",".","37","0","148"
"19","19","encoding","encoding","206","Chopsticks.jpg","1",".","37","0","205"
"19","19","encoding","encoding","207","BoogieBoard.jpg","3",".","37","0","120"
"19","19","encoding","encoding","208","Playground.jpg","1",".","37","0","93"
"19","19","encoding","encoding","209","Baster.jpg","3",".","37","0","36"
"19","19","encoding","encoding","210","Pot_Cooking.jpg","3",".","37","0","85"
"19","19","encoding","encoding","211","PedestalGreek.jpg","3",".","37","0","73"
"19","19","encoding","encoding","212","SkiPoles.jpg","3",".","37","0","186"
"19","19","encoding","encoding","213","Box_FirstAidOpen.jpg","1",".","37","0","49"
"19","19","encoding","encoding","214","Boardgame_Checkers.jpg","1",".","37","0","214"
"19","19","encoding","encoding","215","Sock_Ankle.jpg","3",".","0","0","1000"
"19","19","encoding","encoding","216","FlipFlop_PairBlue.jpg","3",".","37","0","100"
"19","19","encoding","encoding","217","Socks_Winter.jpg","3",".","37","0","77"
"19","19","encoding","encoding","218","Crib_Basket.jpg","3",".","37","0","233"
"19","19","encoding","encoding","219","Fencing_HelmetSwords.jpg","1",".","37","0","216"
"19","19","encoding","encoding","220","ToothPaste.jpg","1",".","37","0","223"
"19","19","encoding","encoding","221","PedestalGreek.jpg","3",".","37","0","135"
"19","19","encoding","encoding","222","Toy_Lighthouse.jpg","1",".","37","0","64"
"19","19","encoding","encoding","223","TurkeyDinner.jpg","1",".","37","0","69"
"19","19","encoding","encoding","224","Sink_Bathroom.jpg","3",".","37","0","69"
"19","19","encoding","encoding","225","Jug_Milk.jpg","3",".","37","0","140"
"19","19","encoding","encoding","226","Pig.jpg","1",".","37","0","153"
"19","19","encoding","encoding","227","Gun_Glue.jpg","3",".","37","0","175"
"19","19","encoding","encoding","228","Hat_Baseball.jpg","3",".","37","0","13"
"19","19","encoding","encoding","229","Statue_SouthAmerican.jpg","1",".","37","0","124"
"19","19","encoding","encoding","230","CuttingBoard.jpg","3",".","37","0","28"
"19","19","encoding","encoding","231","Toy_DollOffice.jpg","3",".","37","0","74"
"19","19","encoding","encoding","232","SaxophoneSoprano.jpg","3",".","37","0","294"
"19","19","encoding","encoding","233","Baster.jpg","3",".","37","0","383"
"19","19","encoding","encoding","234","TireRims.jpg","3",".","37","0","84"
"19","19","encoding","encoding","235","Toy_SeeSaw.jpg","3",".","37","0","158"
"19","19","encoding","encoding","236","KitchenTools.jpg","3",".","37","0","77"
"19","19","encoding","encoding","237","Boots_KneeHigh.jpg","3",".","37","0","148"
"19","19","encoding","encoding","238","ContactLens.jpg","3",".","37","0","15"
"19","19","encoding","encoding","239","Truck_Dump.jpg","3",".","37","0","199"
"19","19","encoding","encoding","240","Ball_Disco.jpg","1",".","37","0","76"
"19","19","encoding","encoding","241","Dress_Blue.jpg","3",".","37","0","128"
"19","19","encoding","encoding","242","Toolbox_RedOpen.jpg","3",".","0","0","1000"
"19","19","encoding","encoding","243","PaintRoller.jpg","1",".","37","0","84"
"19","19","encoding","encoding","244","Lamp_TableWhite.jpg","3",".","37","0","99"
"19","19","encoding","encoding","245","Gun_Glue.jpg","3",".","37","0","242"
"19","19","encoding","encoding","246","ChessPiece_Knight.jpg","1",".","37","0","76"
"19","19","encoding","encoding","247","RibbonSpool.jpg","1",".","37","0","214"
"19","19","encoding","encoding","248","ShearsGarden.jpg","3",".","37","0","66"
"19","19","encoding","encoding","249","HumanSkeleton.jpg","1",".","37","0","82"
"19","19","encoding","encoding","250","MobilityScooter.jpg","3",".","37","0","202"
"19","19","encoding","encoding","251","Toy_BearBlackPlastic.jpg","3",".","37","0","200"
"19","19","encoding","encoding","252","AnsweringMachine.jpg","1",".","37","0","302"
"19","19","encoding","encoding","253","Currants.jpg","3",".","37","0","86"
"19","19","encoding","encoding","254","Waffle.jpg","1",".","37","0","113"
"19","19","encoding","encoding","255","Lighter_Yellow.jpg","3",".","37","0","150"
"19","19","encoding","encoding","256","PaperStack.jpg","3",".","37","0","252"
"19","19","encoding","encoding","257","Telescope.jpg","3",".","37","0","121"
"19","19","encoding","encoding","258","Carbiner_Ascender.jpg","3",".","37","0","306"
"19","19","encoding","encoding","259","SkiPoles.jpg","3",".","37","0","623"
"19","19","encoding","encoding","260","Cross.jpg","3",".","37","0","153"
"19","19","encoding","encoding","261","Crutches.jpg","3",".","37","0","17"
"19","19","encoding","encoding","262","Flower_Hibiscus.jpg","1",".","0","0","1000"
"19","19","encoding","encoding","263","Caterpillar.jpg","1",".","37","0","198"
"19","19","encoding","encoding","265","Statue_VirginMary.jpg","1",".","37","0","178"
"19","19","encoding","encoding","266","GranolaBar.jpg","3",".","37","0","125"
"19","19","encoding","encoding","267","CookieCutter_Tree.jpg","3",".","37","0","478"
"19","19","encoding","encoding","268","CuttingBoard.jpg","3",".","37","0","70"
"19","19","encoding","encoding","269","Shield_Antique.jpg","1",".","37","0","72"
"19","19","encoding","encoding","270","Radio_Vintage.jpg","1",".","37","0","414"
"19","19","encoding","encoding","271","Bindings_Snowboard.jpg","1",".","37","0","374"
"19","19","encoding","encoding","272","BloodpPresureCuff.jpg","3",".","37","0","337"
"19","19","encoding","encoding","273","Lighter_Yellow.jpg","3",".","37","0","495"
"19","19","encoding","encoding","274","Decoration_WallOrnament.jpg","3",".","37","0","925"
"19","19","encoding","encoding","275","PedestalGreek.jpg","3",".","37","0","685"
"19","19","encoding","encoding","276","Shoe_Pink.jpg","3",".","37","0","501"
"19","19","encoding","encoding","277","Strainer_Tea.jpg","1",".","37","0","330"
"19","19","encoding","encoding","278","Glass_Cup.jpg","1",".","37","0","91"
"19","19","encoding","encoding","279","SmokingPipe.jpg","1",".","37","0","287"
"19","19","encoding","encoding","280","Jar_Cotton.jpg","3",".","37","0","184"
"19","19","encoding","encoding","281","Tofu.jpg","3",".","37","0","175"
"19","19","encoding","encoding","282","Cabinet_Display.jpg","1",".","37","0","65"
"19","19","encoding","encoding","283","Hawk.jpg","3",".","37","0","461"
"19","19","encoding","encoding","284","ShoppingCart.jpg","3",".","37","0","158"
"19","19","encoding","encoding","285","Bottle_BubbleBlower.jpg","3",".","37","0","100"
"19","19","encoding","encoding","286","Helmet_Knight.jpg","3",".","37","0","117"
"19","19","encoding","encoding","287","Pickaxe.jpg","3",".","37","0","67"
"19","19","encoding","encoding","288","Pen_Ballpoint.jpg","3",".","37","0","114"
"19","19","encoding","encoding","289","LampPost_OneBulb.jpg","3",".","37","0","105"
"19","19","encoding","encoding","290","Ball_8.jpg","1",".","37","0","106"
"19","19","encoding","encoding","291","Bell_Hand.jpg","3",".","37","0","109"
"19","19","encoding","encoding","292","CartonEggs.jpg","1",".","37","0","149"
"19","19","encoding","encoding","293","Tire_Hollow.jpg","3",".","37","0","84"
"19","19","encoding","encoding","294","Pickaxe.jpg","3",".","37","0","164"
"19","19","encoding","encoding","295","Pipe.jpg","1",".","37","0","198"
"19","19","encoding","encoding","296","Crutches.jpg","3",".","37","0","39"
"19","19","encoding","encoding","297","Pen_Ballpoint.jpg","3",".","37","0","186"
"19","19","encoding","encoding","298","PropellerFan.jpg","3",".","37","0","83"
"19","19","encoding","encoding","299","CuttingBoard.jpg","3",".","37","0","0"
"19","19","encoding","encoding","300","Crutches.jpg","3",".","37","0","156"
"19","19","encoding","encoding","301","Broom_Long.jpg","1",".","37","0","200"
"19","19","encoding","encoding","302","Toy_DollOffice.jpg","3",".","37","0","290"
"19","19","encoding","encoding","303","BloodpPresureCuff.jpg","3",".","37","0","97"
"19","19","encoding","encoding","304","ShoppingCart.jpg","3",".","37","0","358"
"19","19","encoding","encoding","305","Shoe_Pink.jpg","3",".","37","0","228"
"19","19","encoding","encoding","306","Toy_PoliceCar.jpg","3",".","37","0","317"
"19","19","encoding","encoding","307","Bell_Hand.jpg","3",".","37","0","585"
"19","19","encoding","encoding","308","Toy_TableSet.jpg","3",".","37","0","308"
"19","19","encoding","encoding","309","Telescope.jpg","3",".","37","0","151"
"19","19","encoding","encoding","310","Knife_Butter.jpg","1",".","37","0","261"
"19","19","encoding","encoding","311","Sock_Ankle.jpg","3",".","37","0","234"
"19","19","encoding","encoding","312","Screw.jpg","3",".","37","0","248"
"19","19","encoding","encoding","313","Loofa.jpg","1",".","37","0","148"
"19","19","encoding","encoding","314","Currants.jpg","3",".","37","0","144"
"19","19","encoding","encoding","315","DivingBoard.jpg","3",".","37","0","146"
"19","19","encoding","encoding","316","Tribunal_Wooden.jpg","1",".","37","0","211"
"19","19","encoding","encoding","317","Sign_TrafficArrow.jpg","3",".","37","0","401"
"19","19","encoding","encoding","318","ShearsGarden.jpg","3",".","37","0","257"
"19","19","encoding","encoding","319","House_Rural.jpg","3",".","37","0","93"
"19","19","encoding","encoding","320","MobilityScooter.jpg","3",".","37","0","79"
"19","19","encoding","encoding","321","Glass_Martini.jpg","3",".","37","0","73"
"19","19","encoding","encoding","322","Thermostat.jpg","1",".","37","0","145"
"19","19","encoding","encoding","323","Paddle_Beach.jpg","3",".","37","0","175"
"19","19","encoding","encoding","324","SafetyPin.jpg","1",".","37","0","183"
"19","19","encoding","encoding","325","CoffeeGrinder.jpg","",".","37","0","74"
"19","19","retrieval","new_object","1","Megaphone.jpg",".",".","37","1","290"
"19","19","retrieval","old_object","2","Cage_Bird.jpg",".","1","0","0","2000"
"19","19","retrieval","old_object","3","Glass_Cup.jpg",".","1","0","0","2000"
"19","19","retrieval","new_object","4","Notebook.jpg",".",".","36","0","457"
"19","19","retrieval","new_object","5","SculptureMetalFish.jpg",".",".","36","0","68"
"19","19","retrieval","old_object","6","PropellerFan.jpg",".","3","36","1","87"
"19","19","retrieval","old_object","7","CookieCutter_Tree.jpg",".","3","36","1","67"
"19","19","retrieval","new_object","8","Hippopotamus.jpg",".",".","36","0","65"
"19","19","retrieval","old_object","9","Toy_BearBlackPlastic.jpg",".","3","37","0","85"
"19","19","retrieval","new_object","10","Fruit_Cactus.jpg",".",".","37","1","65"
"19","19","retrieval","old_object","11","Cabinet_Office.jpg",".","1","36","1","71"
"19","19","retrieval","new_object","12","Bellows.jpg",".",".","37","1","94"
"19","19","retrieval","old_object","13","Loofa.jpg",".","1","37","0","69"
"19","19","retrieval","old_object","14","Helmet_Knight.jpg",".","3","36","1","76"
"19","19","retrieval","new_object","15","Mattress.jpg",".",".","37","1","141"
"19","19","retrieval","new_object","16","Helmet_Construction.jpg",".",".","36","0","71"
"19","19","retrieval","old_object","17","BicycleChain.jpg",".","3","36","1","116"
"19","19","retrieval","new_object","18","Candy_Heart.jpg",".",".","37","1","80"
"19","19","retrieval","old_object","19","Lighter_Yellow.jpg",".","3","36","1","84"
"19","19","retrieval","old_object","20","Chinchilla.jpg",".","1","36","1","84"
"19","19","retrieval","old_object","21","Broom_Long.jpg",".","1","37","0","115"
"19","19","retrieval","old_object","22","Pot_Cooking.jpg",".","3","37","0","77"
"19","19","retrieval","new_object","23","Oyster.jpg",".",".","37","1","145"
"19","19","retrieval","old_object","24","Boardgame_Checkers.jpg",".","1","37","0","128"
"19","19","retrieval","old_object","25","Bell_Hand.jpg",".","3","36","1","272"
"19","19","retrieval","new_object","26","NailPolish.jpg",".",".","36","0","70"
"19","19","retrieval","old_object","27","Syrup_Maple.jpg",".","1","37","0","84"
"19","19","retrieval","new_object","28","Phone_Wireless.jpg",".",".","37","1","85"
"19","19","retrieval","old_object","29","Truck_Dump.jpg",".","3","37","0","67"
"19","19","retrieval","new_object","30","Beater_Electric.jpg",".",".","37","1","150"
"19","19","retrieval","new_object","31","Chest.jpg",".",".","37","1","193"
"19","19","retrieval","old_object","32","Fridge.jpg",".","1","36","1","62"
"19","19","retrieval","old_object","33","Exercise_Machine.jpg",".","3","36","1","340"
"19","19","retrieval","new_object","34","GasBurner.jpg",".",".","36","0","73"
"19","19","retrieval","new_object","35","TartStrawberry.jpg",".",".","36","0","96"
"19","19","retrieval","old_object","36","ShoppingCart.jpg",".","3","36","1","159"
"19","19","retrieval","new_object","37","CandyDispenser.jpg",".",".","36","0","70"
"19","19","retrieval","old_object","38","AnsweringMachine.jpg",".","1","36","1","59"
"19","19","retrieval","old_object","39","Bandage_Wrap.jpg",".","1","37","0","74"
"19","19","retrieval","new_object","40","Candy_Chocolate.jpg",".",".","37","1","70"
"19","19","retrieval","old_object","41","Pickaxe.jpg",".","3","36","1","92"
"19","19","retrieval","old_object","42","Frame_Oval.jpg",".","1","36","1","106"
"19","19","retrieval","new_object","43","Jar_JellyBeans.jpg",".",".","37","1","55"
"19","19","retrieval","old_object","44","Outhouse.jpg",".","3","36","1","91"
"19","19","retrieval","new_object","45","Clip_Paper.jpg",".",".","36","0","71"
"19","19","retrieval","old_object","46","Icepick.jpg",".","1","36","1","106"
"19","19","retrieval","old_object","47","Shoe_Pink.jpg",".","3","36","1","105"
"19","19","retrieval","old_object","48","Box_FirstAidOpen.jpg",".","1","36","1","70"
"19","19","retrieval","new_object","49","Shampoo.jpg",".",".","37","1","76"
"19","19","retrieval","new_object","50","BicycleBrake.jpg",".",".","36","0","71"
"19","19","retrieval","new_object","51","fries.jpg",".",".","37","1","88"
"19","19","retrieval","old_object","52","HumanSkeleton.jpg",".","1","36","1","118"
"19","19","retrieval","new_object","53","Fuse.jpg",".",".","37","1","127"
"19","19","retrieval","old_object","54","Switch_LightWhite.jpg",".","3","36","1","120"
"19","19","retrieval","new_object","55","BusStop.jpg",".",".","36","0","1318"
"19","19","retrieval","new_object","56","Guitar_Acoustic.jpg",".",".","36","0","1117"
"19","19","retrieval","new_object","57","BadgeSpecialAgent.jpg",".",".","36","0","204"
"19","19","retrieval","old_object","58","Dart.jpg",".","3","37","0","109"
"19","19","retrieval","old_object","59","Radio_Vintage.jpg",".","1","37","0","172"
"19","19","retrieval","new_object","60","Flamingo_Cartoon.jpg",".",".","36","0","93"
"19","19","retrieval","new_object","61","BicyclePedal.jpg",".",".","36","0","87"
"19","19","retrieval","new_object","62","Hook_Fish.jpg",".",".","36","0","123"
"19","19","retrieval","new_object","63","Bird_Cardinal.jpg",".",".","37","1","70"
"19","19","retrieval","new_object","64","DryRack_Dishes.jpg",".",".","37","1","129"
"19","19","retrieval","new_object","65","FlashlightHeadBand.jpg",".",".","37","1","87"
"19","19","retrieval","old_object","67","PaperStack.jpg",".","3","37","0","111"
"19","19","retrieval","new_object","68","TeethMould.jpg",".",".","36","0","135"
"19","19","retrieval","old_object","69","Wheel_Steering.jpg",".","1","36","1","125"
"19","19","retrieval","new_object","70","Nyala.jpg",".",".","37","1","438"
"19","19","retrieval","new_object","71","Generator.jpg",".",".","36","0","74"
"19","19","retrieval","new_object","72","Fish_Rockbass.jpg",".",".","36","0","63"
"19","19","retrieval","old_object","73","ReindeerHeadband.jpg",".","1","37","0","99"
"19","19","retrieval","old_object","74","Flower_Hibiscus.jpg",".","1","36","1","185"
"19","19","retrieval","old_object","75","Toy_TableSet.jpg",".","3","36","1","72"
"19","19","retrieval","new_object","76","Toy_RockingHorseBlack.jpg",".",".","37","1","118"
"19","19","retrieval","new_object","77","WashRack.jpg",".",".","37","1","65"
"19","19","retrieval","new_object","78","Chair_MedicalToilet.jpg",".",".","36","0","71"
"19","19","retrieval","new_object","79","AmpMeter.jpg",".",".","37","1","129"
"19","19","retrieval","old_object","80","Screw.jpg",".","3","37","0","179"
"19","19","retrieval","new_object","81","Steeple.jpg",".",".","36","0","100"
"19","19","retrieval","old_object","82","Flower_Orchid.jpg",".","1","37","0","87"
"19","19","retrieval","old_object","83","PaintRoller.jpg",".","1","36","1","81"
"19","19","retrieval","new_object","84","Paratrooper.jpg",".",".","37","1","111"
"19","19","retrieval","old_object","85","Hazelnut.jpg",".","1","36","1","84"
"19","19","retrieval","old_object","86","BicycleOdometer.jpg",".","3","37","0","65"
"19","19","retrieval","new_object","87","CookieCutter_Bell.jpg",".",".","36","0","147"
"19","19","retrieval","new_object","88","Lilypad.jpg",".",".","37","1","135"
"19","19","retrieval","old_object","89","Hockey_Equipment.jpg",".","3","36","1","75"
"19","19","retrieval","new_object","90","Box_Floral.jpg",".",".","37","1","63"
"19","19","retrieval","old_object","91","Ball_8.jpg",".","1","36","1","71"
"19","19","retrieval","new_object","92","Knife_Hunting.jpg",".",".","37","1","84"
"19","19","retrieval","old_object","93","BoogieBoard.jpg",".","3","37","0","67"
"19","19","retrieval","old_object","94","Toy_PoliceCar.jpg",".","3","37","0","181"
"19","19","retrieval","old_object","95","Thermos_MetalSleek.jpg",".","1","36","1","67"
"19","19","retrieval","old_object","96","Box_Present.jpg",".","3","36","1","79"
"19","19","retrieval","new_object","97","Lantern_TeaBox.jpg",".",".","37","1","90"
"19","19","retrieval","old_object","98","SaxophoneSoprano.jpg",".","3","37","0","71"
"19","19","retrieval","old_object","99","SundaeBanana.jpg",".","3","36","1","127"
"19","19","retrieval","new_object","100","SmokeDetector.jpg",".",".","37","1","103"
"19","19","retrieval","new_object","101","Mask_Happy.jpg",".",".","37","1","143"
"19","19","retrieval","old_object","102","Dolphine.jpg",".","1","37","0","111"
"19","19","retrieval","old_object","103","Statue_SouthAmerican.jpg",".","1","37","0","128"
"19","19","retrieval","new_object","104","Pipe_Drain.jpg",".",".","37","1","144"
"19","19","retrieval","old_object","105","Bottle_Specimen.jpg",".","1","37","0","162"
"19","19","retrieval","new_object","106","BottleOpener.jpg",".",".","37","1","265"
"19","19","retrieval","new_object","107","Speaker_OnStand.jpg",".",".","36","0","91"
"19","19","retrieval","old_object","108","Brace_Back.jpg",".","1","36","1","137"
"19","19","retrieval","new_object","109","JukeboxAntique.jpg",".",".","36","0","84"
"19","19","retrieval","old_object","110","Tape_Washi.jpg",".","1","37","0","86"
"19","19","retrieval","old_object","111","Decoration_WallOrnament.jpg",".","3","36","1","81"
"19","19","retrieval","old_object","112","Pig.jpg",".","1","37","0","79"
"19","19","retrieval","new_object","113","Chair_BeanBag.jpg",".",".","36","0","65"
"19","19","retrieval","old_object","114","Crib_Basket.jpg",".","3","37","0","166"
"19","19","retrieval","new_object","115","Trumpet.jpg",".",".","36","0","722"
"19","19","retrieval","new_object","116","Table_Poker.jpg",".",".","36","0","1090"
"19","19","retrieval","old_object","117","Gun_Glue.jpg",".","3","37","0","152"
"19","19","retrieval","new_object","118","MonaLisa.jpg",".",".","37","1","410"
"19","19","retrieval","new_object","119","Glove_Rubber.jpg",".",".","36","0","138"
"19","19","retrieval","new_object","120","NeedlesAcupuncture.jpg",".",".","37","1","121"
"19","19","retrieval","old_object","121","RibbonSpool.jpg",".","1","37","0","1799"
"19","19","retrieval","new_object","122","Toy_Witch.jpg",".",".","36","0","80"
"19","19","retrieval","old_object","123","ContactLens.jpg",".","3","37","0","266"
"19","19","retrieval","old_object","124","Bench_Wooden.jpg",".","1","36","1","127"
"19","19","retrieval","old_object","125","Thermostat.jpg",".","1","37","0","559"
"19","19","retrieval","new_object","126","Toy_StackingRing.jpg",".",".","37","1","78"
"19","19","retrieval","old_object","127","Drum_Brazilan.jpg",".","1","37","0","979"
"19","19","retrieval","old_object","128","Kite_Rainbow.jpg",".","3","36","1","80"
"19","19","retrieval","new_object","129","CameoPortrait.jpg",".",".","36","0","124"
"19","19","retrieval","old_object","130","DivingBoard.jpg",".","3","36","1","116"
"19","19","retrieval","old_object","131","Telescope.jpg",".","3","36","1","172"
"19","19","retrieval","old_object","133","CoffeeGrinder.jpg",".","3","36","1","126"
"19","19","retrieval","old_object","134","Toy_DollOffice.jpg",".","3","37","0","51"
"19","19","retrieval","new_object","135","DogTreat.jpg",".",".","37","1","363"
"19","19","retrieval","new_object","136","IceCream_Chocolate.jpg",".",".","37","1","377"
"19","19","retrieval","old_object","137","Hat_Baseball.jpg",".","3","37","0","73"
"19","19","retrieval","new_object","138","RemoteControl.jpg",".",".","37","1","192"
"19","19","retrieval","new_object","139","Ashtray_Empty.jpg",".",".","37","1","370"
"19","19","retrieval","old_object","140","Boots_KneeHigh.jpg",".","3","0","0","2000"
"19","19","retrieval","new_object","141","Mat_Door.jpg",".",".","36","0","82"
"19","19","retrieval","new_object","142","Keg.jpg",".",".","37","1","296"
"19","19","retrieval","old_object","143","PanCooking.jpg",".","3","37","0","0"
"19","19","retrieval","old_object","144","KitchenTools.jpg",".","3","37","0","92"
"19","19","retrieval","old_object","145","Socks_Winter.jpg",".","3","37","0","78"
"19","19","retrieval","new_object","146","Bottle_Wine.jpg",".",".","36","0","138"
"19","19","retrieval","old_object","147","Can_OilSpout.jpg",".","1","36","1","532"
"19","19","retrieval","new_object","148","WireStripper.jpg",".",".","36","0","67"
"19","19","retrieval","new_object","149","Pineapple.jpg",".",".","36","0","66"
"19","19","retrieval","new_object","150","DoorKnob.jpg",".",".","37","1","123"
"19","19","retrieval","new_object","151","MouthGuard.jpg",".",".","37","1","148"
"19","19","retrieval","old_object","152","Jar_Cotton.jpg",".","3","36","1","178"
"19","19","retrieval","old_object","153","Chopsticks.jpg",".","1","37","0","108"
"19","19","retrieval","old_object","154","Toy_Lighthouse.jpg",".","1","37","0","1"
"19","19","retrieval","new_object","155","Bowl_Chinese.jpg",".",".","37","1","62"
"19","19","retrieval","old_object","156","Tweezers.jpg",".","1","36","1","109"
"19","19","retrieval","old_object","157","Tire_Hollow.jpg",".","3","37","0","80"
"19","19","retrieval","new_object","158","Toy_Shapesorter.jpg",".",".","37","1","92"
"19","19","retrieval","new_object","159","Sign_Wetfloor.jpg",".",".","36","0","53"
"19","19","retrieval","new_object","160","Leaf_Clover.jpg",".",".","37","1","89"
"19","19","retrieval","old_object","161","Seashell_AlternateTellin.jpg",".","3","37","0","200"
"19","19","retrieval","old_object","162","Knife_Butter.jpg",".","1","36","1","126"
"19","19","retrieval","old_object","163","Statue_VirginMary.jpg",".","1","37","0","716"
"19","19","retrieval","new_object","164","Tortilla.jpg",".",".","36","0","128"
"19","19","retrieval","old_object","165","Currants.jpg",".","3","37","0","75"
"19","19","retrieval","old_object","166","ShearsGarden.jpg",".","3","36","1","369"
"19","19","retrieval","old_object","167","Caterpillar.jpg",".","1","37","0","406"
"19","19","retrieval","old_object","168","Tribunal_Wooden.jpg",".","1","37","0","80"
"19","19","retrieval","new_object","169","Trophy.jpg",".",".","37","1","69"
"19","19","retrieval","old_object","170","Pajamas.jpg",".","1","37","0","320"
"19","19","retrieval","new_object","171","Blanket.jpg",".",".","36","0","81"
"19","19","retrieval","old_object","172","Hoverboard.jpg",".","1","37","0","236"
"19","19","retrieval","new_object","173","DoorBell.jpg",".",".","36","0","67"
"19","19","retrieval","new_object","174","Spoon_Wooden.jpg",".",".","36","0","91"
"19","19","retrieval","old_object","175","PedestalGreek.jpg",".","3","37","0","82"
"19","19","retrieval","new_object","176","NintendoWii.jpg",".",".","37","1","55"
"19","19","retrieval","new_object","177","Bathtub.jpg",".",".","37","1","70"
"19","19","retrieval","old_object","178","Toolbox_Old.jpg",".","3","37","0","76"
"19","19","retrieval","old_object","179","Glass_Martini.jpg",".","3","36","1","130"
"19","19","retrieval","old_object","180","Toy_SeeSaw.jpg",".","3","36","1","252"
"19","19","retrieval","new_object","181","Candle_Blue.jpg",".",".","36","0","90"
"19","19","retrieval","new_object","182","Toy_GasPump.jpg",".",".","37","1","119"
"19","19","retrieval","old_object","183","Lamp_TableWhite.jpg",".","3","37","0","11"
"19","19","retrieval","new_object","184","Bottle_Blue.jpg",".",".","37","1","166"
"19","19","retrieval","new_object","185","Lock_Combination.jpg",".",".","37","1","97"
"19","19","retrieval","new_object","186","Light_Siren.jpg",".",".","36","0","68"
"19","19","retrieval","old_object","187","Tofu.jpg",".","3","36","1","21"
"19","19","retrieval","old_object","188","Hawk.jpg",".","3","37","0","164"
"19","19","retrieval","old_object","189","Sock_Ankle.jpg",".","3","37","0","90"
"19","19","retrieval","old_object","190","Jug_Milk.jpg",".","3","36","1","107"
"19","19","retrieval","new_object","191","Wheelbarrow_Green.jpg",".",".","36","0","0"
"19","19","retrieval","new_object","192","PaintBrushAndPallette.jpg",".",".","36","0","74"
"19","19","retrieval","old_object","193","Sign_TrafficArrow.jpg",".","3","37","0","40"
"19","19","retrieval","new_object","194","Hourglass.jpg",".",".","36","0","70"
"19","19","retrieval","new_object","195","Chest_Toys.jpg",".",".","37","1","128"
"19","19","retrieval","old_object","196","BicycleGear.jpg",".","1","37","0","63"
"19","19","retrieval","new_object","197","Cake_Wedding.jpg",".",".","36","0","89"
"19","19","retrieval","new_object","199","Mango.jpg",".",".","36","0","474"
"19","19","retrieval","new_object","200","Guitarcase.jpg",".",".","36","0","104"
"19","19","retrieval","old_object","201","Case_DVD.jpg",".","1","37","0","610"
"19","19","retrieval","old_object","202","OnionRed.jpg",".","1","36","1","52"
"19","19","retrieval","old_object","203","MobilityScooter.jpg",".","3","37","0","78"
"19","19","retrieval","old_object","204","House_Rural.jpg",".","3","36","1","86"
"19","19","retrieval","new_object","205","Dress_Party.jpg",".",".","36","0","65"
"19","19","retrieval","old_object","206","Beaker.jpg",".","1","37","0","77"
"19","19","retrieval","old_object","207","Strainer_Tea.jpg",".","1","37","0","68"
"19","19","retrieval","new_object","208","PaintRollTray.jpg",".",".","37","1","83"
"19","19","retrieval","old_object","209","Sink_Bathroom.jpg",".","3","37","0","187"
"19","19","retrieval","old_object","210","Paddle_Beach.jpg",".","3","36","1","158"
"19","19","retrieval","old_object","211","Pen_Ballpoint.jpg",".","3","36","1","82"
"19","19","retrieval","old_object","212","CrepeMaker.jpg",".","3","37","0","73"
"19","19","retrieval","old_object","213","Microphone.jpg",".","1","37","0","90"
"19","19","retrieval","old_object","214","Cannister_Gas.jpg",".","3","36","1","88"
"19","19","retrieval","old_object","215","TireRims.jpg",".","3","36","1","83"
"19","19","retrieval","new_object","216","Colander.jpg",".",".","37","1","77"
"19","19","retrieval","new_object","217","Golf_Bag.jpg",".",".","37","1","129"
"19","19","retrieval","new_object","218","StringBean.jpg",".",".","37","1","63"
"19","19","retrieval","old_object","219","CartonEggs.jpg",".","1","36","1","85"
"19","19","retrieval","new_object","220","Desk_School.jpg",".",".","36","0","65"
"19","19","retrieval","old_object","221","Pasta_Spaghetti.jpg",".","1","36","1","163"
"19","19","retrieval","old_object","222","ElasticBand.jpg",".","1","37","0","156"
"19","19","retrieval","new_object","223","Sign_Parking.jpg",".",".","36","0","246"
"19","19","retrieval","new_object","224","Stove_Camping.jpg",".",".","37","1","51"
"19","19","retrieval","new_object","225","ButterDish.jpg",".",".","37","1","66"
"19","19","retrieval","new_object","226","Apple_RedAndGreen.jpg",".",".","37","1","85"
"19","19","retrieval","new_object","227","Flute_Wooden.jpg",".",".","37","1","331"
"19","19","retrieval","old_object","228","CuttingBoard.jpg",".","3","36","1","171"
"19","19","retrieval","new_object","229","Peppermill.jpg",".",".","37","1","127"
"19","19","retrieval","old_object","230","Clock_Radio.jpg",".","3","37","0","86"
"19","19","retrieval","new_object","231","Knee.jpg",".",".","36","0","82"
"19","19","retrieval","old_object","232","Baster.jpg",".","3","36","1","96"
"19","19","retrieval","old_object","233","GranolaBar.jpg",".","3","36","1","18"
"19","19","retrieval","old_object","234","Hottub.jpg",".","1","36","1","63"
"19","19","retrieval","new_object","235","Cantaloupe.jpg",".",".","36","0","82"
"19","19","retrieval","old_object","236","Crutches.jpg",".","3","36","1","101"
"19","19","retrieval","new_object","237","Mop.jpg",".",".","37","1","76"
"19","19","retrieval","old_object","238","SmokingPipe.jpg",".","1","37","0","106"
"19","19","retrieval","new_object","239","Lollipop_Grape.jpg",".",".","37","1","85"
"19","19","retrieval","new_object","240","Saw.jpg",".",".","37","1","127"
"19","19","retrieval","new_object","241","Pitcher.jpg",".",".","36","0","246"
"19","19","retrieval","new_object","242","LeatherPuncherTool.jpg",".",".","36","0","51"
"19","19","retrieval","new_object","243","Shoes_DutchClogs.jpg",".",".","37","1","853"
"19","19","retrieval","new_object","244","ShoulderPads.jpg",".",".","37","1","88"
"19","19","retrieval","old_object","245","Bottle_BubbleBlower.jpg",".","3","36","1","62"
"19","19","retrieval","old_object","246","Makeup_Foundation.jpg",".","1","36","1","41"
"19","19","retrieval","old_object","247","SkiPoles.jpg",".","3","0","0","2000"
"19","19","retrieval","new_object","248","Toy_Moose.jpg",".",".","37","1","351"
"19","19","retrieval","new_object","249","Bullet.jpg",".",".","36","0","149"
"19","19","retrieval","new_object","250","Goose_Canadian.jpg",".",".","36","0","121"
"19","19","retrieval","old_object","251","SewingMachine.jpg",".","1","36","1","155"
"19","19","retrieval","new_object","252","Hammer_Reflex.jpg",".",".","37","1","150"
"19","19","retrieval","old_object","253","ChessPiece_Knight.jpg",".","1","37","0","77"
"19","19","retrieval","new_object","254","TinChristmas.jpg",".",".","37","1","78"
"19","19","retrieval","new_object","255","Fortress.jpg",".",".","36","0","725"
"19","19","retrieval","new_object","256","WindowBlinds.jpg",".",".","37","1","89"
"19","19","retrieval","new_object","257","Pants_Jeans.jpg",".",".","37","1","179"
"19","19","retrieval","old_object","258","Cabinet_Display.jpg",".","1","36","1","91"
"19","19","retrieval","new_object","259","Teabag.jpg",".",".","37","1","194"
"19","19","retrieval","old_object","260","Ball_Disco.jpg",".","1","36","1","108"
"19","19","retrieval","old_object","261","Hammer.jpg",".","1","37","0","110"
"19","19","retrieval","old_object","262","Gorilla.jpg",".","3","36","1","202"
"19","19","retrieval","old_object","263","TurkeyDinner.jpg",".","1","37","0","90"
"19","19","retrieval","new_object","265","IceCrusher.jpg",".",".","37","1","84"
"19","19","retrieval","new_object","266","Drink_Green.jpg",".",".","36","0","44"
"19","19","retrieval","old_object","267","Bugle.jpg",".","1","36","1","73"
"19","19","retrieval","old_object","268","Dress_Blue.jpg",".","3","36","1","46"
"19","19","retrieval","new_object","269","Tickets_Blank.jpg",".",".","37","1","185"
"19","19","retrieval","new_object","270","HairDryer.jpg",".",".","37","1","86"
"19","19","retrieval","new_object","271","BicycleHandleGrip.jpg",".",".","37","1","152"
"19","19","retrieval","new_object","272","Tripod.jpg",".",".","36","0","72"
"19","19","retrieval","new_object","273","Cup_Styrofoam.jpg",".",".","36","0","123"
"19","19","retrieval","new_object","274","Box_Jewellery.jpg",".",".","37","1","185"
"19","19","retrieval","old_object","275","FlipFlop_PairBlue.jpg",".","3","36","1","155"
"19","19","retrieval","old_object","276","KeyHook_Occupied.jpg",".","1","37","0","0"
"19","19","retrieval","new_object","277","Skates.jpg",".",".","36","0","117"
"19","19","retrieval","old_object","278","Bindings_Snowboard.jpg",".","1","37","0","73"
"19","19","retrieval","old_object","279","Arch.jpg",".","1","37","0","5"
"19","19","retrieval","old_object","280","SafetyPin.jpg",".","1","36","1","87"
"19","19","retrieval","old_object","281","Toolbox_RedOpen.jpg",".","3","36","1","269"
"19","19","retrieval","new_object","282","Autocreeper.jpg",".",".","36","0","141"
"19","19","retrieval","new_object","283","Mitt_Oven.jpg",".",".","36","0","226"
"19","19","retrieval","new_object","284","Almond.jpg",".",".","36","0","89"
"19","19","retrieval","old_object","285","Spatula_1.jpg",".","1","37","0","47"
"19","19","retrieval","new_object","286","Thermostat_Digital.jpg",".",".","37","1","145"
"19","19","retrieval","old_object","287","Pipe.jpg",".","1","37","0","69"
"19","19","retrieval","new_object","288","MixingGlass.jpg",".",".","37","1","138"
"19","19","retrieval","new_object","289","PassionFruit.jpg",".",".","36","0","91"
"19","19","retrieval","old_object","290","Cross.jpg",".","3","37","0","70"
"19","19","retrieval","old_object","291","Brooch_Fish.jpg",".","1","37","0","140"
"19","19","retrieval","old_object","292","ToothPaste.jpg",".","1","37","0","69"
"19","19","retrieval","new_object","293","Toys_Lego.jpg",".",".","36","0","82"
"19","19","retrieval","new_object","294","MonkeyPuppet.jpg",".",".","37","1","224"
"19","19","retrieval","new_object","295","DrinkingFountain.jpg",".",".","37","1","152"
"19","19","retrieval","old_object","296","Boxcutter.jpg",".","1","37","0","62"
"19","19","retrieval","new_object","297","Toy_BlocksPlastic Colourful.jpg",".",".","37","1","74"
"19","19","retrieval","new_object","298","Car_Sedan.jpg",".",".","37","1","266"
"19","19","retrieval","old_object","299","Fencing_HelmetSwords.jpg",".","1","37","0","169"
"19","19","retrieval","old_object","300","LampPost_OneBulb.jpg",".","3","37","0","170"
"19","19","retrieval","new_object","301","PuppetTheatre_WhiteGold.jpg",".",".","37","1","64"
"19","19","retrieval","old_object","302","Comb.jpg",".","3","37","0","440"
"19","19","retrieval","new_object","303","DentistOverheadLight.jpg",".",".","37","1","316"
"19","19","retrieval","new_object","304","PotatoMasher_Zigzag.jpg",".",".","37","1","300"
"19","19","retrieval","new_object","305","GPS.jpg",".",".","37","1","1142"
"19","19","retrieval","new_object","306","Exercise_Stretch.jpg",".",".","36","0","186"
"19","19","retrieval","new_object","307","Balalaika.jpg",".",".","37","1","57"
"19","19","retrieval","new_object","308","Cassette_Audio.jpg",".",".","37","1","134"
"19","19","retrieval","new_object","309","FireExtinguisher.jpg",".",".","37","1","217"
"19","19","retrieval","new_object","310","Sushi.jpg",".",".","37","1","122"
"19","19","retrieval","new_object","311","Cherry.jpg",".",".","37","1","70"
"19","19","retrieval","old_object","312","Playground.jpg",".","1","37","0","177"
"19","19","retrieval","new_object","313","Helmet_Soldier.jpg",".",".","37","1","136"
"19","19","retrieval","old_object","314","DrillBit.jpg",".","3","37","0","137"
"19","19","retrieval","old_object","315","Chipmunk.jpg",".","1","37","0","142"
"19","19","retrieval","old_object","316","BloodpPresureCuff.jpg",".","3","37","0","225"
"19","19","retrieval","old_object","317","SkullDeer.jpg",".","1","37","0","649"
"19","19","retrieval","old_object","318","Bomb.jpg",".","1","37","0","217"
"19","19","retrieval","old_object","319","Carbiner_Ascender.jpg",".","3","37","0","4"
"19","19","retrieval","old_object","320","Shield_Antique.jpg",".","1","36","1","96"
"19","19","retrieval","old_object","321","Waffle.jpg",".","1","37","0","70"
"19","19","retrieval","old_object","322","Iron_Antique.jpg",".","1","36","1","63"
"19","19","retrieval","new_object","323","Mug_Beer.jpg",".",".","37","1","61"
"19","19","retrieval","old_object","324","Cage_Bird.jpg",".","","36","1","65"
"19","19","retrieval","new_object","325","Spoons_MeasuringDetached.jpg",".",".","36","0","129"
"19","19","demographics_block","gender","1",".",".",".","Male","1","28152"
"19","19","demographics_block","age","1",".",".",".","35","1","28152"
"19","19","demographics_block","education","1",".",".",".","16","1","28152"
"19","19","demographics_block","left_right_handed","2",".",".",".","Right","1","6409"
"19","19","demographics_block","raceoption1","2",".",".",".","0","1","6409"
"19","19","demographics_block","raceoption2","2",".",".",".","","1","6409"
"19","19","demographics_block","raceoption3","2",".",".",".","","1","6409"
"19","19","demographics_block","raceoption4","2",".",".",".","","1","6409"
"19","19","demographics_block","raceoption5","2",".",".",".","","1","6409"
"19","19","demographics_block","raceoption6","2",".",".",".","","1","6409"
"19","19","demographics_block","raceoption7","2",".",".",".","","1","6409"
"19","19","demographics_block","raceoption8","2",".",".",".","","1","6409"
"19","19","demographics_block","raceoption9","2",".",".",".","","1","6409"
"19","19","demographics_block","raceother","2",".",".",".","","1","6409"
"19","19","demographics_block","raceother","2",".",".",".","","1","6409"
"19","19","demographics_block","english_language","2",".",".",".","Yes","1","6409"
"19","19","demographics_block","other","2",".",".",".","","1","6409"
"19","19","demographics_block","eyesight","3",".",".",".","Yes","1","8717"
"19","19","demographics_block","colorblind","3",".",".",".","No","1","8717"
"25","25","encoding","encoding","1","CoffeeGrinder.jpg","3",".","37","0","50"
"25","25","encoding","encoding","2","Lighter_Yellow.jpg","3",".","37","0","373"
"25","25","encoding","encoding","3","Clock_Radio.jpg","3",".","37","0","243"
"25","25","encoding","encoding","4","Hockey_Equipment.jpg","3",".","37","0","800"
"25","25","encoding","encoding","5","Bugle.jpg","1",".","37","0","574"
"25","25","encoding","encoding","6","Sock_Ankle.jpg","3",".","37","0","171"
"25","25","encoding","encoding","7","Gorilla.jpg","3",".","0","0","1000"
"25","25","encoding","encoding","8","Icepick.jpg","1",".","37","0","63"
"25","25","encoding","encoding","9","DrillBit.jpg","3",".","37","0","190"
"25","25","encoding","encoding","10","Toy_PoliceCar.jpg","3",".","37","0","41"
"25","25","encoding","encoding","11","Outhouse.jpg","3",".","37","0","7"
"25","25","encoding","encoding","12","Comb.jpg","3",".","37","0","719"
"25","25","encoding","encoding","13","BicycleGear.jpg","1",".","37","0","625"
"25","25","encoding","encoding","14","Hawk.jpg","3",".","37","0","620"
"25","25","encoding","encoding","15","FlipFlop_PairBlue.jpg","3",".","36","0","640"
"25","25","encoding","encoding","16","Bandage_Wrap.jpg","1",".","37","0","623"
"25","25","encoding","encoding","17","Thermos_MetalSleek.jpg","1",".","36","0","585"
"25","25","encoding","encoding","18","Exercise_Machine.jpg","3",".","36","0","548"
"25","25","encoding","encoding","19","Hockey_Equipment.jpg","3",".","36","0","609"
"25","25","encoding","encoding","20","Decoration_WallOrnament.jpg","3",".","37","0","684"
"25","25","encoding","encoding","21","Toolbox_Old.jpg","3",".","37","0","608"
"25","25","encoding","encoding","22","Toy_BearBlackPlastic.jpg","3",".","36","0","590"
"25","25","encoding","encoding","23","Helmet_Knight.jpg","3",".","36","0","587"
"25","25","encoding","encoding","24","Cannister_Gas.jpg","3",".","36","0","575"
"25","25","encoding","encoding","25","SkiPoles.jpg","3",".","36","0","510"
"25","25","encoding","encoding","26","BicycleChain.jpg","3",".","36","0","540"
"25","25","encoding","encoding","27","Brooch_Fish.jpg","1",".","36","0","690"
"25","25","encoding","encoding","28","Bottle_Specimen.jpg","1",".","36","0","555"
"25","25","encoding","encoding","29","DivingBoard.jpg","3",".","36","0","575"
"25","25","encoding","encoding","30","Boxcutter.jpg","1",".","36","0","520"
"25","25","encoding","encoding","31","Gorilla.jpg","3",".","36","0","570"
"25","25","encoding","encoding","32","Kite_Rainbow.jpg","3",".","36","0","560"
"25","25","encoding","encoding","33","Outhouse.jpg","3",".","36","0","694"
"25","25","encoding","encoding","34","Sign_TrafficArrow.jpg","3",".","36","0","695"
"25","25","encoding","encoding","35","LampPost_OneBulb.jpg","3",".","36","0","667"
"25","25","encoding","encoding","36","Cross.jpg","3",".","36","0","651"
"25","25","encoding","encoding","37","Cannister_Gas.jpg","3",".","36","0","702"
"25","25","encoding","encoding","38","SaxophoneSoprano.jpg","3",".","36","0","678"
"25","25","encoding","encoding","39","SewingMachine.jpg","1",".","36","0","654"
"25","25","encoding","encoding","40","Clock_Radio.jpg","3",".","36","0","608"
"25","25","encoding","encoding","41","LampPost_OneBulb.jpg","3",".","36","0","648"
"25","25","encoding","encoding","42","SkullDeer.jpg","1",".","36","0","587"
"25","25","encoding","encoding","43","Truck_Dump.jpg","3",".","36","0","577"
"25","25","encoding","encoding","44","Jug_Milk.jpg","3",".","36","0","603"
"25","25","encoding","encoding","45","MobilityScooter.jpg","3",".","36","0","535"
"25","25","encoding","encoding","46","ContactLens.jpg","3",".","36","0","648"
"25","25","encoding","encoding","47","Toy_SeeSaw.jpg","3",".","36","0","761"
"25","25","encoding","encoding","48","Pajamas.jpg","1",".","36","0","797"
"25","25","encoding","encoding","49","Glass_Martini.jpg","3",".","36","0","682"
"25","25","encoding","encoding","50","Seashell_AlternateTellin.jpg","3",".","36","0","637"
"25","25","encoding","encoding","51","Syrup_Maple.jpg","1",".","36","0","679"
"25","25","encoding","encoding","52","Comb.jpg","3",".","36","0","625"
"25","25","encoding","encoding","53","Seashell_AlternateTellin.jpg","3",".","36","0","570"
"25","25","encoding","encoding","54","Dress_Blue.jpg","3",".","36","0","584"
"25","25","encoding","encoding","55","Paddle_Beach.jpg","3",".","36","0","564"
"25","25","encoding","encoding","56","Can_OilSpout.jpg","1",".","36","0","556"
"25","25","encoding","encoding","57","DivingBoard.jpg","3",".","36","0","577"
"25","25","encoding","encoding","58","KitchenTools.jpg","3",".","37","0","565"
"25","25","encoding","encoding","59","Toy_PoliceCar.jpg","3",".","37","0","568"
"25","25","encoding","encoding","60","DrillBit.jpg","3",".","37","0","575"
"25","25","encoding","encoding","61","Baster.jpg","3",".","36","0","553"
"25","25","encoding","encoding","62","Sign_TrafficArrow.jpg","3",".","37","0","451"
"25","25","encoding","encoding","63","CookieCutter_Tree.jpg","3",".","36","0","521"
"25","25","encoding","encoding","64","Shoe_Pink.jpg","3",".","36","0","521"
"25","25","encoding","encoding","65","Switch_LightWhite.jpg","3",".","37","0","570"
"25","25","encoding","encoding","67","Dart.jpg","3",".","37","0","375"
"25","25","encoding","encoding","68","Bottle_BubbleBlower.jpg","3",".","37","0","701"
"25","25","encoding","encoding","69","Decoration_WallOrnament.jpg","3",".","37","0","891"
"25","25","encoding","encoding","70","Truck_Dump.jpg","3",".","0","0","1000"
"25","25","encoding","encoding","71","Toy_DollOffice.jpg","3",".","0","0","1000"
"25","25","encoding","encoding","72","Sink_Bathroom.jpg","3",".","0","0","1000"
"25","25","encoding","encoding","73","ReindeerHeadband.jpg","1",".","36","0","149"
"25","25","encoding","encoding","74","Toolbox_Old.jpg","3",".","36","0","467"
"25","25","encoding","encoding","75","Toolbox_RedOpen.jpg","3",".","37","0","475"
"25","25","encoding","encoding","76","BicycleChain.jpg","3",".","36","0","825"
"25","25","encoding","encoding","77","Screw.jpg","3",".","36","0","909"
"25","25","encoding","encoding","78","Currants.jpg","3",".","37","0","978"
"25","25","encoding","encoding","79","Spatula_1.jpg","1",".","37","0","783"
"25","25","encoding","encoding","80","BoogieBoard.jpg","3",".","36","0","647"
"25","25","encoding","encoding","81","Microphone.jpg","1",".","37","0","698"
"25","25","encoding","encoding","82","Drum_Brazilan.jpg","1",".","37","0","637"
"25","25","encoding","encoding","83","House_Rural.jpg","3",".","37","0","646"
"25","25","encoding","encoding","84","Pasta_Spaghetti.jpg","1",".","37","0","604"
"25","25","encoding","encoding","85","Boots_KneeHigh.jpg","3",".","37","0","677"
"25","25","encoding","encoding","86","Toolbox_Old.jpg","3",".","37","0","649"
"25","25","encoding","encoding","87","Jar_Cotton.jpg","3",".","37","0","697"
"25","25","encoding","encoding","88","Lamp_TableWhite.jpg","3",".","37","0","919"
"25","25","encoding","encoding","89","BicycleOdometer.jpg","3",".","37","0","671"
"25","25","encoding","encoding","90","Toy_SeeSaw.jpg","3",".","37","0","625"
"25","25","encoding","encoding","91","Hat_Baseball.jpg","3",".","36","0","630"
"25","25","encoding","encoding","92","Carbiner_Ascender.jpg","3",".","37","0","643"
"25","25","encoding","encoding","93","Telescope.jpg","3",".","36","0","602"
"25","25","encoding","encoding","94","Jug_Milk.jpg","3",".","36","0","637"
"25","25","encoding","encoding","95","Crib_Basket.jpg","3",".","0","0","1000"
"25","25","encoding","encoding","96","PaperStack.jpg","3",".","36","0","863"
"25","25","encoding","encoding","97","Switch_LightWhite.jpg","3",".","36","0","860"
"25","25","encoding","encoding","98","Pot_Cooking.jpg","3",".","36","0","684"
"25","25","encoding","encoding","99","Fridge.jpg","1",".","36","0","678"
"25","25","encoding","encoding","100","Arch.jpg","1",".","36","0","595"
"25","25","encoding","encoding","101","BicycleOdometer.jpg","3",".","37","0","560"
"25","25","encoding","encoding","102","Comb.jpg","3",".","36","0","600"
"25","25","encoding","encoding","103","Socks_Winter.jpg","3",".","36","0","765"
"25","25","encoding","encoding","104","Tofu.jpg","3",".","37","0","610"
"25","25","encoding","encoding","105","Hawk.jpg","3",".","37","0","621"
"25","25","encoding","encoding","106","Kite_Rainbow.jpg","3",".","36","0","497"
"25","25","encoding","encoding","107","Toy_TableSet.jpg","3",".","36","0","536"
"25","25","encoding","encoding","108","ElasticBand.jpg","1",".","36","0","648"
"25","25","encoding","encoding","109","Sink_Bathroom.jpg","3",".","37","0","653"
"25","25","encoding","encoding","110","PropellerFan.jpg","3",".","37","0","573"
"25","25","encoding","encoding","111","Pickaxe.jpg","3",".","37","0","560"
"25","25","encoding","encoding","112","CookieCutter_Tree.jpg","3",".","36","0","650"
"25","25","encoding","encoding","113","Brace_Back.jpg","1",".","37","0","590"
"25","25","encoding","encoding","114","Flower_Orchid.jpg","1",".","36","0","608"
"25","25","encoding","encoding","115","BicycleChain.jpg","3",".","37","0","610"
"25","25","encoding","encoding","116","Jar_Cotton.jpg","3",".","37","0","777"
"25","25","encoding","encoding","117","Tire_Hollow.jpg","3",".","37","0","721"
"25","25","encoding","encoding","118","PropellerFan.jpg","3",".","37","0","689"
"25","25","encoding","encoding","119","CrepeMaker.jpg","3",".","37","0","612"
"25","25","encoding","encoding","120","SundaeBanana.jpg","3",".","37","0","590"
"25","25","encoding","encoding","121","Chipmunk.jpg","1",".","37","0","636"
"25","25","encoding","encoding","122","Cross.jpg","3",".","36","0","642"
"25","25","encoding","encoding","123","PaperStack.jpg","3",".","37","0","524"
"25","25","encoding","encoding","124","BloodpPresureCuff.jpg","3",".","37","0","519"
"25","25","encoding","encoding","125","Screw.jpg","3",".","36","0","759"
"25","25","encoding","encoding","126","Box_Present.jpg","3",".","37","0","612"
"25","25","encoding","encoding","127","Box_Present.jpg","3",".","37","0","743"
"25","25","encoding","encoding","128","Tofu.jpg","3",".","37","0","832"
"25","25","encoding","encoding","129","Case_DVD.jpg","1",".","36","0","695"
"25","25","encoding","encoding","130","Bench_Wooden.jpg","1",".","36","0","568"
"25","25","encoding","encoding","131","Glass_Martini.jpg","3",".","36","0","687"
"25","25","encoding","encoding","133","Tape_Washi.jpg","1",".","37","0","339"
"25","25","encoding","encoding","134","Outhouse.jpg","3",".","37","0","703"
"25","25","encoding","encoding","135","Box_Present.jpg","3",".","37","0","592"
"25","25","encoding","encoding","136","CrepeMaker.jpg","3",".","37","0","599"
"25","25","encoding","encoding","137","Helmet_Knight.jpg","3",".","36","0","701"
"25","25","encoding","encoding","138","ShearsGarden.jpg","3",".","37","0","566"
"25","25","encoding","encoding","139","GranolaBar.jpg","3",".","36","0","651"
"25","25","encoding","encoding","140","Gorilla.jpg","3",".","36","0","610"
"25","25","encoding","encoding","141","Kite_Rainbow.jpg","3",".","36","0","623"
"25","25","encoding","encoding","142","Iron_Antique.jpg","1",".","37","0","578"
"25","25","encoding","encoding","143","FlipFlop_PairBlue.jpg","3",".","37","0","450"
"25","25","encoding","encoding","144","Toolbox_RedOpen.jpg","3",".","37","0","591"
"25","25","encoding","encoding","145","Carbiner_Ascender.jpg","3",".","37","0","629"
"25","25","encoding","encoding","146","SaxophoneSoprano.jpg","3",".","37","0","755"
"25","25","encoding","encoding","147","BicycleOdometer.jpg","3",".","36","0","626"
"25","25","encoding","encoding","148","Seashell_AlternateTellin.jpg","3",".","37","0","632"
"25","25","encoding","encoding","149","Clock_Radio.jpg","3",".","37","0","624"
"25","25","encoding","encoding","150","Frame_Oval.jpg","1",".","37","0","579"
"25","25","encoding","encoding","151","Tweezers.jpg","1",".","36","0","541"
"25","25","encoding","encoding","152","Hottub.jpg","1",".","36","0","667"
"25","25","encoding","encoding","153","Crib_Basket.jpg","3",".","37","0","602"
"25","25","encoding","encoding","154","PanCooking.jpg","3",".","36","0","778"
"25","25","encoding","encoding","155","Dart.jpg","3",".","37","0","542"
"25","25","encoding","encoding","156","Cage_Bird.jpg","1",".","37","0","514"
"25","25","encoding","encoding","157","Dolphine.jpg","1",".","37","0","576"
"25","25","encoding","encoding","158","Lamp_TableWhite.jpg","3",".","36","0","645"
"25","25","encoding","encoding","159","Beaker.jpg","1",".","37","0","658"
"25","25","encoding","encoding","160","Exercise_Machine.jpg","3",".","36","0","641"
"25","25","encoding","encoding","161","PanCooking.jpg","3",".","37","0","660"
"25","25","encoding","encoding","162","SundaeBanana.jpg","3",".","36","0","694"
"25","25","encoding","encoding","163","Hammer.jpg","1",".","37","0","634"
"25","25","encoding","encoding","164","Gun_Glue.jpg","3",".","37","0","586"
"25","25","encoding","encoding","165","Socks_Winter.jpg","3",".","36","0","561"
"25","25","encoding","encoding","166","Hazelnut.jpg","1",".","36","0","636"
"25","25","encoding","encoding","167","Exercise_Machine.jpg","3",".","37","0","576"
"25","25","encoding","encoding","168","Tire_Hollow.jpg","3",".","36","0","643"
"25","25","encoding","encoding","169","Wheel_Steering.jpg","1",".","36","0","587"
"25","25","encoding","encoding","170","ContactLens.jpg","3",".","37","0","640"
"25","25","encoding","encoding","171","Bell_Hand.jpg","3",".","36","0","591"
"25","25","encoding","encoding","172","DrillBit.jpg","3",".","37","0","724"
"25","25","encoding","encoding","173","Toy_TableSet.jpg","3",".","36","0","662"
"25","25","encoding","encoding","174","ShoppingCart.jpg","3",".","37","0","735"
"25","25","encoding","encoding","175","Hoverboard.jpg","1",".","37","0","610"
"25","25","encoding","encoding","176","CoffeeGrinder.jpg","3",".","37","0","572"
"25","25","encoding","encoding","177","CrepeMaker.jpg","3",".","37","0","621"
"25","25","encoding","encoding","178","Pen_Ballpoint.jpg","3",".","37","0","641"
"25","25","encoding","encoding","179","Dart.jpg","3",".","37","0","598"
"25","25","encoding","encoding","180","Cabinet_Office.jpg","1",".","37","0","608"
"25","25","encoding","encoding","181","Dress_Blue.jpg","3",".","37","0","646"
"25","25","encoding","encoding","182","Cannister_Gas.jpg","3",".","37","0","751"
"25","25","encoding","encoding","183","KeyHook_Occupied.jpg","1",".","37","0","638"
"25","25","encoding","encoding","184","TireRims.jpg","3",".","37","0","620"
"25","25","encoding","encoding","185","GranolaBar.jpg","3",".","37","0","724"
"25","25","encoding","encoding","186","Pot_Cooking.jpg","3",".","37","0","638"
"25","25","encoding","encoding","187","Hockey_Equipment.jpg","3",".","37","0","687"
"25","25","encoding","encoding","188","Chinchilla.jpg","1",".","37","0","611"
"25","25","encoding","encoding","189","KitchenTools.jpg","3",".","37","0","666"
"25","25","encoding","encoding","190","Bomb.jpg","1",".","37","0","598"
"25","25","encoding","encoding","191","CoffeeGrinder.jpg","3",".","37","0","617"
"25","25","encoding","encoding","192","Bottle_BubbleBlower.jpg","3",".","37","0","557"
"25","25","encoding","encoding","193","TireRims.jpg","3",".","37","0","601"
"25","25","encoding","encoding","194","Makeup_Foundation.jpg","1",".","37","0","591"
"25","25","encoding","encoding","195","Toy_BearBlackPlastic.jpg","3",".","37","0","559"
"25","25","encoding","encoding","196","Paddle_Beach.jpg","3",".","37","0","585"
"25","25","encoding","encoding","197","SundaeBanana.jpg","3",".","37","0","473"
"25","25","encoding","encoding","199","Boots_KneeHigh.jpg","3",".","37","0","248"
"25","25","encoding","encoding","200","BoogieBoard.jpg","3",".","37","0","529"
"25","25","encoding","encoding","201","House_Rural.jpg","3",".","37","0","460"
"25","25","encoding","encoding","202","Switch_LightWhite.jpg","3",".","36","0","574"
"25","25","encoding","encoding","203","Hat_Baseball.jpg","3",".","37","0","481"
"25","25","encoding","encoding","204","PanCooking.jpg","3",".","37","0","556"
"25","25","encoding","encoding","205","OnionRed.jpg","1",".","37","0","567"
"25","25","encoding","encoding","206","Chopsticks.jpg","1",".","36","0","458"
"25","25","encoding","encoding","207","BoogieBoard.jpg","3",".","37","0","569"
"25","25","encoding","encoding","208","Playground.jpg","1",".","37","0","703"
"25","25","encoding","encoding","209","Baster.jpg","3",".","37","0","489"
"25","25","encoding","encoding","210","Pot_Cooking.jpg","3",".","36","0","511"
"25","25","encoding","encoding","211","PedestalGreek.jpg","3",".","37","0","516"
"25","25","encoding","encoding","212","SkiPoles.jpg","3",".","37","0","374"
"25","25","encoding","encoding","213","Box_FirstAidOpen.jpg","1",".","37","0","596"
"25","25","encoding","encoding","214","Boardgame_Checkers.jpg","1",".","37","0","562"
"25","25","encoding","encoding","215","Sock_Ankle.jpg","3",".","37","0","607"
"25","25","encoding","encoding","216","FlipFlop_PairBlue.jpg","3",".","37","0","561"
"25","25","encoding","encoding","217","Socks_Winter.jpg","3",".","37","0","494"
"25","25","encoding","encoding","218","Crib_Basket.jpg","3",".","37","0","144"
"25","25","encoding","encoding","219","Fencing_HelmetSwords.jpg","1",".","37","0","77"
"25","25","encoding","encoding","220","ToothPaste.jpg","1",".","36","0","508"
"25","25","encoding","encoding","221","PedestalGreek.jpg","3",".","36","0","482"
"25","25","encoding","encoding","222","Toy_Lighthouse.jpg","1",".","36","0","528"
"25","25","encoding","encoding","223","TurkeyDinner.jpg","1",".","36","0","575"
"25","25","encoding","encoding","224","Sink_Bathroom.jpg","3",".","36","0","541"
"25","25","encoding","encoding","225","Jug_Milk.jpg","3",".","37","0","434"
"25","25","encoding","encoding","226","Pig.jpg","1",".","36","0","437"
"25","25","encoding","encoding","227","Gun_Glue.jpg","3",".","37","0","537"
"25","25","encoding","encoding","228","Hat_Baseball.jpg","3",".","36","0","489"
"25","25","encoding","encoding","229","Statue_SouthAmerican.jpg","1",".","36","0","568"
"25","25","encoding","encoding","230","CuttingBoard.jpg","3",".","36","0","582"
"25","25","encoding","encoding","231","Toy_DollOffice.jpg","3",".","36","0","583"
"25","25","encoding","encoding","232","SaxophoneSoprano.jpg","3",".","37","0","433"
"25","25","encoding","encoding","233","Baster.jpg","3",".","36","0","308"
"25","25","encoding","encoding","234","TireRims.jpg","3",".","37","0","672"
"25","25","encoding","encoding","235","Toy_SeeSaw.jpg","3",".","36","0","589"
"25","25","encoding","encoding","236","KitchenTools.jpg","3",".","37","0","558"
"25","25","encoding","encoding","237","Boots_KneeHigh.jpg","3",".","36","0","704"
"25","25","encoding","encoding","238","ContactLens.jpg","3",".","36","0","753"
"25","25","encoding","encoding","239","Truck_Dump.jpg","3",".","37","0","636"
"25","25","encoding","encoding","240","Ball_Disco.jpg","1",".","36","0","572"
"25","25","encoding","encoding","241","Dress_Blue.jpg","3",".","37","0","606"
"25","25","encoding","encoding","242","Toolbox_RedOpen.jpg","3",".","36","0","553"
"25","25","encoding","encoding","243","PaintRoller.jpg","1",".","36","0","547"
"25","25","encoding","encoding","244","Lamp_TableWhite.jpg","3",".","36","0","560"
"25","25","encoding","encoding","245","Gun_Glue.jpg","3",".","36","0","547"
"25","25","encoding","encoding","246","ChessPiece_Knight.jpg","1",".","36","0","685"
"25","25","encoding","encoding","247","RibbonSpool.jpg","1",".","36","0","817"
"25","25","encoding","encoding","248","ShearsGarden.jpg","3",".","36","0","715"
"25","25","encoding","encoding","249","HumanSkeleton.jpg","1",".","36","0","603"
"25","25","encoding","encoding","250","MobilityScooter.jpg","3",".","36","0","569"
"25","25","encoding","encoding","251","Toy_BearBlackPlastic.jpg","3",".","36","0","596"
"25","25","encoding","encoding","252","AnsweringMachine.jpg","1",".","36","0","655"
"25","25","encoding","encoding","253","Currants.jpg","3",".","36","0","586"
"25","25","encoding","encoding","254","Waffle.jpg","1",".","36","0","571"
"25","25","encoding","encoding","255","Lighter_Yellow.jpg","3",".","36","0","573"
"25","25","encoding","encoding","256","PaperStack.jpg","3",".","37","0","665"
"25","25","encoding","encoding","257","Telescope.jpg","3",".","36","0","696"
"25","25","encoding","encoding","258","Carbiner_Ascender.jpg","3",".","36","0","601"
"25","25","encoding","encoding","259","SkiPoles.jpg","3",".","36","0","583"
"25","25","encoding","encoding","260","Cross.jpg","3",".","36","0","626"
"25","25","encoding","encoding","261","Crutches.jpg","3",".","36","0","554"
"25","25","encoding","encoding","262","Flower_Hibiscus.jpg","1",".","36","0","559"
"25","25","encoding","encoding","263","Caterpillar.jpg","1",".","36","0","572"
"25","25","encoding","encoding","265","Statue_VirginMary.jpg","1",".","37","0","563"
"25","25","encoding","encoding","266","GranolaBar.jpg","3",".","36","0","539"
"25","25","encoding","encoding","267","CookieCutter_Tree.jpg","3",".","36","0","424"
"25","25","encoding","encoding","268","CuttingBoard.jpg","3",".","36","0","620"
"25","25","encoding","encoding","269","Shield_Antique.jpg","1",".","36","0","563"
"25","25","encoding","encoding","270","Radio_Vintage.jpg","1",".","36","0","569"
"25","25","encoding","encoding","271","Bindings_Snowboard.jpg","1",".","36","0","641"
"25","25","encoding","encoding","272","BloodpPresureCuff.jpg","3",".","36","0","575"
"25","25","encoding","encoding","273","Lighter_Yellow.jpg","3",".","36","0","645"
"25","25","encoding","encoding","274","Decoration_WallOrnament.jpg","3",".","36","0","631"
"25","25","encoding","encoding","275","PedestalGreek.jpg","3",".","36","0","560"
"25","25","encoding","encoding","276","Shoe_Pink.jpg","3",".","36","0","662"
"25","25","encoding","encoding","277","Strainer_Tea.jpg","1",".","36","0","583"
"25","25","encoding","encoding","278","Glass_Cup.jpg","1",".","36","0","369"
"25","25","encoding","encoding","279","SmokingPipe.jpg","1",".","36","0","516"
"25","25","encoding","encoding","280","Jar_Cotton.jpg","3",".","36","0","578"
"25","25","encoding","encoding","281","Tofu.jpg","3",".","36","0","478"
"25","25","encoding","encoding","282","Cabinet_Display.jpg","1",".","36","0","604"
"25","25","encoding","encoding","283","Hawk.jpg","3",".","36","0","472"
"25","25","encoding","encoding","284","ShoppingCart.jpg","3",".","36","0","607"
"25","25","encoding","encoding","285","Bottle_BubbleBlower.jpg","3",".","36","0","544"
"25","25","encoding","encoding","286","Helmet_Knight.jpg","3",".","36","0","553"
"25","25","encoding","encoding","287","Pickaxe.jpg","3",".","36","0","548"
"25","25","encoding","encoding","288","Pen_Ballpoint.jpg","3",".","36","0","419"
"25","25","encoding","encoding","289","LampPost_OneBulb.jpg","3",".","36","0","449"
"25","25","encoding","encoding","290","Ball_8.jpg","1",".","36","0","534"
"25","25","encoding","encoding","291","Bell_Hand.jpg","3",".","36","0","420"
"25","25","encoding","encoding","292","CartonEggs.jpg","1",".","36","0","466"
"25","25","encoding","encoding","293","Tire_Hollow.jpg","3",".","36","0","474"
"25","25","encoding","encoding","294","Pickaxe.jpg","3",".","36","0","597"
"25","25","encoding","encoding","295","Pipe.jpg","1",".","36","0","405"
"25","25","encoding","encoding","296","Crutches.jpg","3",".","36","0","499"
"25","25","encoding","encoding","297","Pen_Ballpoint.jpg","3",".","36","0","592"
"25","25","encoding","encoding","298","PropellerFan.jpg","3",".","36","0","586"
"25","25","encoding","encoding","299","CuttingBoard.jpg","3",".","36","0","429"
"25","25","encoding","encoding","300","Crutches.jpg","3",".","37","0","487"
"25","25","encoding","encoding","301","Broom_Long.jpg","1",".","37","0","684"
"25","25","encoding","encoding","302","Toy_DollOffice.jpg","3",".","37","0","605"
"25","25","encoding","encoding","303","BloodpPresureCuff.jpg","3",".","37","0","524"
"25","25","encoding","encoding","304","ShoppingCart.jpg","3",".","36","0","559"
"25","25","encoding","encoding","305","Shoe_Pink.jpg","3",".","37","0","557"
"25","25","encoding","encoding","306","Toy_PoliceCar.jpg","3",".","37","0","501"
"25","25","encoding","encoding","307","Bell_Hand.jpg","3",".","36","0","689"
"25","25","encoding","encoding","308","Toy_TableSet.jpg","3",".","36","0","762"
"25","25","encoding","encoding","309","Telescope.jpg","3",".","36","0","802"
"25","25","encoding","encoding","310","Knife_Butter.jpg","1",".","37","0","840"
"25","25","encoding","encoding","311","Sock_Ankle.jpg","3",".","37","0","542"
"25","25","encoding","encoding","312","Screw.jpg","3",".","37","0","214"
"25","25","encoding","encoding","313","Loofa.jpg","1",".","36","0","466"
"25","25","encoding","encoding","314","Currants.jpg","3",".","36","0","182"
"25","25","encoding","encoding","315","DivingBoard.jpg","3",".","37","0","509"
"25","25","encoding","encoding","316","Tribunal_Wooden.jpg","1",".","37","0","529"
"25","25","encoding","encoding","317","Sign_TrafficArrow.jpg","3",".","37","0","549"
"25","25","encoding","encoding","318","ShearsGarden.jpg","3",".","36","0","308"
"25","25","encoding","encoding","319","House_Rural.jpg","3",".","36","0","562"
"25","25","encoding","encoding","320","MobilityScooter.jpg","3",".","37","0","680"
"25","25","encoding","encoding","321","Glass_Martini.jpg","3",".","37","0","579"
"25","25","encoding","encoding","322","Thermostat.jpg","1",".","36","0","694"
"25","25","encoding","encoding","323","Paddle_Beach.jpg","3",".","37","0","646"
"25","25","encoding","encoding","324","SafetyPin.jpg","1",".","37","0","432"
"25","25","encoding","encoding","325","CoffeeGrinder.jpg","",".","36","0","524"
"25","25","retrieval","new_object","1","Blanket.jpg",".",".","37","1","700"
"25","25","retrieval","new_object","2","Wheelbarrow_Green.jpg",".",".","37","1","622"
"25","25","retrieval","new_object","3","Beater_Electric.jpg",".",".","36","0","591"
"25","25","retrieval","new_object","4","FireExtinguisher.jpg",".",".","36","0","536"
"25","25","retrieval","new_object","5","HairDryer.jpg",".",".","36","0","495"
"25","25","retrieval","new_object","6","Mattress.jpg",".",".","36","0","724"
"25","25","retrieval","old_object","7","Cage_Bird.jpg",".","1","36","1","612"
"25","25","retrieval","old_object","8","Glass_Cup.jpg",".","1","36","1","577"
"25","25","retrieval","new_object","9","CameoPortrait.jpg",".",".","36","0","639"
"25","25","retrieval","new_object","10","Skates.jpg",".",".","36","0","569"
"25","25","retrieval","new_object","11","SmokeDetector.jpg",".",".","36","0","576"
"25","25","retrieval","new_object","12","Chest.jpg",".",".","36","0","585"
"25","25","retrieval","new_object","13","Bullet.jpg",".",".","36","0","549"
"25","25","retrieval","new_object","14","Knife_Hunting.jpg",".",".","36","0","581"
"25","25","retrieval","new_object","15","Pipe_Drain.jpg",".",".","36","0","574"
"25","25","retrieval","new_object","16","Bathtub.jpg",".",".","36","0","653"
"25","25","retrieval","new_object","17","DryRack_Dishes.jpg",".",".","36","0","652"
"25","25","retrieval","old_object","18","PropellerFan.jpg",".","3","36","1","841"
"25","25","retrieval","new_object","19","Mango.jpg",".",".","36","0","556"
"25","25","retrieval","old_object","20","CookieCutter_Tree.jpg",".","3","36","1","592"
"25","25","retrieval","old_object","21","Toy_BearBlackPlastic.jpg",".","3","36","1","618"
"25","25","retrieval","new_object","22","BicyclePedal.jpg",".",".","36","0","589"
"25","25","retrieval","new_object","23","Megaphone.jpg",".",".","36","0","557"
"25","25","retrieval","old_object","24","Cabinet_Office.jpg",".","1","37","0","486"
"25","25","retrieval","new_object","25","Fish_Rockbass.jpg",".",".","36","0","538"
"25","25","retrieval","old_object","26","Loofa.jpg",".","1","36","1","600"
"25","25","retrieval","new_object","27","MixingGlass.jpg",".",".","37","1","609"
"25","25","retrieval","old_object","28","Helmet_Knight.jpg",".","3","36","1","460"
"25","25","retrieval","new_object","29","Helmet_Soldier.jpg",".",".","36","0","940"
"25","25","retrieval","old_object","30","BicycleChain.jpg",".","3","37","0","610"
"25","25","retrieval","new_object","31","Jar_JellyBeans.jpg",".",".","37","1","562"
"25","25","retrieval","new_object","32","Mask_Happy.jpg",".",".","37","1","372"
"25","25","retrieval","new_object","33","StringBean.jpg",".",".","37","1","169"
"25","25","retrieval","old_object","34","Lighter_Yellow.jpg",".","3","37","0","146"
"25","25","retrieval","new_object","35","Hippopotamus.jpg",".",".","37","1","387"
"25","25","retrieval","old_object","36","Chinchilla.jpg",".","1","37","0","767"
"25","25","retrieval","new_object","37","BusStop.jpg",".",".","36","0","607"
"25","25","retrieval","old_object","38","Broom_Long.jpg",".","1","36","1","391"
"25","25","retrieval","new_object","39","Mat_Door.jpg",".",".","36","0","438"
"25","25","retrieval","old_object","40","Pot_Cooking.jpg",".","3","36","1","88"
"25","25","retrieval","old_object","41","Boardgame_Checkers.jpg",".","1","37","0","560"
"25","25","retrieval","new_object","42","ButterDish.jpg",".",".","37","1","478"
"25","25","retrieval","new_object","43","Desk_School.jpg",".",".","37","1","384"
"25","25","retrieval","old_object","44","Bell_Hand.jpg",".","3","37","0","331"
"25","25","retrieval","new_object","45","Speaker_OnStand.jpg",".",".","37","1","538"
"25","25","retrieval","old_object","46","Syrup_Maple.jpg",".","1","36","1","585"
"25","25","retrieval","old_object","47","Truck_Dump.jpg",".","3","36","1","837"
"25","25","retrieval","new_object","48","Toy_GasPump.jpg",".",".","37","1","836"
"25","25","retrieval","old_object","49","Fridge.jpg",".","1","37","0","850"
"25","25","retrieval","new_object","50","Lilypad.jpg",".",".","36","0","473"
"25","25","retrieval","new_object","51","Pitcher.jpg",".",".","37","1","617"
"25","25","retrieval","new_object","52","Cake_Wedding.jpg",".",".","37","1","627"
"25","25","retrieval","new_object","53","Fortress.jpg",".",".","37","1","619"
"25","25","retrieval","old_object","54","Exercise_Machine.jpg",".","3","36","1","352"
"25","25","retrieval","old_object","55","ShoppingCart.jpg",".","3","37","0","664"
"25","25","retrieval","old_object","56","AnsweringMachine.jpg",".","1","37","0","662"
"25","25","retrieval","old_object","57","Bandage_Wrap.jpg",".","1","37","0","631"
"25","25","retrieval","old_object","58","Pickaxe.jpg",".","3","37","0","875"
"25","25","retrieval","old_object","59","Frame_Oval.jpg",".","1","37","0","868"
"25","25","retrieval","new_object","60","fries.jpg",".",".","37","1","512"
"25","25","retrieval","new_object","61","Candle_Blue.jpg",".",".","37","1","346"
"25","25","retrieval","old_object","62","Outhouse.jpg",".","3","37","0","506"
"25","25","retrieval","old_object","63","Icepick.jpg",".","1","36","1","620"
"25","25","retrieval","new_object","64","Autocreeper.jpg",".",".","37","1","227"
"25","25","retrieval","new_object","65","Table_Poker.jpg",".",".","37","1","652"
"25","25","retrieval","old_object","67","Shoe_Pink.jpg",".","3","37","0","665"
"25","25","retrieval","new_object","68","Light_Siren.jpg",".",".","37","1","582"
"25","25","retrieval","new_object","69","BottleOpener.jpg",".",".","36","0","765"
"25","25","retrieval","new_object","70","Toy_BlocksPlastic Colourful.jpg",".",".","36","0","579"
"25","25","retrieval","new_object","71","AmpMeter.jpg",".",".","36","0","566"
"25","25","retrieval","old_object","72","Box_FirstAidOpen.jpg",".","1","37","0","857"
"25","25","retrieval","old_object","73","HumanSkeleton.jpg",".","1","37","0","610"
"25","25","retrieval","new_object","74","Fuse.jpg",".",".","37","1","489"
"25","25","retrieval","new_object","75","Toy_Moose.jpg",".",".","37","1","558"
"25","25","retrieval","old_object","76","Switch_LightWhite.jpg",".","3","36","1","257"
"25","25","retrieval","old_object","77","Dart.jpg",".","3","37","0","148"
"25","25","retrieval","new_object","78","WireStripper.jpg",".",".","37","1","480"
"25","25","retrieval","new_object","79","Sign_Parking.jpg",".",".","37","1","571"
"25","25","retrieval","new_object","80","Guitar_Acoustic.jpg",".",".","36","0","600"
"25","25","retrieval","old_object","81","Radio_Vintage.jpg",".","1","36","1","688"
"25","25","retrieval","old_object","82","PaperStack.jpg",".","3","37","0","782"
"25","25","retrieval","old_object","83","Wheel_Steering.jpg",".","1","36","1","605"
"25","25","retrieval","old_object","84","ReindeerHeadband.jpg",".","1","36","1","556"
"25","25","retrieval","new_object","85","Leaf_Clover.jpg",".",".","37","1","428"
"25","25","retrieval","new_object","86","Peppermill.jpg",".",".","36","0","619"
"25","25","retrieval","old_object","87","Flower_Hibiscus.jpg",".","1","36","1","534"
"25","25","retrieval","old_object","88","Toy_TableSet.jpg",".","3","37","0","809"
"25","25","retrieval","old_object","89","Screw.jpg",".","3","37","0","524"
"25","25","retrieval","new_object","90","Sushi.jpg",".",".","37","1","649"
"25","25","retrieval","new_object","91","Phone_Wireless.jpg",".",".","37","1","628"
"25","25","retrieval","old_object","92","Flower_Orchid.jpg",".","1","36","1","781"
"25","25","retrieval","old_object","93","PaintRoller.jpg",".","1","0","0","2000"
"25","25","retrieval","new_object","94","NailPolish.jpg",".",".","36","0","652"
"25","25","retrieval","old_object","95","Hazelnut.jpg",".","1","36","1","572"
"25","25","retrieval","new_object","96","Box_Jewellery.jpg",".",".","36","0","334"
"25","25","retrieval","new_object","97","Tripod.jpg",".",".","36","0","216"
"25","25","retrieval","old_object","98","BicycleOdometer.jpg",".","3","36","1","48"
"25","25","retrieval","old_object","99","Hockey_Equipment.jpg",".","3","36","1","118"
"25","25","retrieval","old_object","100","Ball_8.jpg",".","1","36","1","271"
"25","25","retrieval","old_object","101","BoogieBoard.jpg",".","3","36","1","516"
"25","25","retrieval","new_object","102","MonkeyPuppet.jpg",".",".","36","0","247"
"25","25","retrieval","new_object","103","TinChristmas.jpg",".",".","37","1","147"
"25","25","retrieval","old_object","104","Toy_PoliceCar.jpg",".","3","37","0","494"
"25","25","retrieval","old_object","105","Thermos_MetalSleek.jpg",".","1","36","1","100"
"25","25","retrieval","new_object","106","Car_Sedan.jpg",".",".","36","0","108"
"25","25","retrieval","old_object","107","Box_Present.jpg",".","3","37","0","258"
"25","25","retrieval","old_object","108","SaxophoneSoprano.jpg",".","3","37","0","12"
"25","25","retrieval","new_object","109","TartStrawberry.jpg",".",".","36","0","24"
"25","25","retrieval","new_object","110","TeethMould.jpg",".",".","36","0","194"
"25","25","retrieval","new_object","111","Knee.jpg",".",".","37","1","259"
"25","25","retrieval","new_object","112","BadgeSpecialAgent.jpg",".",".","37","1","312"
"25","25","retrieval","new_object","113","GasBurner.jpg",".",".","37","1","335"
"25","25","retrieval","old_object","114","SundaeBanana.jpg",".","3","37","0","187"
"25","25","retrieval","old_object","115","Dolphine.jpg",".","1","37","0","130"
"25","25","retrieval","new_object","116","SculptureMetalFish.jpg",".",".","37","1","202"
"25","25","retrieval","old_object","117","Statue_SouthAmerican.jpg",".","1","36","1","363"
"25","25","retrieval","new_object","118","Candy_Heart.jpg",".",".","37","1","243"
"25","25","retrieval","old_object","119","Bottle_Specimen.jpg",".","1","37","0","19"
"25","25","retrieval","old_object","120","Brace_Back.jpg",".","1","37","0","212"
"25","25","retrieval","new_object","121","Trophy.jpg",".",".","37","1","14"
"25","25","retrieval","old_object","122","Tape_Washi.jpg",".","1","36","1","85"
"25","25","retrieval","new_object","123","Oyster.jpg",".",".","36","0","260"
"25","25","retrieval","old_object","124","Decoration_WallOrnament.jpg",".","3","36","1","9"
"25","25","retrieval","old_object","125","Pig.jpg",".","1","36","1","626"
"25","25","retrieval","old_object","126","Crib_Basket.jpg",".","3","36","1","536"
"25","25","retrieval","old_object","127","Gun_Glue.jpg",".","3","36","1","274"
"25","25","retrieval","new_object","128","Shampoo.jpg",".",".","36","0","353"
"25","25","retrieval","old_object","129","RibbonSpool.jpg",".","1","36","1","538"
"25","25","retrieval","old_object","130","ContactLens.jpg",".","3","36","1","627"
"25","25","retrieval","old_object","131","Bench_Wooden.jpg",".","1","37","0","68"
"25","25","retrieval","old_object","133","Thermostat.jpg",".","1","36","1","553"
"25","25","retrieval","new_object","134","Clip_Paper.jpg",".",".","37","1","72"
"25","25","retrieval","new_object","135","Chest_Toys.jpg",".",".","36","0","220"
"25","25","retrieval","new_object","136","Box_Floral.jpg",".",".","36","0","955"
"25","25","retrieval","old_object","137","Drum_Brazilan.jpg",".","1","36","1","853"
"25","25","retrieval","old_object","138","Kite_Rainbow.jpg",".","3","36","1","691"
"25","25","retrieval","old_object","139","DivingBoard.jpg",".","3","36","1","658"
"25","25","retrieval","new_object","140","Dress_Party.jpg",".",".","36","0","344"
"25","25","retrieval","old_object","141","Telescope.jpg",".","3","36","1","949"
"25","25","retrieval","old_object","142","CoffeeGrinder.jpg",".","3","37","0","646"
"25","25","retrieval","old_object","143","Toy_DollOffice.jpg",".","3","36","1","614"
"25","25","retrieval","old_object","144","Hat_Baseball.jpg",".","3","37","0","722"
"25","25","retrieval","old_object","145","Boots_KneeHigh.jpg",".","3","37","0","558"
"25","25","retrieval","old_object","146","PanCooking.jpg",".","3","37","0","808"
"25","25","retrieval","old_object","147","KitchenTools.jpg",".","3","37","0","602"
"25","25","retrieval","old_object","148","Socks_Winter.jpg",".","3","37","0","883"
"25","25","retrieval","old_object","149","Can_OilSpout.jpg",".","1","37","0","674"
"25","25","retrieval","old_object","150","Jar_Cotton.jpg",".","3","37","0","709"
"25","25","retrieval","old_object","151","Chopsticks.jpg",".","1","37","0","478"
"25","25","retrieval","old_object","152","Toy_Lighthouse.jpg",".","1","37","0","258"
"25","25","retrieval","old_object","153","Tweezers.jpg",".","1","37","0","513"
"25","25","retrieval","old_object","154","Tire_Hollow.jpg",".","3","37","0","384"
"25","25","retrieval","old_object","155","Seashell_AlternateTellin.jpg",".","3","37","0","283"
"25","25","retrieval","new_object","156","Trumpet.jpg",".",".","37","1","515"
"25","25","retrieval","old_object","157","Knife_Butter.jpg",".","1","37","0","838"
"25","25","retrieval","new_object","158","BicycleHandleGrip.jpg",".",".","37","1","1413"
"25","25","retrieval","old_object","159","Statue_VirginMary.jpg",".","1","37","0","105"
"25","25","retrieval","old_object","160","Currants.jpg",".","3","37","0","198"
"25","25","retrieval","new_object","161","Generator.jpg",".",".","37","1","905"
"25","25","retrieval","new_object","162","Drink_Green.jpg",".",".","37","1","761"
"25","25","retrieval","old_object","163","ShearsGarden.jpg",".","3","37","0","761"
"25","25","retrieval","old_object","164","Caterpillar.jpg",".","1","37","0","284"
"25","25","retrieval","old_object","165","Tribunal_Wooden.jpg",".","1","36","1","387"
"25","25","retrieval","new_object","166","Bird_Cardinal.jpg",".",".","36","0","561"
"25","25","retrieval","new_object","167","Fruit_Cactus.jpg",".",".","37","1","146"
"25","25","retrieval","old_object","168","Pajamas.jpg",".","1","37","0","604"
"25","25","retrieval","old_object","169","Hoverboard.jpg",".","1","37","0","659"
"25","25","retrieval","new_object","170","GPS.jpg",".",".","37","1","561"
"25","25","retrieval","old_object","171","PedestalGreek.jpg",".","3","37","0","223"
"25","25","retrieval","old_object","172","Toolbox_Old.jpg",".","3","37","0","344"
"25","25","retrieval","new_object","173","Lock_Combination.jpg",".",".","37","1","15"
"25","25","retrieval","old_object","174","Glass_Martini.jpg",".","3","37","0","330"
"25","25","retrieval","new_object","175","Colander.jpg",".",".","37","1","28"
"25","25","retrieval","new_object","176","Lollipop_Grape.jpg",".",".","37","1","89"
"25","25","retrieval","old_object","177","Toy_SeeSaw.jpg",".","3","36","1","268"
"25","25","retrieval","new_object","178","Mitt_Oven.jpg",".",".","37","1","59"
"25","25","retrieval","new_object","179","Glove_Rubber.jpg",".",".","37","1","55"
"25","25","retrieval","new_object","180","Shoes_DutchClogs.jpg",".",".","36","0","917"
"25","25","retrieval","new_object","181","Stove_Camping.jpg",".",".","36","0","111"
"25","25","retrieval","new_object","182","PaintRollTray.jpg",".",".","37","1","601"
"25","25","retrieval","new_object","183","Flute_Wooden.jpg",".",".","36","0","570"
"25","25","retrieval","new_object","184","DogTreat.jpg",".",".","37","1","233"
"25","25","retrieval","old_object","185","Lamp_TableWhite.jpg",".","3","36","1","744"
"25","25","retrieval","old_object","186","Tofu.jpg",".","3","36","1","690"
"25","25","retrieval","old_object","187","Hawk.jpg",".","3","36","1","1348"
"25","25","retrieval","new_object","188","DentistOverheadLight.jpg",".",".","36","0","6"
"25","25","retrieval","new_object","189","Cup_Styrofoam.jpg",".",".","36","0","77"
"25","25","retrieval","old_object","190","Sock_Ankle.jpg",".","3","36","1","342"
"25","25","retrieval","new_object","191","Toy_Witch.jpg",".",".","36","0","615"
"25","25","retrieval","new_object","192","Hammer_Reflex.jpg",".",".","36","0","512"
"25","25","retrieval","old_object","193","Jug_Milk.jpg",".","3","36","1","843"
"25","25","retrieval","old_object","194","Sign_TrafficArrow.jpg",".","3","37","0","1439"
"25","25","retrieval","old_object","195","BicycleGear.jpg",".","1","37","0","40"
"25","25","retrieval","new_object","196","Toy_Shapesorter.jpg",".",".","37","1","784"
"25","25","retrieval","old_object","197","Case_DVD.jpg",".","1","36","1","662"
"25","25","retrieval","new_object","199","Bottle_Blue.jpg",".",".","36","0","411"
"25","25","retrieval","old_object","200","OnionRed.jpg",".","1","36","1","595"
"25","25","retrieval","old_object","201","MobilityScooter.jpg",".","3","36","1","545"
"25","25","retrieval","old_object","202","House_Rural.jpg",".","3","36","1","593"
"25","25","retrieval","new_object","203","Tortilla.jpg",".",".","36","0","250"
"25","25","retrieval","new_object","204","Keg.jpg",".",".","37","1","669"
"25","25","retrieval","new_object","205","IceCrusher.jpg",".",".","37","1","449"
"25","25","retrieval","new_object","206","Hook_Fish.jpg",".",".","37","1","825"
"25","25","retrieval","old_object","207","Beaker.jpg",".","1","37","0","631"
"25","25","retrieval","new_object","208","Hourglass.jpg",".",".","37","1","826"
"25","25","retrieval","new_object","209","BicycleBrake.jpg",".",".","37","1","243"
"25","25","retrieval","old_object","210","Strainer_Tea.jpg",".","1","36","1","1977"
"25","25","retrieval","new_object","211","Toy_StackingRing.jpg",".",".","36","0","6"
"25","25","retrieval","new_object","212","MonaLisa.jpg",".",".","36","0","935"
"25","25","retrieval","old_object","213","Sink_Bathroom.jpg",".","3","36","1","623"
"25","25","retrieval","old_object","214","Paddle_Beach.jpg",".","3","36","1","819"
"25","25","retrieval","old_object","215","Pen_Ballpoint.jpg",".","3","36","1","596"
"25","25","retrieval","old_object","216","CrepeMaker.jpg",".","3","36","1","587"
"25","25","retrieval","new_object","217","PuppetTheatre_WhiteGold.jpg",".",".","36","0","634"
"25","25","retrieval","new_object","218","Goose_Canadian.jpg",".",".","36","0","541"
"25","25","retrieval","old_object","219","Microphone.jpg",".","1","36","1","465"
"25","25","retrieval","new_object","220","Paratrooper.jpg",".",".","36","0","373"
"25","25","retrieval","new_object","221","Exercise_Stretch.jpg",".",".","36","0","614"
"25","25","retrieval","old_object","222","Cannister_Gas.jpg",".","3","36","1","87"
"25","25","retrieval","old_object","223","TireRims.jpg",".","3","36","1","335"
"25","25","retrieval","new_object","224","Helmet_Construction.jpg",".",".","36","0","727"
"25","25","retrieval","old_object","225","CartonEggs.jpg",".","1","36","1","2"
"25","25","retrieval","new_object","226","Cherry.jpg",".",".","36","0","290"
"25","25","retrieval","new_object","227","Cantaloupe.jpg",".",".","37","1","299"
"25","25","retrieval","old_object","228","Pasta_Spaghetti.jpg",".","1","37","0","56"
"25","25","retrieval","new_object","229","LeatherPuncherTool.jpg",".",".","37","1","124"
"25","25","retrieval","old_object","230","ElasticBand.jpg",".","1","37","0","675"
"25","25","retrieval","old_object","231","CuttingBoard.jpg",".","3","36","1","54"
"25","25","retrieval","old_object","232","Clock_Radio.jpg",".","3","36","1","593"
"25","25","retrieval","old_object","233","Baster.jpg",".","3","37","0","161"
"25","25","retrieval","old_object","234","GranolaBar.jpg",".","3","36","1","336"
"25","25","retrieval","old_object","235","Hottub.jpg",".","1","36","1","711"
"25","25","retrieval","new_object","236","CandyDispenser.jpg",".",".","36","0","651"
"25","25","retrieval","old_object","237","Crutches.jpg",".","3","36","1","687"
"25","25","retrieval","new_object","238","Ashtray_Empty.jpg",".",".","36","0","627"
"25","25","retrieval","new_object","239","PaintBrushAndPallette.jpg",".",".","36","0","94"
"25","25","retrieval","new_object","240","NintendoWii.jpg",".",".","37","1","748"
"25","25","retrieval","new_object","241","Thermostat_Digital.jpg",".",".","36","0","594"
"25","25","retrieval","new_object","242","IceCream_Chocolate.jpg",".",".","37","1","61"
"25","25","retrieval","old_object","243","SmokingPipe.jpg",".","1","36","1","135"
"25","25","retrieval","old_object","244","Bottle_BubbleBlower.jpg",".","3","36","1","492"
"25","25","retrieval","new_object","245","Pants_Jeans.jpg",".",".","36","0","842"
"25","25","retrieval","old_object","246","Makeup_Foundation.jpg",".","1","36","1","130"
"25","25","retrieval","old_object","247","SkiPoles.jpg",".","3","36","1","710"
"25","25","retrieval","new_object","248","Almond.jpg",".",".","36","0","963"
"25","25","retrieval","old_object","249","SewingMachine.jpg",".","1","36","1","778"
"25","25","retrieval","new_object","250","WindowBlinds.jpg",".",".","36","0","47"
