"group","subject","blockcode","trialcode","trialnum","stimulus","encoding_condition","old_object_condition","response","correct","latency"
"14","14","encoding","encoding","1","D43.jpg","3",".","0","0","1000"
"14","14","encoding","encoding","2","D60.jpg","3",".","0","0","1000"
"14","14","encoding","encoding","3","D22.jpg","3",".","37","0","923"
"14","14","encoding","encoding","4","D66.jpg","3",".","37","0","729"
"14","14","encoding","encoding","5","D16.jpg","3",".","37","0","965"
"14","14","encoding","encoding","6","C74.jpg","1",".","37","0","651"
"14","14","encoding","encoding","7","D73.jpg","3",".","37","0","729"
"14","14","encoding","encoding","8","D16.jpg","3",".","37","0","903"
"14","14","encoding","encoding","9","D7.jpg","3",".","37","0","869"
"14","14","encoding","encoding","10","C69.jpg","1",".","37","0","648"
"14","14","encoding","encoding","11","D7.jpg","3",".","37","0","561"
"14","14","encoding","encoding","12","D45.jpg","3",".","36","0","703"
"14","14","encoding","encoding","13","D33.jpg","3",".","37","0","817"
"14","14","encoding","encoding","14","D15.jpg","3",".","37","0","561"
"14","14","encoding","encoding","15","C47.jpg","1",".","37","0","610"
"14","14","encoding","encoding","16","C60.jpg","1",".","37","0","924"
"14","14","encoding","encoding","17","D8.jpg","3",".","37","0","550"
"14","14","encoding","encoding","18","D35.jpg","3",".","37","0","692"
"14","14","encoding","encoding","19","C33.jpg","1",".","37","0","890"
"14","14","encoding","encoding","20","C73.jpg","1",".","37","0","730"
"14","14","encoding","encoding","21","D68.jpg","3",".","37","0","705"
"14","14","encoding","encoding","22","D17.jpg","3",".","36","0","763"
"14","14","encoding","encoding","23","C12.jpg","1",".","37","0","585"
"14","14","encoding","encoding","24","D21.jpg","3",".","37","0","574"
"14","14","encoding","encoding","25","D48.jpg","3",".","37","0","524"
"14","14","encoding","encoding","26","C11.jpg","1",".","36","0","748"
"14","14","encoding","encoding","27","C14.jpg","1",".","37","0","721"
"14","14","encoding","encoding","28","D58.jpg","3",".","36","0","696"
"14","14","encoding","encoding","29","D63.jpg","3",".","37","0","659"
"14","14","encoding","encoding","30","D29.jpg","3",".","36","0","880"
"14","14","encoding","encoding","31","D27.jpg","3",".","37","0","513"
"14","14","encoding","encoding","32","D50.jpg","3",".","37","0","563"
"14","14","encoding","encoding","33","C27.jpg","1",".","37","0","510"
"14","14","encoding","encoding","34","D71.jpg","3",".","37","0","540"
"14","14","encoding","encoding","35","C36.jpg","1",".","37","0","615"
"14","14","encoding","encoding","36","C16.jpg","1",".","37","0","831"
"14","14","encoding","encoding","37","D23.jpg","3",".","37","0","547"
"14","14","encoding","encoding","38","D6.jpg","3",".","37","0","470"
"14","14","encoding","encoding","39","C63.jpg","1",".","37","0","632"
"14","14","encoding","encoding","40","C53.jpg","1",".","37","0","654"
"14","14","encoding","encoding","41","D6.jpg","3",".","37","0","515"
"14","14","encoding","encoding","42","C26.jpg","1",".","37","0","406"
"14","14","encoding","encoding","43","D6.jpg","3",".","37","0","417"
"14","14","encoding","encoding","44","D19.jpg","3",".","37","0","612"
"14","14","encoding","encoding","45","D58.jpg","3",".","36","0","547"
"14","14","encoding","encoding","46","D61.jpg","3",".","37","0","540"
"14","14","encoding","encoding","47","C58.jpg","1",".","36","0","743"
"14","14","encoding","encoding","48","C35.jpg","1",".","37","0","670"
"14","14","encoding","encoding","49","D40.jpg","3",".","37","0","535"
"14","14","encoding","encoding","50","D13.jpg","3",".","37","0","472"
"14","14","encoding","encoding","51","D76.jpg","3",".","37","0","425"
"14","14","encoding","encoding","52","D39.jpg","3",".","37","0","502"
"14","14","encoding","encoding","53","D49.jpg","3",".","36","0","802"
"14","14","encoding","encoding","54","D62.jpg","3",".","36","0","693"
"14","14","encoding","encoding","55","D12.jpg","3",".","37","0","495"
"14","14","encoding","encoding","56","D57.jpg","3",".","37","0","520"
"14","14","encoding","encoding","57","D41.jpg","3",".","37","0","743"
"14","14","encoding","encoding","58","C67.jpg","1",".","36","0","669"
"14","14","encoding","encoding","59","D51.jpg","3",".","37","0","737"
"14","14","encoding","encoding","60","D31.jpg","3",".","37","0","491"
"14","14","encoding","encoding","61","C62.jpg","1",".","37","0","557"
"14","14","encoding","encoding","62","D70.jpg","3",".","37","0","590"
"14","14","encoding","encoding","63","D14.jpg","3",".","37","0","464"
"14","14","encoding","encoding","64","C38.jpg","1",".","37","0","615"
"14","14","encoding","encoding","65","C5.jpg","1",".","36","0","656"
"14","14","encoding","encoding","67","C61.jpg","1",".","37","0","636"
"14","14","encoding","encoding","68","D28.jpg","3",".","37","0","664"
"14","14","encoding","encoding","69","D32.jpg","3",".","37","0","754"
"14","14","encoding","encoding","70","D38.jpg","3",".","37","0","696"
"14","14","encoding","encoding","71","D20.jpg","3",".","37","0","475"
"14","14","encoding","encoding","72","D37.jpg","3",".","37","0","473"
"14","14","encoding","encoding","73","D60.jpg","3",".","37","0","439"
"14","14","encoding","encoding","74","D72.jpg","3",".","37","0","814"
"14","14","encoding","encoding","75","D3.jpg","3",".","37","0","576"
"14","14","encoding","encoding","76","D38.jpg","3",".","37","0","548"
"14","14","encoding","encoding","77","C23.jpg","1",".","37","0","498"
"14","14","encoding","encoding","78","C76.jpg","1",".","37","0","670"
"14","14","encoding","encoding","79","D64.jpg","3",".","37","0","551"
"14","14","encoding","encoding","80","D37.jpg","3",".","37","0","458"
"14","14","encoding","encoding","81","D40.jpg","3",".","37","0","431"
"14","14","encoding","encoding","82","D9.jpg","3",".","37","0","567"
"14","14","encoding","encoding","83","D18.jpg","3",".","36","0","919"
"14","14","encoding","encoding","84","D55.jpg","3",".","37","0","595"
"14","14","encoding","encoding","85","D14.jpg","3",".","37","0","422"
"14","14","encoding","encoding","86","C52.jpg","1",".","37","0","551"
"14","14","encoding","encoding","87","D4.jpg","3",".","36","0","814"
"14","14","encoding","encoding","88","D65.jpg","3",".","37","0","662"
"14","14","encoding","encoding","89","D24.jpg","3",".","37","0","438"
"14","14","encoding","encoding","90","D22.jpg","3",".","37","0","403"
"14","14","encoding","encoding","91","D69.jpg","3",".","37","0","576"
"14","14","encoding","encoding","92","D60.jpg","3",".","37","0","408"
"14","14","encoding","encoding","93","D32.jpg","3",".","37","0","468"
"14","14","encoding","encoding","94","C31.jpg","1",".","37","0","467"
"14","14","encoding","encoding","95","D56.jpg","3",".","37","0","443"
"14","14","encoding","encoding","96","D35.jpg","3",".","37","0","497"
"14","14","encoding","encoding","97","D46.jpg","3",".","37","0","447"
"14","14","encoding","encoding","98","C17.jpg","1",".","37","0","471"
"14","14","encoding","encoding","99","D36.jpg","3",".","37","0","622"
"14","14","encoding","encoding","100","D2.jpg","3",".","37","0","492"
"14","14","encoding","encoding","101","D15.jpg","3",".","37","0","471"
"14","14","encoding","encoding","102","C21.jpg","1",".","37","0","684"
"14","14","encoding","encoding","103","D5.jpg","3",".","37","0","667"
"14","14","encoding","encoding","104","D39.jpg","3",".","37","0","509"
"14","14","encoding","encoding","105","C45.jpg","1",".","37","0","513"
"14","14","encoding","encoding","106","D42.jpg","3",".","37","0","546"
"14","14","encoding","encoding","107","D63.jpg","3",".","37","0","462"
"14","14","encoding","encoding","108","D30.jpg","3",".","0","0","1000"
"14","14","encoding","encoding","109","D59.jpg","3",".","37","0","915"
"14","14","encoding","encoding","110","D28.jpg","3",".","37","0","478"
"14","14","encoding","encoding","111","C42.jpg","1",".","37","0","606"
"14","14","encoding","encoding","112","D43.jpg","3",".","37","0","415"
"14","14","encoding","encoding","113","C44.jpg","1",".","37","0","407"
"14","14","encoding","encoding","114","D53.jpg","3",".","37","0","450"
"14","14","encoding","encoding","115","D10.jpg","3",".","36","0","527"
"14","14","encoding","encoding","116","C79.jpg","1",".","36","0","650"
"14","14","encoding","encoding","117","C7.jpg","1",".","36","0","626"
"14","14","encoding","encoding","118","D39.jpg","3",".","37","0","545"
"14","14","encoding","encoding","119","D50.jpg","3",".","37","0","651"
"14","14","encoding","encoding","120","D5.jpg","3",".","37","0","490"
"14","14","encoding","encoding","121","D44.jpg","3",".","37","0","536"
"14","14","encoding","encoding","122","C25.jpg","1",".","37","0","582"
"14","14","encoding","encoding","123","D56.jpg","3",".","37","0","471"
"14","14","encoding","encoding","124","D18.jpg","3",".","36","0","863"
"14","14","encoding","encoding","125","D74.jpg","3",".","37","0","553"
"14","14","encoding","encoding","126","D10.jpg","3",".","36","0","643"
"14","14","encoding","encoding","127","D67.jpg","3",".","36","0","698"
"14","14","encoding","encoding","128","D44.jpg","3",".","37","0","857"
"14","14","encoding","encoding","129","D78.jpg","3",".","37","0","765"
"14","14","encoding","encoding","130","C71.jpg","1",".","37","0","519"
"14","14","encoding","encoding","131","D34.jpg","3",".","37","0","521"
"14","14","encoding","encoding","133","D3.jpg","3",".","37","0","497"
"14","14","encoding","encoding","134","D42.jpg","3",".","37","0","476"
"14","14","encoding","encoding","135","D61.jpg","3",".","37","0","539"
"14","14","encoding","encoding","136","D26.jpg","3",".","36","0","564"
"14","14","encoding","encoding","137","D57.jpg","3",".","36","0","743"
"14","14","encoding","encoding","138","C19.jpg","1",".","36","0","656"
"14","14","encoding","encoding","139","C56.jpg","1",".","37","0","649"
"14","14","encoding","encoding","140","D77.jpg","3",".","37","0","453"
"14","14","encoding","encoding","141","D5.jpg","3",".","37","0","507"
"14","14","encoding","encoding","142","C37.jpg","1",".","37","0","528"
"14","14","encoding","encoding","143","C70.jpg","1",".","37","0","419"
"14","14","encoding","encoding","144","D67.jpg","3",".","36","0","641"
"14","14","encoding","encoding","145","C30.jpg","1",".","37","0","459"
"14","14","encoding","encoding","146","C75.jpg","1",".","37","0","501"
"14","14","encoding","encoding","147","D50.jpg","3",".","37","0","432"
"14","14","encoding","encoding","148","D10.jpg","3",".","36","0","724"
"14","14","encoding","encoding","149","D46.jpg","3",".","37","0","493"
"14","14","encoding","encoding","150","C46.jpg","1",".","37","0","452"
"14","14","encoding","encoding","151","D26.jpg","3",".","36","0","572"
"14","14","encoding","encoding","152","D11.jpg","3",".","37","0","973"
"14","14","encoding","encoding","153","D3.jpg","3",".","37","0","552"
"14","14","encoding","encoding","154","D66.jpg","3",".","37","0","535"
"14","14","encoding","encoding","155","D1.jpg","3",".","37","0","728"
"14","14","encoding","encoding","156","D31.jpg","3",".","37","0","419"
"14","14","encoding","encoding","157","D52.jpg","3",".","37","0","436"
"14","14","encoding","encoding","158","D67.jpg","3",".","36","0","527"
"14","14","encoding","encoding","159","D54.jpg","3",".","37","0","736"
"14","14","encoding","encoding","160","C0.jpg","1",".","36","0","467"
"14","14","encoding","encoding","161","D23.jpg","3",".","37","0","482"
"14","14","encoding","encoding","162","D42.jpg","3",".","37","0","450"
"14","14","encoding","encoding","163","C59.jpg","1",".","37","0","424"
"14","14","encoding","encoding","164","D0.jpg","3",".","37","0","507"
"14","14","encoding","encoding","165","D62.jpg","3",".","36","0","671"
"14","14","encoding","encoding","166","C66.jpg","1",".","37","0","602"
"14","14","encoding","encoding","167","D8.jpg","3",".","37","0","572"
"14","14","encoding","encoding","168","D11.jpg","3",".","37","0","406"
"14","14","encoding","encoding","169","D47.jpg","3",".","37","0","465"
"14","14","encoding","encoding","170","D78.jpg","3",".","37","0","421"
"14","14","encoding","encoding","171","D51.jpg","3",".","37","0","728"
"14","14","encoding","encoding","172","C3.jpg","1",".","37","0","425"
"14","14","encoding","encoding","173","D73.jpg","3",".","37","0","417"
"14","14","encoding","encoding","174","D36.jpg","3",".","37","0","434"
"14","14","encoding","encoding","175","D52.jpg","3",".","37","0","373"
"14","14","encoding","encoding","176","C77.jpg","1",".","37","0","373"
"14","14","encoding","encoding","177","D45.jpg","3",".","36","0","670"
"14","14","encoding","encoding","178","D29.jpg","3",".","36","0","640"
"14","14","encoding","encoding","179","D47.jpg","3",".","37","0","498"
"14","14","encoding","encoding","180","D37.jpg","3",".","37","0","447"
"14","14","encoding","encoding","181","D15.jpg","3",".","37","0","424"
"14","14","encoding","encoding","182","D12.jpg","3",".","37","0","505"
"14","14","encoding","encoding","183","C24.jpg","1",".","37","0","443"
"14","14","encoding","encoding","184","D9.jpg","3",".","37","0","556"
"14","14","encoding","encoding","185","C39.jpg","1",".","37","0","654"
"14","14","encoding","encoding","186","D29.jpg","3",".","36","0","502"
"14","14","encoding","encoding","187","C4.jpg","1",".","37","0","442"
"14","14","encoding","encoding","188","C49.jpg","1",".","37","0","466"
"14","14","encoding","encoding","189","D53.jpg","3",".","37","0","426"
"14","14","encoding","encoding","190","D64.jpg","3",".","37","0","574"
"14","14","encoding","encoding","191","D73.jpg","3",".","37","0","399"
"14","14","encoding","encoding","192","D45.jpg","3",".","36","0","542"
"14","14","encoding","encoding","193","D75.jpg","3",".","36","0","593"
"14","14","encoding","encoding","194","D17.jpg","3",".","37","0","634"
"14","14","encoding","encoding","195","D76.jpg","3",".","37","0","510"
"14","14","encoding","encoding","196","D64.jpg","3",".","37","0","460"
"14","14","encoding","encoding","197","D24.jpg","3",".","37","0","509"
"14","14","encoding","encoding","199","D59.jpg","3",".","37","0","854"
"14","14","encoding","encoding","200","D77.jpg","3",".","37","0","512"
"14","14","encoding","encoding","201","C48.jpg","1",".","37","0","363"
"14","14","encoding","encoding","202","D74.jpg","3",".","37","0","422"
"14","14","encoding","encoding","203","D79.jpg","3",".","37","0","484"
"14","14","encoding","encoding","204","C54.jpg","1",".","37","0","581"
"14","14","encoding","encoding","205","D70.jpg","3",".","37","0","525"
"14","14","encoding","encoding","206","C13.jpg","1",".","37","0","689"
"14","14","encoding","encoding","207","D78.jpg","3",".","37","0","451"
"14","14","encoding","encoding","208","D34.jpg","3",".","37","0","550"
"14","14","encoding","encoding","209","D38.jpg","3",".","37","0","585"
"14","14","encoding","encoding","210","D25.jpg","3",".","36","0","750"
"14","14","encoding","encoding","211","D31.jpg","3",".","37","0","454"
"14","14","encoding","encoding","212","D53.jpg","3",".","37","0","420"
"14","14","encoding","encoding","213","C9.jpg","1",".","37","0","369"
"14","14","encoding","encoding","214","D63.jpg","3",".","37","0","470"
"14","14","encoding","encoding","215","D28.jpg","3",".","37","0","419"
"14","14","encoding","encoding","216","C1.jpg","1",".","37","0","385"
"14","14","encoding","encoding","217","D57.jpg","3",".","36","0","665"
"14","14","encoding","encoding","218","D41.jpg","3",".","37","0","547"
"14","14","encoding","encoding","219","D55.jpg","3",".","37","0","477"
"14","14","encoding","encoding","220","D18.jpg","3",".","36","0","656"
"14","14","encoding","encoding","221","D66.jpg","3",".","37","0","469"
"14","14","encoding","encoding","222","C32.jpg","1",".","37","0","398"
"14","14","encoding","encoding","223","D71.jpg","3",".","37","0","405"
"14","14","encoding","encoding","224","D54.jpg","3",".","36","0","528"
"14","14","encoding","encoding","225","D79.jpg","3",".","37","0","438"
"14","14","encoding","encoding","226","D33.jpg","3",".","37","0","474"
"14","14","encoding","encoding","227","D8.jpg","3",".","37","0","378"
"14","14","encoding","encoding","228","D21.jpg","3",".","37","0","445"
"14","14","encoding","encoding","229","C20.jpg","1",".","37","0","790"
"14","14","encoding","encoding","230","C22.jpg","1",".","37","0","471"
"14","14","encoding","encoding","231","D36.jpg","3",".","37","0","449"
"14","14","encoding","encoding","232","D74.jpg","3",".","37","0","372"
"14","14","encoding","encoding","233","D14.jpg","3",".","37","0","420"
"14","14","encoding","encoding","234","D34.jpg","3",".","37","0","448"
"14","14","encoding","encoding","235","D54.jpg","3",".","36","0","540"
"14","14","encoding","encoding","236","D61.jpg","3",".","37","0","681"
"14","14","encoding","encoding","237","D56.jpg","3",".","37","0","465"
"14","14","encoding","encoding","238","D44.jpg","3",".","37","0","500"
"14","14","encoding","encoding","239","D4.jpg","3",".","37","0","623"
"14","14","encoding","encoding","240","D1.jpg","3",".","37","0","588"
"14","14","encoding","encoding","241","D21.jpg","3",".","37","0","586"
"14","14","encoding","encoding","242","D20.jpg","3",".","37","0","648"
"14","14","encoding","encoding","243","D23.jpg","3",".","37","0","438"
"14","14","encoding","encoding","244","C8.jpg","1",".","37","0","416"
"14","14","encoding","encoding","245","D65.jpg","3",".","37","0","378"
"14","14","encoding","encoding","246","D49.jpg","3",".","36","0","760"
"14","14","encoding","encoding","247","C68.jpg","1",".","37","0","618"
"14","14","encoding","encoding","248","D43.jpg","3",".","37","0","409"
"14","14","encoding","encoding","249","C51.jpg","1",".","37","0","399"
"14","14","encoding","encoding","250","D16.jpg","3",".","37","0","412"
"14","14","encoding","encoding","251","D25.jpg","3",".","36","0","699"
"14","14","encoding","encoding","252","D19.jpg","3",".","37","0","440"
"14","14","encoding","encoding","253","D68.jpg","3",".","37","0","380"
"14","14","encoding","encoding","254","D76.jpg","3",".","37","0","383"
"14","14","encoding","encoding","255","D24.jpg","3",".","37","0","397"
"14","14","encoding","encoding","256","D72.jpg","3",".","37","0","423"
"14","14","encoding","encoding","257","D41.jpg","3",".","37","0","415"
"14","14","encoding","encoding","258","C41.jpg","1",".","37","0","478"
"14","14","encoding","encoding","259","D20.jpg","3",".","37","0","367"
"14","14","encoding","encoding","260","C15.jpg","1",".","37","0","441"
"14","14","encoding","encoding","261","C6.jpg","1",".","37","0","445"
"14","14","encoding","encoding","262","C43.jpg","1",".","37","0","708"
"14","14","encoding","encoding","263","D71.jpg","3",".","37","0","476"
"14","14","encoding","encoding","265","D75.jpg","3",".","0","0","1000"
"14","14","encoding","encoding","266","D32.jpg","3",".","37","0","690"
"14","14","encoding","encoding","267","D17.jpg","3",".","36","0","688"
"14","14","encoding","encoding","268","C50.jpg","1",".","37","0","473"
"14","14","encoding","encoding","269","D46.jpg","3",".","37","0","407"
"14","14","encoding","encoding","270","D69.jpg","3",".","36","0","614"
"14","14","encoding","encoding","271","D35.jpg","3",".","37","0","436"
"14","14","encoding","encoding","272","D26.jpg","3",".","36","0","469"
"14","14","encoding","encoding","273","D52.jpg","3",".","37","0","435"
"14","14","encoding","encoding","274","D12.jpg","3",".","37","0","468"
"14","14","encoding","encoding","275","D70.jpg","3",".","37","0","418"
"14","14","encoding","encoding","276","D30.jpg","3",".","36","0","638"
"14","14","encoding","encoding","277","D48.jpg","3",".","37","0","567"
"14","14","encoding","encoding","278","C28.jpg","1",".","37","0","395"
"14","14","encoding","encoding","279","D69.jpg","3",".","36","0","653"
"14","14","encoding","encoding","280","C40.jpg","1",".","37","0","438"
"14","14","encoding","encoding","281","D27.jpg","3",".","37","0","389"
"14","14","encoding","encoding","282","D11.jpg","3",".","37","0","345"
"14","14","encoding","encoding","283","D49.jpg","3",".","36","0","488"
"14","14","encoding","encoding","284","D13.jpg","3",".","37","0","509"
"14","14","encoding","encoding","285","D65.jpg","3",".","37","0","430"
"14","14","encoding","encoding","286","C29.jpg","1",".","37","0","383"
"14","14","encoding","encoding","287","C10.jpg","1",".","37","0","402"
"14","14","encoding","encoding","288","D68.jpg","3",".","37","0","560"
"14","14","encoding","encoding","289","D77.jpg","3",".","37","0","428"
"14","14","encoding","encoding","290","C18.jpg","1",".","37","0","377"
"14","14","encoding","encoding","291","D51.jpg","3",".","37","0","675"
"14","14","encoding","encoding","292","C34.jpg","1",".","37","0","468"
"14","14","encoding","encoding","293","D0.jpg","3",".","37","0","595"
"14","14","encoding","encoding","294","D59.jpg","3",".","37","0","389"
"14","14","encoding","encoding","295","C78.jpg","1",".","37","0","418"
"14","14","encoding","encoding","296","C2.jpg","1",".","37","0","402"
"14","14","encoding","encoding","297","D48.jpg","3",".","37","0","371"
"14","14","encoding","encoding","298","D1.jpg","3",".","37","0","427"
"14","14","encoding","encoding","299","D62.jpg","3",".","36","0","596"
"14","14","encoding","encoding","300","D72.jpg","3",".","37","0","586"
"14","14","encoding","encoding","301","C72.jpg","1",".","37","0","405"
"14","14","encoding","encoding","302","D33.jpg","3",".","37","0","370"
"14","14","encoding","encoding","303","C65.jpg","1",".","37","0","414"
"14","14","encoding","encoding","304","D30.jpg","3",".","36","0","760"
"14","14","encoding","encoding","305","D25.jpg","3",".","36","0","715"
"14","14","encoding","encoding","306","D2.jpg","3",".","37","0","484"
"14","14","encoding","encoding","307","D79.jpg","3",".","37","0","426"
"14","14","encoding","encoding","308","D7.jpg","3",".","37","0","356"
"14","14","encoding","encoding","309","C57.jpg","1",".","37","0","397"
"14","14","encoding","encoding","310","D55.jpg","3",".","37","0","384"
"14","14","encoding","encoding","311","C55.jpg","1",".","37","0","431"
"14","14","encoding","encoding","312","D22.jpg","3",".","37","0","490"
"14","14","encoding","encoding","313","D27.jpg","3",".","37","0","386"
"14","14","encoding","encoding","314","D2.jpg","3",".","37","0","572"
"14","14","encoding","encoding","315","D9.jpg","3",".","37","0","437"
"14","14","encoding","encoding","316","D13.jpg","3",".","37","0","380"
"14","14","encoding","encoding","317","D19.jpg","3",".","37","0","410"
"14","14","encoding","encoding","318","D58.jpg","3",".","36","0","564"
"14","14","encoding","encoding","319","C64.jpg","1",".","37","0","456"
"14","14","encoding","encoding","320","D75.jpg","3",".","36","0","509"
"14","14","encoding","encoding","321","D47.jpg","3",".","37","0","439"
"14","14","encoding","encoding","322","D0.jpg","3",".","37","0","615"
"14","14","encoding","encoding","323","D4.jpg","3",".","37","0","632"
"14","14","encoding","encoding","324","D40.jpg","3",".","37","0","461"
"14","14","encoding","encoding","325","D43.jpg","",".","37","0","363"
"14","14","retrieval","new_object","1","B37.jpg",".",".","37","1","1028"
"14","14","retrieval","old_object","2","C30.jpg",".","1","36","1","1069"
"14","14","retrieval","new_object","3","A16.jpg",".",".","37","1","872"
"14","14","retrieval","old_object","4","D23.jpg",".","3","36","1","851"
"14","14","retrieval","old_object","5","D72.jpg",".","3","36","1","547"
"14","14","retrieval","new_object","6","B44.jpg",".",".","37","1","632"
"14","14","retrieval","new_object","7","B23.jpg",".",".","37","1","711"
"14","14","retrieval","new_object","8","A70.jpg",".",".","37","1","779"
"14","14","retrieval","old_object","9","D73.jpg",".","3","36","1","658"
"14","14","retrieval","old_object","10","D43.jpg",".","3","36","1","625"
"14","14","retrieval","old_object","11","C44.jpg",".","1","36","1","609"
"14","14","retrieval","new_object","12","A34.jpg",".",".","37","1","541"
"14","14","retrieval","new_object","13","A26.jpg",".",".","37","1","738"
"14","14","retrieval","new_object","14","A35.jpg",".",".","37","1","576"
"14","14","retrieval","old_object","15","C58.jpg",".","1","36","1","1043"
"14","14","retrieval","old_object","16","D2.jpg",".","3","36","1","911"
"14","14","retrieval","old_object","17","C10.jpg",".","1","36","1","787"
"14","14","retrieval","new_object","18","A24.jpg",".",".","37","1","727"
"14","14","retrieval","new_object","19","B45.jpg",".",".","37","1","537"
"14","14","retrieval","old_object","20","D63.jpg",".","3","37","0","667"
"14","14","retrieval","new_object","21","B21.jpg",".",".","37","1","881"
"14","14","retrieval","old_object","22","C50.jpg",".","1","36","1","620"
"14","14","retrieval","new_object","23","A51.jpg",".",".","37","1","558"
"14","14","retrieval","old_object","24","D64.jpg",".","3","36","1","645"
"14","14","retrieval","new_object","25","B57.jpg",".",".","37","1","711"
"14","14","retrieval","old_object","26","D19.jpg",".","3","36","1","605"
"14","14","retrieval","new_object","27","A77.jpg",".",".","37","1","678"
"14","14","retrieval","new_object","28","A76.jpg",".",".","37","1","526"
"14","14","retrieval","new_object","29","B24.jpg",".",".","37","1","522"
"14","14","retrieval","new_object","30","A55.jpg",".",".","37","1","539"
"14","14","retrieval","old_object","31","D33.jpg",".","3","36","1","670"
"14","14","retrieval","new_object","32","B12.jpg",".",".","37","1","584"
"14","14","retrieval","new_object","33","B69.jpg",".",".","37","1","791"
"14","14","retrieval","old_object","34","C56.jpg",".","1","36","1","629"
"14","14","retrieval","old_object","35","C19.jpg",".","1","36","1","632"
"14","14","retrieval","new_object","36","A59.jpg",".",".","37","1","622"
"14","14","retrieval","new_object","37","A75.jpg",".",".","37","1","821"
"14","14","retrieval","old_object","38","D10.jpg",".","3","36","1","637"
"14","14","retrieval","old_object","39","D25.jpg",".","3","36","1","592"
"14","14","retrieval","new_object","40","B15.jpg",".",".","37","1","603"
"14","14","retrieval","new_object","41","A65.jpg",".",".","37","1","796"
"14","14","retrieval","new_object","42","B22.jpg",".",".","37","1","687"
"14","14","retrieval","old_object","43","D46.jpg",".","3","36","1","608"
"14","14","retrieval","old_object","44","C2.jpg",".","1","37","0","792"
"14","14","retrieval","new_object","45","A41.jpg",".",".","37","1","540"
"14","14","retrieval","old_object","46","D49.jpg",".","3","36","1","553"
"14","14","retrieval","old_object","47","D21.jpg",".","3","36","1","713"
"14","14","retrieval","old_object","48","D48.jpg",".","3","36","1","579"
"14","14","retrieval","new_object","49","B13.jpg",".",".","37","1","669"
"14","14","retrieval","new_object","50","A60.jpg",".",".","37","1","607"
"14","14","retrieval","old_object","51","C21.jpg",".","1","36","1","672"
"14","14","retrieval","new_object","52","A20.jpg",".",".","37","1","744"
"14","14","retrieval","new_object","53","A17.jpg",".",".","37","1","574"
"14","14","retrieval","old_object","54","D76.jpg",".","3","37","0","548"
"14","14","retrieval","old_object","55","C12.jpg",".","1","37","0","735"
"14","14","retrieval","new_object","56","A53.jpg",".",".","37","1","579"
"14","14","retrieval","new_object","57","B20.jpg",".",".","37","1","664"
"14","14","retrieval","old_object","58","C22.jpg",".","1","36","1","800"
"14","14","retrieval","old_object","59","D12.jpg",".","3","36","1","553"
"14","14","retrieval","new_object","60","A79.jpg",".",".","37","1","619"
"14","14","retrieval","old_object","61","C20.jpg",".","1","36","1","732"
"14","14","retrieval","old_object","62","C34.jpg",".","1","36","1","891"
"14","14","retrieval","new_object","63","B16.jpg",".",".","37","1","758"
"14","14","retrieval","old_object","64","D78.jpg",".","3","36","1","643"
"14","14","retrieval","old_object","65","C39.jpg",".","1","36","1","754"
"14","14","retrieval","old_object","67","D20.jpg",".","3","36","1","1094"
"14","14","retrieval","new_object","68","B74.jpg",".",".","37","1","812"
"14","14","retrieval","old_object","69","C70.jpg",".","1","36","1","813"
"14","14","retrieval","new_object","70","B8.jpg",".",".","37","1","607"
"14","14","retrieval","new_object","71","B65.jpg",".",".","37","1","613"
"14","14","retrieval","old_object","72","C57.jpg",".","1","37","0","474"
"14","14","retrieval","new_object","73","B26.jpg",".",".","37","1","694"
"14","14","retrieval","old_object","74","C27.jpg",".","1","37","0","540"
"14","14","retrieval","old_object","75","C64.jpg",".","1","36","1","698"
"14","14","retrieval","old_object","76","C15.jpg",".","1","37","0","569"
"14","14","retrieval","old_object","77","C35.jpg",".","1","37","0","1704"
"14","14","retrieval","old_object","78","D11.jpg",".","3","36","1","944"
"14","14","retrieval","old_object","79","D51.jpg",".","3","36","1","909"
"14","14","retrieval","new_object","80","A54.jpg",".",".","37","1","1208"
"14","14","retrieval","old_object","81","C62.jpg",".","1","37","0","1292"
"14","14","retrieval","old_object","82","C11.jpg",".","1","36","1","1296"
"14","14","retrieval","old_object","83","D56.jpg",".","3","36","1","618"
"14","14","retrieval","new_object","84","B76.jpg",".",".","37","1","1131"
"14","14","retrieval","old_object","85","D69.jpg",".","3","36","1","866"
"14","14","retrieval","new_object","86","B32.jpg",".",".","36","0","948"
"14","14","retrieval","old_object","87","C68.jpg",".","1","37","0","1040"
"14","14","retrieval","new_object","88","A5.jpg",".",".","37","1","531"
"14","14","retrieval","old_object","89","C3.jpg",".","1","37","0","1060"
"14","14","retrieval","new_object","90","A56.jpg",".",".","37","1","486"
"14","14","retrieval","new_object","91","A30.jpg",".",".","37","1","587"
"14","14","retrieval","new_object","92","A0.jpg",".",".","37","1","473"
"14","14","retrieval","new_object","93","B25.jpg",".",".","37","1","566"
"14","14","retrieval","new_object","94","A61.jpg",".",".","37","1","498"
"14","14","retrieval","old_object","95","C13.jpg",".","1","37","0","486"
"14","14","retrieval","new_object","96","B68.jpg",".",".","37","1","556"
"14","14","retrieval","new_object","97","A66.jpg",".",".","37","1","592"
"14","14","retrieval","new_object","98","B0.jpg",".",".","37","1","556"
"14","14","retrieval","new_object","99","A13.jpg",".",".","37","1","653"
"14","14","retrieval","old_object","100","D14.jpg",".","3","36","1","530"
"14","14","retrieval","new_object","101","A40.jpg",".",".","37","1","601"
"14","14","retrieval","new_object","102","B77.jpg",".",".","37","1","644"
"14","14","retrieval","old_object","103","C69.jpg",".","1","37","0","484"
"14","14","retrieval","old_object","104","C14.jpg",".","1","36","1","731"
"14","14","retrieval","new_object","105","A14.jpg",".",".","37","1","542"
"14","14","retrieval","old_object","106","C4.jpg",".","1","37","0","524"
"14","14","retrieval","old_object","107","C54.jpg",".","1","37","0","545"
"14","14","retrieval","old_object","108","D70.jpg",".","3","36","1","653"
"14","14","retrieval","old_object","109","C38.jpg",".","1","37","0","777"
"14","14","retrieval","old_object","110","C77.jpg",".","1","37","0","740"
"14","14","retrieval","new_object","111","B9.jpg",".",".","37","1","678"
"14","14","retrieval","new_object","112","A58.jpg",".",".","37","1","530"
"14","14","retrieval","old_object","113","C60.jpg",".","1","37","0","944"
"14","14","retrieval","old_object","114","D3.jpg",".","3","36","1","573"
"14","14","retrieval","old_object","115","C48.jpg",".","1","37","0","747"
"14","14","retrieval","new_object","116","A71.jpg",".",".","37","1","543"
"14","14","retrieval","old_object","117","C7.jpg",".","1","36","1","595"
"14","14","retrieval","new_object","118","B30.jpg",".",".","37","1","562"
"14","14","retrieval","old_object","119","C28.jpg",".","1","37","0","785"
"14","14","retrieval","old_object","120","D5.jpg",".","3","36","1","658"
"14","14","retrieval","new_object","121","A3.jpg",".",".","37","1","555"
"14","14","retrieval","new_object","122","B1.jpg",".",".","37","1","701"
"14","14","retrieval","new_object","123","A36.jpg",".",".","37","1","644"
"14","14","retrieval","new_object","124","B78.jpg",".",".","37","1","474"
"14","14","retrieval","old_object","125","D39.jpg",".","3","36","1","623"
"14","14","retrieval","new_object","126","B19.jpg",".",".","37","1","565"
"14","14","retrieval","old_object","127","D31.jpg",".","3","36","1","644"
"14","14","retrieval","old_object","128","C23.jpg",".","1","36","1","627"
"14","14","retrieval","new_object","129","A8.jpg",".",".","37","1","648"
"14","14","retrieval","new_object","130","A32.jpg",".",".","37","1","608"
"14","14","retrieval","new_object","131","B73.jpg",".",".","37","1","747"
"14","14","retrieval","new_object","133","B72.jpg",".",".","37","1","700"
"14","14","retrieval","new_object","134","B3.jpg",".",".","37","1","797"
"14","14","retrieval","old_object","135","C51.jpg",".","1","37","0","826"
"14","14","retrieval","new_object","136","A73.jpg",".",".","37","1","514"
"14","14","retrieval","old_object","137","D79.jpg",".","3","36","1","581"
"14","14","retrieval","old_object","138","C42.jpg",".","1","37","0","627"
"14","14","retrieval","new_object","139","B39.jpg",".",".","37","1","523"
"14","14","retrieval","new_object","140","B31.jpg",".",".","37","1","510"
"14","14","retrieval","new_object","141","A22.jpg",".",".","37","1","523"
"14","14","retrieval","old_object","142","C63.jpg",".","1","37","0","584"
"14","14","retrieval","new_object","143","B33.jpg",".",".","37","1","637"
"14","14","retrieval","old_object","144","D27.jpg",".","3","36","1","665"
"14","14","retrieval","old_object","145","D62.jpg",".","3","36","1","697"
"14","14","retrieval","old_object","146","C26.jpg",".","1","36","1","554"
"14","14","retrieval","new_object","147","B18.jpg",".",".","37","1","606"
"14","14","retrieval","old_object","148","D9.jpg",".","3","36","1","584"
"14","14","retrieval","new_object","149","A25.jpg",".",".","37","1","515"
"14","14","retrieval","old_object","150","D40.jpg",".","3","36","1","633"
"14","14","retrieval","new_object","151","B4.jpg",".",".","37","1","549"
"14","14","retrieval","new_object","152","B79.jpg",".",".","37","1","571"
"14","14","retrieval","new_object","153","B59.jpg",".",".","37","1","701"
"14","14","retrieval","new_object","154","B17.jpg",".",".","37","1","523"
"14","14","retrieval","new_object","155","A48.jpg",".",".","37","1","479"
"14","14","retrieval","old_object","156","C0.jpg",".","1","36","1","586"
"14","14","retrieval","new_object","157","B64.jpg",".",".","37","1","554"
"14","14","retrieval","old_object","158","C6.jpg",".","1","37","0","532"
"14","14","retrieval","old_object","159","D28.jpg",".","3","36","1","727"
"14","14","retrieval","new_object","160","B49.jpg",".",".","37","1","572"
"14","14","retrieval","old_object","161","C18.jpg",".","1","37","0","503"
"14","14","retrieval","new_object","162","A6.jpg",".",".","37","1","654"
"14","14","retrieval","new_object","163","B66.jpg",".",".","37","1","499"
"14","14","retrieval","new_object","164","B75.jpg",".",".","37","1","575"
"14","14","retrieval","old_object","165","D18.jpg",".","3","37","0","498"
"14","14","retrieval","old_object","166","C76.jpg",".","1","37","0","621"
"14","14","retrieval","old_object","167","C16.jpg",".","1","37","0","487"
"14","14","retrieval","new_object","168","A4.jpg",".",".","37","1","552"
"14","14","retrieval","new_object","169","B54.jpg",".",".","37","1","560"
"14","14","retrieval","new_object","170","A39.jpg",".",".","37","1","598"
"14","14","retrieval","old_object","171","C1.jpg",".","1","37","0","551"
"14","14","retrieval","old_object","172","D77.jpg",".","3","36","1","581"
"14","14","retrieval","new_object","173","A29.jpg",".",".","37","1","586"
"14","14","retrieval","new_object","174","A11.jpg",".",".","37","1","762"
"14","14","retrieval","new_object","175","A9.jpg",".",".","37","1","527"
"14","14","retrieval","old_object","176","C40.jpg",".","1","37","0","514"
"14","14","retrieval","old_object","177","D32.jpg",".","3","37","0","505"
"14","14","retrieval","old_object","178","D16.jpg",".","3","36","1","793"
"14","14","retrieval","old_object","179","C45.jpg",".","1","37","0","655"
"14","14","retrieval","new_object","180","A10.jpg",".",".","37","1","697"
"14","14","retrieval","new_object","181","A27.jpg",".",".","37","1","547"
"14","14","retrieval","new_object","182","B41.jpg",".",".","37","1","584"
"14","14","retrieval","old_object","183","C66.jpg",".","1","36","1","1031"
"14","14","retrieval","new_object","184","B48.jpg",".",".","37","1","623"
"14","14","retrieval","old_object","185","C79.jpg",".","1","36","1","823"
"14","14","retrieval","old_object","186","D6.jpg",".","3","37","0","578"
"14","14","retrieval","new_object","187","A18.jpg",".",".","37","1","602"
"14","14","retrieval","new_object","188","A37.jpg",".",".","37","1","697"
"14","14","retrieval","old_object","189","C49.jpg",".","1","36","1","702"
"14","14","retrieval","old_object","190","C47.jpg",".","1","36","1","635"
"14","14","retrieval","old_object","191","C65.jpg",".","1","37","0","977"
"14","14","retrieval","new_object","192","B2.jpg",".",".","37","1","629"
"14","14","retrieval","new_object","193","B62.jpg",".",".","36","0","859"
"14","14","retrieval","new_object","194","B51.jpg",".",".","37","1","747"
"14","14","retrieval","old_object","195","C43.jpg",".","1","37","0","632"
"14","14","retrieval","old_object","196","D54.jpg",".","3","36","1","609"
"14","14","retrieval","new_object","197","A50.jpg",".",".","37","1","607"
"14","14","retrieval","new_object","199","A33.jpg",".",".","37","1","674"
"14","14","retrieval","old_object","200","D17.jpg",".","3","36","1","711"
"14","14","retrieval","new_object","201","B6.jpg",".",".","37","1","782"
"14","14","retrieval","new_object","202","A47.jpg",".",".","37","1","721"
"14","14","retrieval","old_object","203","D15.jpg",".","3","36","1","736"
"14","14","retrieval","new_object","204","B55.jpg",".",".","37","1","728"
"14","14","retrieval","new_object","205","A2.jpg",".",".","37","1","702"
"14","14","retrieval","old_object","206","C41.jpg",".","1","36","1","838"
"14","14","retrieval","new_object","207","A15.jpg",".",".","37","1","784"
"14","14","retrieval","new_object","208","B36.jpg",".",".","37","1","524"
"14","14","retrieval","new_object","209","A64.jpg",".",".","37","1","526"
"14","14","retrieval","old_object","210","D4.jpg",".","3","36","1","665"
"14","14","retrieval","old_object","211","C72.jpg",".","1","37","0","542"
"14","14","retrieval","old_object","212","C29.jpg",".","1","37","0","868"
"14","14","retrieval","new_object","213","A42.jpg",".",".","37","1","487"
"14","14","retrieval","new_object","214","B40.jpg",".",".","37","1","483"
"14","14","retrieval","new_object","215","B42.jpg",".",".","37","1","513"
"14","14","retrieval","new_object","216","A23.jpg",".",".","37","1","719"
"14","14","retrieval","new_object","217","A57.jpg",".",".","36","0","793"
"14","14","retrieval","new_object","218","A72.jpg",".",".","37","1","512"
"14","14","retrieval","old_object","219","C31.jpg",".","1","37","0","499"
"14","14","retrieval","old_object","220","D59.jpg",".","3","36","1","612"
"14","14","retrieval","new_object","221","B67.jpg",".",".","37","1","577"
"14","14","retrieval","new_object","222","A62.jpg",".",".","37","1","539"
"14","14","retrieval","old_object","223","D50.jpg",".","3","36","1","721"
"14","14","retrieval","new_object","224","A52.jpg",".",".","37","1","606"
"14","14","retrieval","old_object","225","C52.jpg",".","1","36","1","900"
"14","14","retrieval","old_object","226","D8.jpg",".","3","36","1","719"
"14","14","retrieval","new_object","227","B47.jpg",".",".","37","1","618"
"14","14","retrieval","new_object","228","A46.jpg",".",".","37","1","531"
"14","14","retrieval","old_object","229","D29.jpg",".","3","36","1","610"
"14","14","retrieval","new_object","230","B11.jpg",".",".","37","1","550"
"14","14","retrieval","old_object","231","C46.jpg",".","1","37","0","533"
"14","14","retrieval","old_object","232","D1.jpg",".","3","37","0","515"
"14","14","retrieval","new_object","233","B43.jpg",".",".","37","1","630"
"14","14","retrieval","old_object","234","C25.jpg",".","1","37","0","546"
"14","14","retrieval","new_object","235","A31.jpg",".",".","37","1","559"
"14","14","retrieval","old_object","236","D24.jpg",".","3","36","1","744"
"14","14","retrieval","old_object","237","D35.jpg",".","3","36","1","855"
"14","14","retrieval","new_object","238","B29.jpg",".",".","37","1","586"
"14","14","retrieval","old_object","239","D65.jpg",".","3","36","1","722"
"14","14","retrieval","old_object","240","C33.jpg",".","1","36","1","776"
"14","14","retrieval","old_object","241","C8.jpg",".","1","37","0","764"
"14","14","retrieval","new_object","242","A7.jpg",".",".","37","1","798"
"14","14","retrieval","old_object","243","C75.jpg",".","1","36","1","935"
"14","14","retrieval","old_object","244","C59.jpg",".","1","37","0","628"
"14","14","retrieval","old_object","245","D36.jpg",".","3","36","1","715"
"14","14","retrieval","new_object","246","A69.jpg",".",".","37","1","606"
"14","14","retrieval","old_object","247","D53.jpg",".","3","37","0","707"
"14","14","retrieval","old_object","248","C61.jpg",".","1","36","1","734"
"14","14","retrieval","new_object","249","B27.jpg",".",".","37","1","592"
"14","14","retrieval","new_object","250","A21.jpg",".",".","37","1","630"
"14","14","retrieval","old_object","251","D67.jpg",".","3","36","1","681"
"14","14","retrieval","new_object","252","A63.jpg",".",".","37","1","766"
"14","14","retrieval","new_object","253","A19.jpg",".",".","37","1","646"
"14","14","retrieval","new_object","254","B35.jpg",".",".","37","1","584"
"14","14","retrieval","old_object","255","D58.jpg",".","3","36","1","603"
"14","14","retrieval","new_object","256","B10.jpg",".",".","37","1","903"
"14","14","retrieval","old_object","257","C9.jpg",".","1","37","0","758"
"14","14","retrieval","new_object","258","B63.jpg",".",".","37","1","622"
"14","14","retrieval","old_object","259","D44.jpg",".","3","36","1","834"
"14","14","retrieval","new_object","260","A45.jpg",".",".","37","1","640"
"14","14","retrieval","old_object","261","D0.jpg",".","3","37","0","717"
"14","14","retrieval","new_object","262","B34.jpg",".",".","37","1","528"
"14","14","retrieval","new_object","263","A12.jpg",".",".","37","1","645"
"14","14","retrieval","new_object","265","A43.jpg",".",".","37","1","746"
"14","14","retrieval","new_object","266","A74.jpg",".",".","37","1","724"
"14","14","retrieval","new_object","267","B5.jpg",".",".","37","1","532"
"14","14","retrieval","old_object","268","D57.jpg",".","3","36","1","617"
"14","14","retrieval","old_object","269","D7.jpg",".","3","36","1","642"
"14","14","retrieval","old_object","270","C5.jpg",".","1","37","0","547"
"14","14","retrieval","old_object","271","C37.jpg",".","1","36","1","815"
"14","14","retrieval","new_object","272","A44.jpg",".",".","37","1","530"
"14","14","retrieval","new_object","273","B61.jpg",".",".","37","1","589"
"14","14","retrieval","old_object","274","C73.jpg",".","1","36","1","597"
"14","14","retrieval","new_object","275","B14.jpg",".",".","37","1","547"
"14","14","retrieval","new_object","276","A67.jpg",".",".","37","1","535"
"14","14","retrieval","new_object","277","B28.jpg",".",".","37","1","615"
"14","14","retrieval","old_object","278","C74.jpg",".","1","36","1","829"
"14","14","retrieval","old_object","279","D47.jpg",".","3","37","0","739"
"14","14","retrieval","new_object","280","B46.jpg",".",".","36","0","1295"
"14","14","retrieval","new_object","281","B56.jpg",".",".","37","1","641"
"14","14","retrieval","old_object","282","D61.jpg",".","3","36","1","1101"
"14","14","retrieval","old_object","283","D55.jpg",".","3","36","1","870"
"14","14","retrieval","old_object","284","D22.jpg",".","3","36","1","728"
"14","14","retrieval","old_object","285","D34.jpg",".","3","36","1","837"
"14","14","retrieval","old_object","286","C24.jpg",".","1","37","0","850"
"14","14","retrieval","old_object","287","D38.jpg",".","3","37","0","798"
"14","14","retrieval","old_object","288","D13.jpg",".","3","37","0","803"
"14","14","retrieval","new_object","289","B71.jpg",".",".","37","1","1094"
"14","14","retrieval","old_object","290","C78.jpg",".","1","37","0","798"
"14","14","retrieval","old_object","291","D60.jpg",".","3","37","0","998"
"14","14","retrieval","new_object","292","B38.jpg",".",".","37","1","682"
"14","14","retrieval","new_object","293","B52.jpg",".",".","37","1","538"
"14","14","retrieval","old_object","294","D66.jpg",".","3","37","0","787"
"14","14","retrieval","old_object","295","C67.jpg",".","1","37","0","677"
"14","14","retrieval","new_object","296","A78.jpg",".",".","37","1","541"
"14","14","retrieval","old_object","297","C32.jpg",".","1","37","0","513"
"14","14","retrieval","old_object","298","D52.jpg",".","3","37","0","478"
"14","14","retrieval","new_object","299","A1.jpg",".",".","37","1","783"
"14","14","retrieval","new_object","300","A49.jpg",".",".","37","1","539"
"14","14","retrieval","old_object","301","D68.jpg",".","3","37","0","554"
"14","14","retrieval","old_object","302","D41.jpg",".","3","36","1","614"
"14","14","retrieval","old_object","303","D74.jpg",".","3","37","0","695"
"14","14","retrieval","old_object","304","D37.jpg",".","3","36","1","820"
"14","14","retrieval","new_object","305","B70.jpg",".",".","37","1","550"
"14","14","retrieval","old_object","306","C17.jpg",".","1","36","1","704"
"14","14","retrieval","new_object","307","A68.jpg",".",".","37","1","781"
"14","14","retrieval","old_object","308","D26.jpg",".","3","36","1","633"
"14","14","retrieval","old_object","309","D42.jpg",".","3","36","1","868"
"14","14","retrieval","new_object","310","B60.jpg",".",".","37","1","699"
"14","14","retrieval","new_object","311","B7.jpg",".",".","37","1","1002"
"14","14","retrieval","new_object","312","B50.jpg",".",".","37","1","530"
"14","14","retrieval","old_object","313","D45.jpg",".","3","36","1","628"
"14","14","retrieval","new_object","314","B53.jpg",".",".","37","1","579"
"14","14","retrieval","new_object","315","A28.jpg",".",".","37","1","478"
"14","14","retrieval","new_object","316","B58.jpg",".",".","37","1","571"
"14","14","retrieval","old_object","317","D30.jpg",".","3","36","1","654"
"14","14","retrieval","old_object","318","D75.jpg",".","3","37","0","689"
"14","14","retrieval","new_object","319","A38.jpg",".",".","37","1","529"
"14","14","retrieval","old_object","320","C53.jpg",".","1","36","1","915"
"14","14","retrieval","old_object","321","C71.jpg",".","1","36","1","1291"
"14","14","retrieval","new_object","322","A16.jpg",".",".","37","1","567"
"14","14","retrieval","old_object","323","D71.jpg",".","3","37","0","597"
"14","14","retrieval","old_object","324","C36.jpg",".","1","37","0","694"
"14","14","retrieval","old_object","325","C55.jpg",".","1","37","0","710"
"14","14","demographics_block","gender","1",".",".",".","male","1","24222"
"14","14","demographics_block","age","1",".",".",".","33","1","24222"
"14","14","demographics_block","education","1",".",".",".","18","1","24222"
"14","14","demographics_block","left_right_handed","2",".",".",".","Right","1","9805"
"14","14","demographics_block","raceoption1","2",".",".",".","0","1","9805"
"14","14","demographics_block","raceoption2","2",".",".",".","","1","9805"
"14","14","demographics_block","raceoption3","2",".",".",".","","1","9805"
"14","14","demographics_block","raceoption4","2",".",".",".","","1","9805"
"14","14","demographics_block","raceoption5","2",".",".",".","","1","9805"
"14","14","demographics_block","raceoption6","2",".",".",".","","1","9805"
"14","14","demographics_block","raceoption7","2",".",".",".","","1","9805"
"14","14","demographics_block","raceoption8","2",".",".",".","","1","9805"
"14","14","demographics_block","raceoption9","2",".",".",".","","1","9805"
"14","14","demographics_block","raceother","2",".",".",".","","1","9805"
"14","14","demographics_block","raceother","2",".",".",".","","1","9805"
"14","14","demographics_block","english_language","2",".",".",".","Yes","1","9805"
"14","14","demographics_block","english_languageother","2",".",".",".","","1","9805"
"14","14","demographics_block","eyesight","3",".",".",".","Yes","1","6713"
"14","14","demographics_block","colorblind","3",".",".",".","No","1","6713"
