"group","subject","blockcode","trialcode","trialnum","stimulus","encoding_condition","old_object_condition","response","correct","latency"
"9","9","encoding","encoding","1","E65.jpg","3",".","37","0","680"
"9","9","encoding","encoding","2","E18.jpg","3",".","37","0","807"
"9","9","encoding","encoding","3","F20.jpg","1",".","37","0","713"
"9","9","encoding","encoding","4","E54.jpg","3",".","37","0","567"
"9","9","encoding","encoding","5","E58.jpg","3",".","37","0","634"
"9","9","encoding","encoding","6","E18.jpg","3",".","37","0","533"
"9","9","encoding","encoding","7","E49.jpg","3",".","37","0","499"
"9","9","encoding","encoding","8","F68.jpg","1",".","37","0","438"
"9","9","encoding","encoding","9","E35.jpg","3",".","37","0","374"
"9","9","encoding","encoding","10","F41.jpg","1",".","37","0","588"
"9","9","encoding","encoding","11","E28.jpg","3",".","37","0","513"
"9","9","encoding","encoding","12","E16.jpg","3",".","37","0","490"
"9","9","encoding","encoding","13","E78.jpg","3",".","37","0","384"
"9","9","encoding","encoding","14","F16.jpg","1",".","36","0","536"
"9","9","encoding","encoding","15","E32.jpg","3",".","36","0","444"
"9","9","encoding","encoding","16","F28.jpg","1",".","36","0","381"
"9","9","encoding","encoding","17","E40.jpg","3",".","37","0","435"
"9","9","encoding","encoding","18","E45.jpg","3",".","37","0","433"
"9","9","encoding","encoding","19","E44.jpg","3",".","37","0","417"
"9","9","encoding","encoding","20","E3.jpg","3",".","37","0","586"
"9","9","encoding","encoding","21","E63.jpg","3",".","37","0","496"
"9","9","encoding","encoding","22","E55.jpg","3",".","37","0","500"
"9","9","encoding","encoding","23","E20.jpg","3",".","37","0","517"
"9","9","encoding","encoding","24","F4.jpg","1",".","37","0","423"
"9","9","encoding","encoding","25","E60.jpg","3",".","37","0","461"
"9","9","encoding","encoding","26","E1.jpg","3",".","37","0","446"
"9","9","encoding","encoding","27","F58.jpg","1",".","37","0","544"
"9","9","encoding","encoding","28","E70.jpg","3",".","37","0","498"
"9","9","encoding","encoding","29","E33.jpg","3",".","37","0","566"
"9","9","encoding","encoding","30","E37.jpg","3",".","37","0","477"
"9","9","encoding","encoding","31","E8.jpg","3",".","37","0","430"
"9","9","encoding","encoding","32","E32.jpg","3",".","37","0","440"
"9","9","encoding","encoding","33","E77.jpg","3",".","37","0","576"
"9","9","encoding","encoding","34","E42.jpg","3",".","37","0","467"
"9","9","encoding","encoding","35","E67.jpg","3",".","37","0","527"
"9","9","encoding","encoding","36","F48.jpg","1",".","37","0","450"
"9","9","encoding","encoding","37","E51.jpg","3",".","37","0","469"
"9","9","encoding","encoding","38","E30.jpg","3",".","37","0","409"
"9","9","encoding","encoding","39","F2.jpg","1",".","37","0","405"
"9","9","encoding","encoding","40","F77.jpg","1",".","37","0","426"
"9","9","encoding","encoding","41","E28.jpg","3",".","37","0","379"
"9","9","encoding","encoding","42","E10.jpg","3",".","37","0","612"
"9","9","encoding","encoding","43","E41.jpg","3",".","37","0","400"
"9","9","encoding","encoding","44","E28.jpg","3",".","37","0","421"
"9","9","encoding","encoding","45","E22.jpg","3",".","37","0","552"
"9","9","encoding","encoding","46","F43.jpg","1",".","37","0","502"
"9","9","encoding","encoding","47","F9.jpg","1",".","36","0","544"
"9","9","encoding","encoding","48","E29.jpg","3",".","37","0","536"
"9","9","encoding","encoding","49","F0.jpg","1",".","37","0","550"
"9","9","encoding","encoding","50","E18.jpg","3",".","37","0","432"
"9","9","encoding","encoding","51","E43.jpg","3",".","37","0","506"
"9","9","encoding","encoding","52","E23.jpg","3",".","37","0","635"
"9","9","encoding","encoding","53","E44.jpg","3",".","37","0","457"
"9","9","encoding","encoding","54","F44.jpg","1",".","37","0","712"
"9","9","encoding","encoding","55","F42.jpg","1",".","37","0","519"
"9","9","encoding","encoding","56","E48.jpg","3",".","37","0","757"
"9","9","encoding","encoding","57","E36.jpg","3",".","37","0","450"
"9","9","encoding","encoding","58","E27.jpg","3",".","36","0","737"
"9","9","encoding","encoding","59","F75.jpg","1",".","37","0","759"
"9","9","encoding","encoding","60","E77.jpg","3",".","37","0","541"
"9","9","encoding","encoding","61","F47.jpg","1",".","37","0","555"
"9","9","encoding","encoding","62","E14.jpg","3",".","37","0","658"
"9","9","encoding","encoding","63","E31.jpg","3",".","36","0","749"
"9","9","encoding","encoding","64","E57.jpg","3",".","37","0","911"
"9","9","encoding","encoding","65","E30.jpg","3",".","37","0","710"
"9","9","encoding","encoding","67","E73.jpg","3",".","37","0","630"
"9","9","encoding","encoding","68","E62.jpg","3",".","37","0","524"
"9","9","encoding","encoding","69","E34.jpg","3",".","37","0","562"
"9","9","encoding","encoding","70","E29.jpg","3",".","37","0","535"
"9","9","encoding","encoding","71","F25.jpg","1",".","37","0","727"
"9","9","encoding","encoding","72","E2.jpg","3",".","37","0","671"
"9","9","encoding","encoding","73","E0.jpg","3",".","37","0","531"
"9","9","encoding","encoding","74","F29.jpg","1",".","37","0","594"
"9","9","encoding","encoding","75","E57.jpg","3",".","37","0","583"
"9","9","encoding","encoding","76","E23.jpg","3",".","37","0","552"
"9","9","encoding","encoding","77","F37.jpg","1",".","37","0","708"
"9","9","encoding","encoding","78","E17.jpg","3",".","37","0","712"
"9","9","encoding","encoding","79","F60.jpg","1",".","37","0","673"
"9","9","encoding","encoding","80","E39.jpg","3",".","37","0","599"
"9","9","encoding","encoding","81","F32.jpg","1",".","37","0","564"
"9","9","encoding","encoding","82","E34.jpg","3",".","37","0","714"
"9","9","encoding","encoding","83","E39.jpg","3",".","37","0","678"
"9","9","encoding","encoding","84","F7.jpg","1",".","37","0","666"
"9","9","encoding","encoding","85","E49.jpg","3",".","37","0","527"
"9","9","encoding","encoding","86","E66.jpg","3",".","37","0","599"
"9","9","encoding","encoding","87","F10.jpg","1",".","37","0","560"
"9","9","encoding","encoding","88","F21.jpg","1",".","37","0","654"
"9","9","encoding","encoding","89","E15.jpg","3",".","37","0","599"
"9","9","encoding","encoding","90","E6.jpg","3",".","37","0","594"
"9","9","encoding","encoding","91","E9.jpg","3",".","37","0","598"
"9","9","encoding","encoding","92","E36.jpg","3",".","37","0","654"
"9","9","encoding","encoding","93","F38.jpg","1",".","37","0","689"
"9","9","encoding","encoding","94","E24.jpg","3",".","37","0","694"
"9","9","encoding","encoding","95","F11.jpg","1",".","37","0","675"
"9","9","encoding","encoding","96","E5.jpg","3",".","36","0","679"
"9","9","encoding","encoding","97","E30.jpg","3",".","37","0","704"
"9","9","encoding","encoding","98","E58.jpg","3",".","37","0","599"
"9","9","encoding","encoding","99","F5.jpg","1",".","36","0","854"
"9","9","encoding","encoding","100","E1.jpg","3",".","37","0","795"
"9","9","encoding","encoding","101","E68.jpg","3",".","36","0","760"
"9","9","encoding","encoding","102","E0.jpg","3",".","37","0","832"
"9","9","encoding","encoding","103","E71.jpg","3",".","37","0","835"
"9","9","encoding","encoding","104","E4.jpg","3",".","37","0","615"
"9","9","encoding","encoding","105","E25.jpg","3",".","37","0","526"
"9","9","encoding","encoding","106","F49.jpg","1",".","37","0","635"
"9","9","encoding","encoding","107","E2.jpg","3",".","37","0","541"
"9","9","encoding","encoding","108","E35.jpg","3",".","37","0","632"
"9","9","encoding","encoding","109","E36.jpg","3",".","37","0","513"
"9","9","encoding","encoding","110","E53.jpg","3",".","36","0","624"
"9","9","encoding","encoding","111","E51.jpg","3",".","37","0","542"
"9","9","encoding","encoding","112","E77.jpg","3",".","37","0","486"
"9","9","encoding","encoding","113","E19.jpg","3",".","37","0","558"
"9","9","encoding","encoding","114","F62.jpg","1",".","37","0","703"
"9","9","encoding","encoding","115","E29.jpg","3",".","37","0","622"
"9","9","encoding","encoding","116","F40.jpg","1",".","37","0","547"
"9","9","encoding","encoding","117","E15.jpg","3",".","37","0","530"
"9","9","encoding","encoding","118","E27.jpg","3",".","36","0","765"
"9","9","encoding","encoding","119","E72.jpg","3",".","37","0","820"
"9","9","encoding","encoding","120","E47.jpg","3",".","37","0","899"
"9","9","encoding","encoding","121","E20.jpg","3",".","37","0","805"
"9","9","encoding","encoding","122","E42.jpg","3",".","37","0","802"
"9","9","encoding","encoding","123","E8.jpg","3",".","37","0","696"
"9","9","encoding","encoding","124","E14.jpg","3",".","37","0","705"
"9","9","encoding","encoding","125","F30.jpg","1",".","36","0","904"
"9","9","encoding","encoding","126","E74.jpg","3",".","37","0","790"
"9","9","encoding","encoding","127","F23.jpg","1",".","37","0","692"
"9","9","encoding","encoding","128","F63.jpg","1",".","37","0","670"
"9","9","encoding","encoding","129","E37.jpg","3",".","37","0","943"
"9","9","encoding","encoding","130","E7.jpg","3",".","0","0","1000"
"9","9","encoding","encoding","131","E38.jpg","3",".","37","0","798"
"9","9","encoding","encoding","133","E78.jpg","3",".","37","0","824"
"9","9","encoding","encoding","134","E11.jpg","3",".","37","0","574"
"9","9","encoding","encoding","135","E5.jpg","3",".","36","0","622"
"9","9","encoding","encoding","136","E23.jpg","3",".","37","0","607"
"9","9","encoding","encoding","137","E32.jpg","3",".","36","0","580"
"9","9","encoding","encoding","138","E65.jpg","3",".","37","0","583"
"9","9","encoding","encoding","139","F69.jpg","1",".","37","0","905"
"9","9","encoding","encoding","140","E38.jpg","3",".","37","0","512"
"9","9","encoding","encoding","141","E71.jpg","3",".","37","0","578"
"9","9","encoding","encoding","142","E64.jpg","3",".","37","0","636"
"9","9","encoding","encoding","143","E9.jpg","3",".","37","0","677"
"9","9","encoding","encoding","144","F18.jpg","1",".","37","0","624"
"9","9","encoding","encoding","145","F59.jpg","1",".","37","0","558"
"9","9","encoding","encoding","146","E75.jpg","3",".","36","0","709"
"9","9","encoding","encoding","147","F13.jpg","1",".","37","0","693"
"9","9","encoding","encoding","148","E69.jpg","3",".","36","0","738"
"9","9","encoding","encoding","149","E24.jpg","3",".","37","0","643"
"9","9","encoding","encoding","150","E33.jpg","3",".","37","0","752"
"9","9","encoding","encoding","151","E56.jpg","3",".","37","0","786"
"9","9","encoding","encoding","152","E67.jpg","3",".","37","0","552"
"9","9","encoding","encoding","153","E25.jpg","3",".","37","0","571"
"9","9","encoding","encoding","154","E41.jpg","3",".","37","0","670"
"9","9","encoding","encoding","155","F27.jpg","1",".","37","0","849"
"9","9","encoding","encoding","156","F33.jpg","1",".","37","0","593"
"9","9","encoding","encoding","157","F15.jpg","1",".","37","0","494"
"9","9","encoding","encoding","158","F39.jpg","1",".","36","0","842"
"9","9","encoding","encoding","159","E46.jpg","3",".","37","0","871"
"9","9","encoding","encoding","160","E26.jpg","3",".","37","0","780"
"9","9","encoding","encoding","161","E40.jpg","3",".","37","0","519"
"9","9","encoding","encoding","162","E27.jpg","3",".","36","0","751"
"9","9","encoding","encoding","163","E72.jpg","3",".","36","0","783"
"9","9","encoding","encoding","164","F57.jpg","1",".","37","0","734"
"9","9","encoding","encoding","165","E6.jpg","3",".","37","0","896"
"9","9","encoding","encoding","166","E62.jpg","3",".","37","0","689"
"9","9","encoding","encoding","167","E31.jpg","3",".","37","0","758"
"9","9","encoding","encoding","168","F71.jpg","1",".","37","0","674"
"9","9","encoding","encoding","169","E52.jpg","3",".","36","0","960"
"9","9","encoding","encoding","170","E10.jpg","3",".","37","0","761"
"9","9","encoding","encoding","171","E66.jpg","3",".","36","0","900"
"9","9","encoding","encoding","172","E12.jpg","3",".","37","0","849"
"9","9","encoding","encoding","173","E55.jpg","3",".","37","0","821"
"9","9","encoding","encoding","174","E50.jpg","3",".","37","0","775"
"9","9","encoding","encoding","175","E11.jpg","3",".","37","0","628"
"9","9","encoding","encoding","176","F74.jpg","1",".","37","0","784"
"9","9","encoding","encoding","177","E3.jpg","3",".","37","0","785"
"9","9","encoding","encoding","178","E47.jpg","3",".","37","0","790"
"9","9","encoding","encoding","179","E21.jpg","3",".","0","0","1000"
"9","9","encoding","encoding","180","E17.jpg","3",".","37","0","737"
"9","9","encoding","encoding","181","F50.jpg","1",".","37","0","626"
"9","9","encoding","encoding","182","E26.jpg","3",".","37","0","519"
"9","9","encoding","encoding","183","E66.jpg","3",".","36","0","818"
"9","9","encoding","encoding","184","F61.jpg","1",".","37","0","980"
"9","9","encoding","encoding","185","E20.jpg","3",".","37","0","751"
"9","9","encoding","encoding","186","E79.jpg","3",".","36","0","719"
"9","9","encoding","encoding","187","F51.jpg","1",".","36","0","864"
"9","9","encoding","encoding","188","E19.jpg","3",".","37","0","765"
"9","9","encoding","encoding","189","E75.jpg","3",".","36","0","767"
"9","9","encoding","encoding","190","E59.jpg","3",".","37","0","767"
"9","9","encoding","encoding","191","E26.jpg","3",".","37","0","650"
"9","9","encoding","encoding","192","E6.jpg","3",".","37","0","528"
"9","9","encoding","encoding","193","E51.jpg","3",".","37","0","618"
"9","9","encoding","encoding","194","E61.jpg","3",".","37","0","898"
"9","9","encoding","encoding","195","E14.jpg","3",".","37","0","576"
"9","9","encoding","encoding","196","E78.jpg","3",".","37","0","716"
"9","9","encoding","encoding","197","F55.jpg","1",".","37","0","841"
"9","9","encoding","encoding","199","E16.jpg","3",".","37","0","647"
"9","9","encoding","encoding","200","E62.jpg","3",".","37","0","485"
"9","9","encoding","encoding","201","F78.jpg","1",".","37","0","609"
"9","9","encoding","encoding","202","E3.jpg","3",".","37","0","585"
"9","9","encoding","encoding","203","F24.jpg","1",".","37","0","447"
"9","9","encoding","encoding","204","E22.jpg","3",".","37","0","457"
"9","9","encoding","encoding","205","E33.jpg","3",".","37","0","592"
"9","9","encoding","encoding","206","E13.jpg","3",".","36","0","547"
"9","9","encoding","encoding","207","F52.jpg","1",".","37","0","648"
"9","9","encoding","encoding","208","E35.jpg","3",".","37","0","585"
"9","9","encoding","encoding","209","E21.jpg","3",".","37","0","748"
"9","9","encoding","encoding","210","F73.jpg","1",".","37","0","669"
"9","9","encoding","encoding","211","E5.jpg","3",".","36","0","691"
"9","9","encoding","encoding","212","F56.jpg","1",".","37","0","789"
"9","9","encoding","encoding","213","E67.jpg","3",".","37","0","589"
"9","9","encoding","encoding","214","F3.jpg","1",".","37","0","646"
"9","9","encoding","encoding","215","E9.jpg","3",".","37","0","577"
"9","9","encoding","encoding","216","E49.jpg","3",".","37","0","555"
"9","9","encoding","encoding","217","E21.jpg","3",".","37","0","623"
"9","9","encoding","encoding","218","E63.jpg","3",".","37","0","708"
"9","9","encoding","encoding","219","E79.jpg","3",".","36","0","615"
"9","9","encoding","encoding","220","E2.jpg","3",".","37","0","598"
"9","9","encoding","encoding","221","E79.jpg","3",".","36","0","666"
"9","9","encoding","encoding","222","E65.jpg","3",".","37","0","697"
"9","9","encoding","encoding","223","E54.jpg","3",".","37","0","629"
"9","9","encoding","encoding","224","E53.jpg","3",".","36","0","621"
"9","9","encoding","encoding","225","E12.jpg","3",".","37","0","673"
"9","9","encoding","encoding","226","E13.jpg","3",".","36","0","813"
"9","9","encoding","encoding","227","F31.jpg","1",".","37","0","692"
"9","9","encoding","encoding","228","E57.jpg","3",".","37","0","635"
"9","9","encoding","encoding","229","E70.jpg","3",".","36","0","787"
"9","9","encoding","encoding","230","F53.jpg","1",".","37","0","609"
"9","9","encoding","encoding","231","E61.jpg","3",".","37","0","765"
"9","9","encoding","encoding","232","E55.jpg","3",".","37","0","585"
"9","9","encoding","encoding","233","E52.jpg","3",".","36","0","660"
"9","9","encoding","encoding","234","E74.jpg","3",".","37","0","671"
"9","9","encoding","encoding","235","E56.jpg","3",".","37","0","601"
"9","9","encoding","encoding","236","E34.jpg","3",".","37","0","567"
"9","9","encoding","encoding","237","E52.jpg","3",".","36","0","713"
"9","9","encoding","encoding","238","E46.jpg","3",".","37","0","710"
"9","9","encoding","encoding","239","E15.jpg","3",".","37","0","715"
"9","9","encoding","encoding","240","E47.jpg","3",".","37","0","855"
"9","9","encoding","encoding","241","E1.jpg","3",".","37","0","836"
"9","9","encoding","encoding","242","F65.jpg","1",".","37","0","764"
"9","9","encoding","encoding","243","F12.jpg","1",".","37","0","724"
"9","9","encoding","encoding","244","F6.jpg","1",".","37","0","676"
"9","9","encoding","encoding","245","F22.jpg","1",".","36","0","929"
"9","9","encoding","encoding","246","E75.jpg","3",".","36","0","796"
"9","9","encoding","encoding","247","E73.jpg","3",".","37","0","661"
"9","9","encoding","encoding","248","E43.jpg","3",".","37","0","676"
"9","9","encoding","encoding","249","E59.jpg","3",".","37","0","612"
"9","9","encoding","encoding","250","E16.jpg","3",".","37","0","695"
"9","9","encoding","encoding","251","E4.jpg","3",".","37","0","633"
"9","9","encoding","encoding","252","F76.jpg","1",".","37","0","489"
"9","9","encoding","encoding","253","F54.jpg","1",".","36","0","805"
"9","9","encoding","encoding","254","F45.jpg","1",".","37","0","749"
"9","9","encoding","encoding","255","F46.jpg","1",".","36","0","965"
"9","9","encoding","encoding","256","E0.jpg","3",".","37","0","836"
"9","9","encoding","encoding","257","E71.jpg","3",".","37","0","700"
"9","9","encoding","encoding","258","F8.jpg","1",".","37","0","661"
"9","9","encoding","encoding","259","E38.jpg","3",".","37","0","601"
"9","9","encoding","encoding","260","E64.jpg","3",".","37","0","620"
"9","9","encoding","encoding","261","F1.jpg","1",".","37","0","643"
"9","9","encoding","encoding","262","E76.jpg","3",".","37","0","727"
"9","9","encoding","encoding","263","F67.jpg","1",".","37","0","650"
"9","9","encoding","encoding","265","E8.jpg","3",".","37","0","815"
"9","9","encoding","encoding","266","E44.jpg","3",".","37","0","558"
"9","9","encoding","encoding","267","E7.jpg","3",".","36","0","920"
"9","9","encoding","encoding","268","E68.jpg","3",".","36","0","719"
"9","9","encoding","encoding","269","E48.jpg","3",".","37","0","698"
"9","9","encoding","encoding","270","E58.jpg","3",".","37","0","580"
"9","9","encoding","encoding","271","F26.jpg","1",".","37","0","665"
"9","9","encoding","encoding","272","E7.jpg","3",".","36","0","624"
"9","9","encoding","encoding","273","F19.jpg","1",".","36","0","794"
"9","9","encoding","encoding","274","E69.jpg","3",".","37","0","905"
"9","9","encoding","encoding","275","E43.jpg","3",".","0","0","1000"
"9","9","encoding","encoding","276","E42.jpg","3",".","37","0","629"
"9","9","encoding","encoding","277","E59.jpg","3",".","37","0","605"
"9","9","encoding","encoding","278","E31.jpg","3",".","37","0","716"
"9","9","encoding","encoding","279","E74.jpg","3",".","37","0","549"
"9","9","encoding","encoding","280","F35.jpg","1",".","37","0","714"
"9","9","encoding","encoding","281","E13.jpg","3",".","36","0","694"
"9","9","encoding","encoding","282","F34.jpg","1",".","37","0","636"
"9","9","encoding","encoding","283","E70.jpg","3",".","36","0","705"
"9","9","encoding","encoding","284","F36.jpg","1",".","37","0","574"
"9","9","encoding","encoding","285","E4.jpg","3",".","37","0","573"
"9","9","encoding","encoding","286","E64.jpg","3",".","37","0","531"
"9","9","encoding","encoding","287","F70.jpg","1",".","36","0","674"
"9","9","encoding","encoding","288","E12.jpg","3",".","37","0","666"
"9","9","encoding","encoding","289","E68.jpg","3",".","36","0","765"
"9","9","encoding","encoding","290","E41.jpg","3",".","37","0","646"
"9","9","encoding","encoding","291","E11.jpg","3",".","37","0","712"
"9","9","encoding","encoding","292","E56.jpg","3",".","37","0","626"
"9","9","encoding","encoding","293","E53.jpg","3",".","36","0","783"
"9","9","encoding","encoding","294","E24.jpg","3",".","37","0","623"
"9","9","encoding","encoding","295","E22.jpg","3",".","37","0","723"
"9","9","encoding","encoding","296","F72.jpg","1",".","37","0","715"
"9","9","encoding","encoding","297","E17.jpg","3",".","37","0","574"
"9","9","encoding","encoding","298","E40.jpg","3",".","37","0","650"
"9","9","encoding","encoding","299","E25.jpg","3",".","37","0","748"
"9","9","encoding","encoding","300","E50.jpg","3",".","37","0","833"
"9","9","encoding","encoding","301","E19.jpg","3",".","37","0","810"
"9","9","encoding","encoding","302","E61.jpg","3",".","37","0","880"
"9","9","encoding","encoding","303","E39.jpg","3",".","37","0","719"
"9","9","encoding","encoding","304","E63.jpg","3",".","37","0","620"
"9","9","encoding","encoding","305","E60.jpg","3",".","37","0","696"
"9","9","encoding","encoding","306","E73.jpg","3",".","37","0","699"
"9","9","encoding","encoding","307","E72.jpg","3",".","36","0","801"
"9","9","encoding","encoding","308","E54.jpg","3",".","37","0","739"
"9","9","encoding","encoding","309","F64.jpg","1",".","37","0","756"
"9","9","encoding","encoding","310","F14.jpg","1",".","37","0","791"
"9","9","encoding","encoding","311","E46.jpg","3",".","37","0","744"
"9","9","encoding","encoding","312","F79.jpg","1",".","37","0","733"
"9","9","encoding","encoding","313","F17.jpg","1",".","37","0","582"
"9","9","encoding","encoding","314","E50.jpg","3",".","37","0","566"
"9","9","encoding","encoding","315","E48.jpg","3",".","37","0","619"
"9","9","encoding","encoding","316","E37.jpg","3",".","37","0","560"
"9","9","encoding","encoding","317","E76.jpg","3",".","37","0","640"
"9","9","encoding","encoding","318","E45.jpg","3",".","37","0","629"
"9","9","encoding","encoding","319","E10.jpg","3",".","37","0","662"
"9","9","encoding","encoding","320","E69.jpg","3",".","37","0","969"
"9","9","encoding","encoding","321","E76.jpg","3",".","37","0","843"
"9","9","encoding","encoding","322","E60.jpg","3",".","37","0","842"
"9","9","encoding","encoding","323","F66.jpg","1",".","37","0","745"
"9","9","encoding","encoding","324","E45.jpg","3",".","37","0","698"
"9","9","encoding","encoding","325","E65.jpg","",".","37","0","676"
"9","9","retrieval","old_object","1","E64.jpg",".","3","36","1","1060"
"9","9","retrieval","old_object","2","F49.jpg",".","1","36","1","913"
"9","9","retrieval","new_object","3","H2.jpg",".",".","37","1","1052"
"9","9","retrieval","new_object","4","G72.jpg",".",".","37","1","1058"
"9","9","retrieval","new_object","5","G76.jpg",".",".","37","1","1044"
"9","9","retrieval","old_object","6","F69.jpg",".","1","36","1","1426"
"9","9","retrieval","old_object","7","E41.jpg",".","3","36","1","989"
"9","9","retrieval","old_object","8","E37.jpg",".","3","36","1","1069"
"9","9","retrieval","new_object","9","G52.jpg",".",".","37","1","838"
"9","9","retrieval","old_object","10","F70.jpg",".","1","36","1","1144"
"9","9","retrieval","new_object","11","G62.jpg",".",".","37","1","1122"
"9","9","retrieval","new_object","12","H15.jpg",".",".","37","1","1121"
"9","9","retrieval","old_object","13","E4.jpg",".","3","36","1","1329"
"9","9","retrieval","old_object","14","F32.jpg",".","1","37","0","1627"
"9","9","retrieval","new_object","15","G34.jpg",".",".","37","1","1563"
"9","9","retrieval","old_object","16","E21.jpg",".","3","36","1","1288"
"9","9","retrieval","new_object","17","G20.jpg",".",".","37","1","1071"
"9","9","retrieval","new_object","18","G2.jpg",".",".","37","1","1066"
"9","9","retrieval","old_object","19","F40.jpg",".","1","36","1","1176"
"9","9","retrieval","new_object","20","H59.jpg",".",".","37","1","991"
"9","9","retrieval","old_object","21","E33.jpg",".","3","37","0","1302"
"9","9","retrieval","old_object","22","F51.jpg",".","1","36","1","1013"
"9","9","retrieval","old_object","23","F73.jpg",".","1","36","1","1511"
"9","9","retrieval","old_object","24","F74.jpg",".","1","36","1","1030"
"9","9","retrieval","old_object","25","F68.jpg",".","1","37","0","1217"
"9","9","retrieval","old_object","26","F65.jpg",".","1","37","0","1485"
"9","9","retrieval","new_object","27","H65.jpg",".",".","37","1","1049"
"9","9","retrieval","old_object","28","F10.jpg",".","1","36","1","1334"
"9","9","retrieval","new_object","29","G41.jpg",".",".","37","1","1095"
"9","9","retrieval","new_object","30","H52.jpg",".",".","37","1","976"
"9","9","retrieval","old_object","31","E30.jpg",".","3","37","0","1263"
"9","9","retrieval","new_object","32","G73.jpg",".",".","37","1","1273"
"9","9","retrieval","new_object","33","H41.jpg",".",".","37","1","1253"
"9","9","retrieval","old_object","34","E43.jpg",".","3","36","1","877"
"9","9","retrieval","new_object","35","G79.jpg",".",".","37","1","1227"
"9","9","retrieval","old_object","36","F5.jpg",".","1","37","0","1220"
"9","9","retrieval","new_object","37","G47.jpg",".",".","37","1","1194"
"9","9","retrieval","new_object","38","H37.jpg",".",".","37","1","987"
"9","9","retrieval","new_object","39","H17.jpg",".",".","37","1","1013"
"9","9","retrieval","old_object","40","E58.jpg",".","3","36","1","1029"
"9","9","retrieval","old_object","41","E14.jpg",".","3","36","1","950"
"9","9","retrieval","old_object","42","E34.jpg",".","3","36","1","880"
"9","9","retrieval","new_object","43","G3.jpg",".",".","37","1","840"
"9","9","retrieval","old_object","44","F58.jpg",".","1","36","1","994"
"9","9","retrieval","old_object","45","E50.jpg",".","3","36","1","912"
"9","9","retrieval","old_object","46","F46.jpg",".","1","36","1","986"
"9","9","retrieval","old_object","47","F15.jpg",".","1","37","0","1115"
"9","9","retrieval","old_object","48","F79.jpg",".","1","36","1","1069"
"9","9","retrieval","old_object","49","F34.jpg",".","1","36","1","1068"
"9","9","retrieval","old_object","50","E13.jpg",".","3","36","1","884"
"9","9","retrieval","old_object","51","E78.jpg",".","3","36","1","1503"
"9","9","retrieval","new_object","52","G67.jpg",".",".","37","1","1130"
"9","9","retrieval","new_object","53","G7.jpg",".",".","37","1","1303"
"9","9","retrieval","new_object","54","G30.jpg",".",".","37","1","1087"
"9","9","retrieval","old_object","55","F13.jpg",".","1","36","1","1036"
"9","9","retrieval","old_object","56","E77.jpg",".","3","36","1","896"
"9","9","retrieval","old_object","57","F37.jpg",".","1","36","1","877"
"9","9","retrieval","new_object","58","H79.jpg",".",".","37","1","905"
"9","9","retrieval","old_object","59","E39.jpg",".","3","36","1","1015"
"9","9","retrieval","old_object","60","F67.jpg",".","1","37","0","1036"
"9","9","retrieval","new_object","61","H25.jpg",".",".","37","1","1098"
"9","9","retrieval","old_object","62","E63.jpg",".","3","36","1","879"
"9","9","retrieval","old_object","63","F19.jpg",".","1","36","1","1221"
"9","9","retrieval","new_object","64","H56.jpg",".",".","36","0","1178"
"9","9","retrieval","new_object","65","G25.jpg",".",".","37","1","846"
"9","9","retrieval","new_object","67","G31.jpg",".",".","37","1","1112"
"9","9","retrieval","old_object","68","F50.jpg",".","1","37","0","966"
"9","9","retrieval","new_object","69","G16.jpg",".",".","37","1","1058"
"9","9","retrieval","new_object","70","G17.jpg",".",".","37","1","1048"
"9","9","retrieval","new_object","71","H14.jpg",".",".","37","1","940"
"9","9","retrieval","new_object","72","G57.jpg",".",".","37","1","897"
"9","9","retrieval","new_object","73","G13.jpg",".",".","37","1","899"
"9","9","retrieval","old_object","74","F57.jpg",".","1","36","1","1311"
"9","9","retrieval","new_object","75","H48.jpg",".",".","37","1","1177"
"9","9","retrieval","old_object","76","E66.jpg",".","3","36","1","1006"
"9","9","retrieval","new_object","77","G43.jpg",".",".","37","1","1213"
"9","9","retrieval","new_object","78","H45.jpg",".",".","37","1","1169"
"9","9","retrieval","old_object","79","E1.jpg",".","3","36","1","1440"
"9","9","retrieval","old_object","80","E22.jpg",".","3","36","1","1011"
"9","9","retrieval","old_object","81","F72.jpg",".","1","36","1","1104"
"9","9","retrieval","old_object","82","F41.jpg",".","1","36","1","1183"
"9","9","retrieval","new_object","83","H54.jpg",".",".","37","1","1002"
"9","9","retrieval","new_object","84","G39.jpg",".",".","37","1","1164"
"9","9","retrieval","new_object","85","H9.jpg",".",".","37","1","896"
"9","9","retrieval","new_object","86","H70.jpg",".",".","37","1","1324"
"9","9","retrieval","old_object","87","E10.jpg",".","3","36","1","982"
"9","9","retrieval","old_object","88","F44.jpg",".","1","36","1","1101"
"9","9","retrieval","old_object","89","F78.jpg",".","1","36","1","1019"
"9","9","retrieval","new_object","90","G36.jpg",".",".","37","1","982"
"9","9","retrieval","new_object","91","G21.jpg",".",".","37","1","849"
"9","9","retrieval","new_object","92","H58.jpg",".",".","37","1","1210"
"9","9","retrieval","old_object","93","E73.jpg",".","3","36","1","1240"
"9","9","retrieval","old_object","94","F8.jpg",".","1","36","1","1044"
"9","9","retrieval","new_object","95","H20.jpg",".",".","37","1","1057"
"9","9","retrieval","old_object","96","F66.jpg",".","1","37","0","952"
"9","9","retrieval","old_object","97","F55.jpg",".","1","37","0","1201"
"9","9","retrieval","old_object","98","E51.jpg",".","3","36","1","1067"
"9","9","retrieval","old_object","99","F9.jpg",".","1","36","1","1205"
"9","9","retrieval","old_object","100","E16.jpg",".","3","36","1","1070"
"9","9","retrieval","new_object","101","H27.jpg",".",".","37","1","1045"
"9","9","retrieval","old_object","102","F60.jpg",".","1","36","1","1011"
"9","9","retrieval","old_object","103","F54.jpg",".","1","36","1","964"
"9","9","retrieval","old_object","104","E69.jpg",".","3","36","1","1114"
"9","9","retrieval","new_object","105","G19.jpg",".",".","37","1","1080"
"9","9","retrieval","old_object","106","F2.jpg",".","1","36","1","1060"
"9","9","retrieval","old_object","107","E42.jpg",".","3","36","1","1349"
"9","9","retrieval","old_object","108","E65.jpg",".","3","36","1","830"
"9","9","retrieval","new_object","109","H64.jpg",".",".","37","1","854"
"9","9","retrieval","old_object","110","F14.jpg",".","1","36","1","1096"
"9","9","retrieval","new_object","111","G26.jpg",".",".","37","1","803"
"9","9","retrieval","old_object","112","F31.jpg",".","1","37","0","974"
"9","9","retrieval","old_object","113","E54.jpg",".","3","36","1","786"
"9","9","retrieval","old_object","114","E15.jpg",".","3","36","1","1264"
"9","9","retrieval","new_object","115","H66.jpg",".",".","37","1","902"
"9","9","retrieval","old_object","116","E3.jpg",".","3","36","1","883"
"9","9","retrieval","old_object","117","E35.jpg",".","3","36","1","886"
"9","9","retrieval","new_object","118","H38.jpg",".",".","37","1","798"
"9","9","retrieval","new_object","119","G77.jpg",".",".","37","1","1072"
"9","9","retrieval","new_object","120","G18.jpg",".",".","37","1","890"
"9","9","retrieval","old_object","121","F36.jpg",".","1","37","0","1163"
"9","9","retrieval","old_object","122","F4.jpg",".","1","36","1","938"
"9","9","retrieval","old_object","123","F77.jpg",".","1","36","1","933"
"9","9","retrieval","old_object","124","F53.jpg",".","1","37","0","1427"
"9","9","retrieval","new_object","125","G35.jpg",".",".","37","1","1060"
"9","9","retrieval","old_object","126","E57.jpg",".","3","36","1","1082"
"9","9","retrieval","new_object","127","G66.jpg",".",".","37","1","1015"
"9","9","retrieval","old_object","128","F1.jpg",".","1","37","0","993"
"9","9","retrieval","old_object","129","F71.jpg",".","1","37","0","872"
"9","9","retrieval","old_object","130","E20.jpg",".","3","36","1","960"
"9","9","retrieval","old_object","131","E60.jpg",".","3","37","0","918"
"9","9","retrieval","old_object","133","E52.jpg",".","3","36","1","905"
"9","9","retrieval","old_object","134","F28.jpg",".","1","37","0","1038"
"9","9","retrieval","old_object","135","E74.jpg",".","3","36","1","1048"
"9","9","retrieval","old_object","136","E29.jpg",".","3","36","1","954"
"9","9","retrieval","old_object","137","F6.jpg",".","1","37","0","1066"
"9","9","retrieval","new_object","138","G28.jpg",".",".","37","1","934"
"9","9","retrieval","old_object","139","F45.jpg",".","1","36","1","1414"
"9","9","retrieval","new_object","140","H34.jpg",".",".","37","1","967"
"9","9","retrieval","old_object","141","E44.jpg",".","3","36","1","902"
"9","9","retrieval","new_object","142","G33.jpg",".",".","37","1","1322"
"9","9","retrieval","new_object","143","H43.jpg",".",".","37","1","1195"
"9","9","retrieval","new_object","144","G49.jpg",".",".","37","1","1244"
"9","9","retrieval","old_object","145","F63.jpg",".","1","36","1","1103"
"9","9","retrieval","new_object","146","G51.jpg",".",".","36","0","1029"
"9","9","retrieval","new_object","147","H61.jpg",".",".","37","1","922"
"9","9","retrieval","old_object","148","E23.jpg",".","3","36","1","769"
"9","9","retrieval","new_object","149","H76.jpg",".",".","37","1","991"
"9","9","retrieval","new_object","150","G61.jpg",".",".","37","1","826"
"9","9","retrieval","old_object","151","E28.jpg",".","3","36","1","814"
"9","9","retrieval","new_object","152","G63.jpg",".",".","37","1","1209"
"9","9","retrieval","new_object","153","G37.jpg",".",".","37","1","1593"
"9","9","retrieval","old_object","154","E46.jpg",".","3","36","1","1059"
"9","9","retrieval","new_object","155","H67.jpg",".",".","37","1","867"
"9","9","retrieval","new_object","156","G45.jpg",".",".","37","1","1258"
"9","9","retrieval","new_object","157","H42.jpg",".",".","37","1","1052"
"9","9","retrieval","new_object","158","H74.jpg",".",".","37","1","809"
"9","9","retrieval","old_object","159","F35.jpg",".","1","37","0","994"
"9","9","retrieval","old_object","160","F52.jpg",".","1","36","1","935"
"9","9","retrieval","old_object","161","F62.jpg",".","1","36","1","1020"
"9","9","retrieval","old_object","162","E71.jpg",".","3","36","1","935"
"9","9","retrieval","new_object","163","H57.jpg",".",".","37","1","935"
"9","9","retrieval","old_object","164","E26.jpg",".","3","36","1","906"
"9","9","retrieval","new_object","165","G5.jpg",".",".","37","1","1252"
"9","9","retrieval","old_object","166","E61.jpg",".","3","36","1","1082"
"9","9","retrieval","new_object","167","H50.jpg",".",".","37","1","965"
"9","9","retrieval","old_object","168","E6.jpg",".","3","36","1","997"
"9","9","retrieval","new_object","169","G11.jpg",".",".","37","1","1163"
"9","9","retrieval","new_object","170","G1.jpg",".",".","37","1","953"
"9","9","retrieval","new_object","171","G56.jpg",".",".","37","1","1114"
"9","9","retrieval","new_object","172","G27.jpg",".",".","37","1","1186"
"9","9","retrieval","new_object","173","G6.jpg",".",".","37","1","815"
"9","9","retrieval","old_object","174","E53.jpg",".","3","36","1","960"
"9","9","retrieval","old_object","175","E40.jpg",".","3","36","1","1092"
"9","9","retrieval","old_object","176","F3.jpg",".","1","36","1","989"
"9","9","retrieval","old_object","177","E2.jpg",".","3","36","1","797"
"9","9","retrieval","old_object","178","F12.jpg",".","1","37","0","950"
"9","9","retrieval","old_object","179","E36.jpg",".","3","36","1","883"
"9","9","retrieval","old_object","180","E49.jpg",".","3","36","1","858"
"9","9","retrieval","new_object","181","G0.jpg",".",".","37","1","934"
"9","9","retrieval","new_object","182","H16.jpg",".",".","37","1","966"
"9","9","retrieval","new_object","183","H1.jpg",".",".","37","1","740"
"9","9","retrieval","new_object","184","H31.jpg",".",".","37","1","890"
"9","9","retrieval","new_object","185","H36.jpg",".",".","37","1","703"
"9","9","retrieval","old_object","186","E27.jpg",".","3","36","1","768"
"9","9","retrieval","new_object","187","G22.jpg",".",".","37","1","794"
"9","9","retrieval","new_object","188","H19.jpg",".",".","37","1","1157"
"9","9","retrieval","new_object","189","H49.jpg",".",".","37","1","1195"
"9","9","retrieval","old_object","190","F27.jpg",".","1","37","0","1075"
"9","9","retrieval","new_object","191","H3.jpg",".",".","37","1","910"
"9","9","retrieval","new_object","192","H5.jpg",".",".","37","1","773"
"9","9","retrieval","old_object","193","F29.jpg",".","1","37","0","1004"
"9","9","retrieval","old_object","194","E47.jpg",".","3","36","1","1069"
"9","9","retrieval","new_object","195","G38.jpg",".",".","37","1","801"
"9","9","retrieval","old_object","196","F17.jpg",".","1","37","0","1117"
"9","9","retrieval","new_object","197","H4.jpg",".",".","37","1","1022"
"9","9","retrieval","old_object","199","E79.jpg",".","3","36","1","940"
"9","9","retrieval","new_object","200","H23.jpg",".",".","37","1","900"
"9","9","retrieval","new_object","201","H53.jpg",".",".","37","1","1075"
"9","9","retrieval","new_object","202","H47.jpg",".",".","36","0","1500"
"9","9","retrieval","new_object","203","G29.jpg",".",".","37","1","993"
"9","9","retrieval","new_object","204","G44.jpg",".",".","37","1","1172"
"9","9","retrieval","new_object","205","G64.jpg",".",".","37","1","1110"
"9","9","retrieval","new_object","206","G12.jpg",".",".","37","1","814"
"9","9","retrieval","old_object","207","E5.jpg",".","3","36","1","884"
"9","9","retrieval","old_object","208","F20.jpg",".","1","36","1","1073"
"9","9","retrieval","new_object","209","G69.jpg",".",".","37","1","1104"
"9","9","retrieval","new_object","210","H73.jpg",".",".","37","1","915"
"9","9","retrieval","new_object","211","G59.jpg",".",".","37","1","785"
"9","9","retrieval","old_object","212","F43.jpg",".","1","37","0","918"
"9","9","retrieval","new_object","213","H11.jpg",".",".","37","1","720"
"9","9","retrieval","new_object","214","H62.jpg",".",".","37","1","762"
"9","9","retrieval","old_object","215","F0.jpg",".","1","37","0","867"
"9","9","retrieval","old_object","216","E12.jpg",".","3","36","1","1337"
"9","9","retrieval","old_object","217","F76.jpg",".","1","36","1","1345"
"9","9","retrieval","old_object","218","E70.jpg",".","3","36","1","963"
"9","9","retrieval","new_object","219","H12.jpg",".",".","37","1","794"
"9","9","retrieval","new_object","220","H71.jpg",".",".","37","1","971"
"9","9","retrieval","new_object","221","G65.jpg",".",".","37","1","1234"
"9","9","retrieval","old_object","222","E19.jpg",".","3","36","1","1144"
"9","9","retrieval","new_object","223","H21.jpg",".",".","37","1","976"
"9","9","retrieval","old_object","224","E59.jpg",".","3","36","1","1224"
"9","9","retrieval","new_object","225","H0.jpg",".",".","37","1","842"
"9","9","retrieval","old_object","226","F39.jpg",".","1","36","1","1000"
"9","9","retrieval","old_object","227","E25.jpg",".","3","37","0","887"
"9","9","retrieval","new_object","228","H51.jpg",".",".","37","1","753"
"9","9","retrieval","old_object","229","E38.jpg",".","3","37","0","1740"
"9","9","retrieval","new_object","230","H28.jpg",".",".","37","1","1403"
"9","9","retrieval","new_object","231","H78.jpg",".",".","37","1","1511"
"9","9","retrieval","old_object","232","F47.jpg",".","1","37","0","1085"
"9","9","retrieval","new_object","233","G55.jpg",".",".","37","1","773"
"9","9","retrieval","old_object","234","E45.jpg",".","3","36","1","1036"
"9","9","retrieval","new_object","235","H30.jpg",".",".","37","1","894"
"9","9","retrieval","old_object","236","E24.jpg",".","3","37","0","1415"
"9","9","retrieval","new_object","237","G14.jpg",".",".","37","1","924"
"9","9","retrieval","old_object","238","E48.jpg",".","3","36","1","998"
"9","9","retrieval","old_object","239","E67.jpg",".","3","36","1","977"
"9","9","retrieval","old_object","240","F24.jpg",".","1","36","1","1106"
"9","9","retrieval","new_object","241","G54.jpg",".",".","37","1","1226"
"9","9","retrieval","new_object","242","G23.jpg",".",".","37","1","1143"
"9","9","retrieval","new_object","243","H10.jpg",".",".","37","1","1034"
"9","9","retrieval","old_object","244","F33.jpg",".","1","37","0","992"
"9","9","retrieval","old_object","245","E68.jpg",".","3","37","0","1278"
"9","9","retrieval","new_object","246","G48.jpg",".",".","37","1","1675"
"9","9","retrieval","new_object","247","H6.jpg",".",".","37","1","1288"
"9","9","retrieval","new_object","248","G53.jpg",".",".","37","1","1371"
"9","9","retrieval","new_object","249","H44.jpg",".",".","37","1","986"
"9","9","retrieval","new_object","250","H75.jpg",".",".","37","1","713"
"9","9","retrieval","old_object","251","F56.jpg",".","1","36","1","908"
"9","9","retrieval","old_object","252","F48.jpg",".","1","37","0","1339"
"9","9","retrieval","new_object","253","G60.jpg",".",".","37","1","1400"
"9","9","retrieval","old_object","254","F23.jpg",".","1","37","0","1426"
"9","9","retrieval","new_object","255","H35.jpg",".",".","37","1","1324"
"9","9","retrieval","old_object","256","E76.jpg",".","3","36","1","1022"
"9","9","retrieval","old_object","257","E9.jpg",".","3","36","1","979"
"9","9","retrieval","old_object","258","E18.jpg",".","3","36","1","1183"
"9","9","retrieval","new_object","259","G74.jpg",".",".","37","1","1151"
"9","9","retrieval","old_object","260","E17.jpg",".","3","36","1","822"
"9","9","retrieval","old_object","261","E55.jpg",".","3","36","1","990"
"9","9","retrieval","old_object","262","E32.jpg",".","3","36","1","796"
"9","9","retrieval","new_object","263","H39.jpg",".",".","37","1","1455"
"9","9","retrieval","new_object","265","G8.jpg",".",".","37","1","1533"
"9","9","retrieval","new_object","266","G46.jpg",".",".","37","1","946"
"9","9","retrieval","old_object","267","F75.jpg",".","1","36","1","1151"
"9","9","retrieval","old_object","268","F59.jpg",".","1","36","1","878"
"9","9","retrieval","old_object","269","F26.jpg",".","1","36","1","829"
"9","9","retrieval","new_object","270","G42.jpg",".",".","37","1","949"
"9","9","retrieval","new_object","271","H29.jpg",".",".","36","0","1202"
"9","9","retrieval","new_object","272","H72.jpg",".",".","36","0","985"
"9","9","retrieval","new_object","273","G71.jpg",".",".","37","1","1331"
"9","9","retrieval","new_object","274","G15.jpg",".",".","37","1","1003"
"9","9","retrieval","new_object","275","G78.jpg",".",".","37","1","888"
"9","9","retrieval","old_object","276","F7.jpg",".","1","36","1","1571"
"9","9","retrieval","old_object","277","E7.jpg",".","3","36","1","909"
"9","9","retrieval","new_object","278","H26.jpg",".",".","37","1","790"
"9","9","retrieval","new_object","279","H69.jpg",".",".","37","1","1058"
"9","9","retrieval","new_object","280","H63.jpg",".",".","37","1","1217"
"9","9","retrieval","old_object","281","F21.jpg",".","1","36","1","1256"
"9","9","retrieval","new_object","282","H77.jpg",".",".","37","1","1018"
"9","9","retrieval","old_object","283","F61.jpg",".","1","36","1","901"
"9","9","retrieval","new_object","284","G58.jpg",".",".","37","1","1191"
"9","9","retrieval","new_object","285","G40.jpg",".",".","37","1","981"
"9","9","retrieval","new_object","286","H18.jpg",".",".","37","1","1090"
"9","9","retrieval","new_object","287","H8.jpg",".",".","37","1","1127"
"9","9","retrieval","old_object","288","F42.jpg",".","1","36","1","897"
"9","9","retrieval","new_object","289","H22.jpg",".",".","37","1","1029"
"9","9","retrieval","old_object","290","E31.jpg",".","3","36","1","860"
"9","9","retrieval","new_object","291","H33.jpg",".",".","37","1","821"
"9","9","retrieval","new_object","292","H68.jpg",".",".","37","1","1040"
"9","9","retrieval","new_object","293","H46.jpg",".",".","37","1","1165"
"9","9","retrieval","new_object","294","H60.jpg",".",".","37","1","1133"
"9","9","retrieval","new_object","295","G32.jpg",".",".","37","1","900"
"9","9","retrieval","new_object","296","G9.jpg",".",".","36","0","1200"
"9","9","retrieval","old_object","297","E75.jpg",".","3","36","1","692"
"9","9","retrieval","new_object","298","G10.jpg",".",".","37","1","930"
"9","9","retrieval","old_object","299","F18.jpg",".","1","37","0","1142"
"9","9","retrieval","new_object","300","G24.jpg",".",".","37","1","902"
"9","9","retrieval","old_object","301","E72.jpg",".","3","36","1","770"
"9","9","retrieval","old_object","302","E56.jpg",".","3","36","1","754"
"9","9","retrieval","new_object","303","G68.jpg",".",".","37","1","1188"
"9","9","retrieval","old_object","304","F30.jpg",".","1","37","0","1285"
"9","9","retrieval","new_object","305","H40.jpg",".",".","37","1","1593"
"9","9","retrieval","old_object","306","F11.jpg",".","1","37","0","957"
"9","9","retrieval","old_object","307","F25.jpg",".","1","37","0","773"
"9","9","retrieval","old_object","308","E62.jpg",".","3","36","1","827"
"9","9","retrieval","old_object","309","E0.jpg",".","3","36","1","1147"
"9","9","retrieval","old_object","310","E8.jpg",".","3","36","1","701"
"9","9","retrieval","old_object","311","F64.jpg",".","1","37","0","942"
"9","9","retrieval","new_object","312","H32.jpg",".",".","37","1","710"
"9","9","retrieval","old_object","313","F38.jpg",".","1","36","1","1021"
"9","9","retrieval","new_object","314","G50.jpg",".",".","37","1","1359"
"9","9","retrieval","new_object","315","H55.jpg",".",".","37","1","1009"
"9","9","retrieval","new_object","316","H24.jpg",".",".","37","1","909"
"9","9","retrieval","new_object","317","G75.jpg",".",".","37","1","1281"
"9","9","retrieval","new_object","318","G4.jpg",".",".","37","1","999"
"9","9","retrieval","new_object","319","G70.jpg",".",".","37","1","964"
"9","9","retrieval","old_object","320","E11.jpg",".","3","36","1","783"
"9","9","retrieval","old_object","321","F22.jpg",".","1","36","1","975"
"9","9","retrieval","old_object","322","F16.jpg",".","1","36","1","1191"
"9","9","retrieval","new_object","323","H13.jpg",".",".","36","0","1165"
"9","9","retrieval","new_object","324","H7.jpg",".",".","37","1","821"
"9","9","retrieval","old_object","325","E64.jpg",".","","37","0","1007"
"9","9","demographics_block","gender","1",".",".",".","male","1","26911"
"9","9","demographics_block","age","1",".",".",".","54","1","26911"
"9","9","demographics_block","education","1",".",".",".","19","1","26911"
"9","9","demographics_block","left_right_handed","2",".",".",".","Right","1","11128"
"9","9","demographics_block","raceoption1","2",".",".",".","0","1","11128"
"9","9","demographics_block","raceoption2","2",".",".",".","","1","11128"
"9","9","demographics_block","raceoption3","2",".",".",".","","1","11128"
"9","9","demographics_block","raceoption4","2",".",".",".","","1","11128"
"9","9","demographics_block","raceoption5","2",".",".",".","","1","11128"
"9","9","demographics_block","raceoption6","2",".",".",".","","1","11128"
"9","9","demographics_block","raceoption7","2",".",".",".","","1","11128"
"9","9","demographics_block","raceoption8","2",".",".",".","","1","11128"
"9","9","demographics_block","raceoption9","2",".",".",".","","1","11128"
"9","9","demographics_block","raceother","2",".",".",".","","1","11128"
"9","9","demographics_block","raceother","2",".",".",".","","1","11128"
"9","9","demographics_block","english_language","2",".",".",".","Yes","1","11128"
"9","9","demographics_block","other","2",".",".",".","","1","11128"
"9","9","demographics_block","eyesight","3",".",".",".","Yes","1","5830"
"9","9","demographics_block","colorblind","3",".",".",".","No","1","5830"
"11","11","encoding","encoding","1","E65.jpg","3",".","37","0","691"
"11","11","encoding","encoding","2","E18.jpg","3",".","37","0","654"
"11","11","encoding","encoding","3","F20.jpg","1",".","37","0","672"
"11","11","encoding","encoding","4","E54.jpg","3",".","37","0","531"
"11","11","encoding","encoding","5","E58.jpg","3",".","37","0","670"
"11","11","encoding","encoding","6","E18.jpg","3",".","37","0","617"
"11","11","encoding","encoding","7","E49.jpg","3",".","37","0","804"
"11","11","encoding","encoding","8","F68.jpg","1",".","37","0","638"
"11","11","encoding","encoding","9","E35.jpg","3",".","37","0","689"
"11","11","encoding","encoding","10","F41.jpg","1",".","37","0","524"
"11","11","encoding","encoding","11","E28.jpg","3",".","37","0","543"
"11","11","encoding","encoding","12","E16.jpg","3",".","37","0","569"
"11","11","encoding","encoding","13","E78.jpg","3",".","37","0","564"
"11","11","encoding","encoding","14","F16.jpg","1",".","36","0","503"
"11","11","encoding","encoding","15","E32.jpg","3",".","36","0","458"
"11","11","encoding","encoding","16","F28.jpg","1",".","37","0","565"
"11","11","encoding","encoding","17","E40.jpg","3",".","37","0","559"
"11","11","encoding","encoding","18","E45.jpg","3",".","37","0","594"
"11","11","encoding","encoding","19","E44.jpg","3",".","37","0","453"
"11","11","encoding","encoding","20","E3.jpg","3",".","37","0","512"
"11","11","encoding","encoding","21","E63.jpg","3",".","37","0","523"
"11","11","encoding","encoding","22","E55.jpg","3",".","37","0","525"
"11","11","encoding","encoding","23","E20.jpg","3",".","37","0","544"
"11","11","encoding","encoding","24","F4.jpg","1",".","37","0","516"
"11","11","encoding","encoding","25","E60.jpg","3",".","37","0","558"
"11","11","encoding","encoding","26","E1.jpg","3",".","37","0","536"
"11","11","encoding","encoding","27","F58.jpg","1",".","37","0","435"
"11","11","encoding","encoding","28","E70.jpg","3",".","37","0","478"
"11","11","encoding","encoding","29","E33.jpg","3",".","37","0","489"
"11","11","encoding","encoding","30","E37.jpg","3",".","37","0","571"
"11","11","encoding","encoding","31","E8.jpg","3",".","37","0","710"
"11","11","encoding","encoding","32","E32.jpg","3",".","36","0","561"
"11","11","encoding","encoding","33","E77.jpg","3",".","37","0","596"
"11","11","encoding","encoding","34","E42.jpg","3",".","37","0","823"
"11","11","encoding","encoding","35","E67.jpg","3",".","0","0","1000"
"11","11","encoding","encoding","36","F48.jpg","1",".","37","0","620"
"11","11","encoding","encoding","37","E51.jpg","3",".","37","0","495"
"11","11","encoding","encoding","38","E30.jpg","3",".","37","0","354"
"11","11","encoding","encoding","39","F2.jpg","1",".","37","0","446"
"11","11","encoding","encoding","40","F77.jpg","1",".","37","0","431"
"11","11","encoding","encoding","41","E28.jpg","3",".","37","0","410"
"11","11","encoding","encoding","42","E10.jpg","3",".","37","0","469"
"11","11","encoding","encoding","43","E41.jpg","3",".","37","0","408"
"11","11","encoding","encoding","44","E28.jpg","3",".","37","0","355"
"11","11","encoding","encoding","45","E22.jpg","3",".","37","0","429"
"11","11","encoding","encoding","46","F43.jpg","1",".","37","0","440"
"11","11","encoding","encoding","47","F9.jpg","1",".","37","0","443"
"11","11","encoding","encoding","48","E29.jpg","3",".","37","0","470"
"11","11","encoding","encoding","49","F0.jpg","1",".","37","0","576"
"11","11","encoding","encoding","50","E18.jpg","3",".","37","0","515"
"11","11","encoding","encoding","51","E43.jpg","3",".","37","0","438"
"11","11","encoding","encoding","52","E23.jpg","3",".","37","0","409"
"11","11","encoding","encoding","53","E44.jpg","3",".","37","0","404"
"11","11","encoding","encoding","54","F44.jpg","1",".","37","0","574"
"11","11","encoding","encoding","55","F42.jpg","1",".","37","0","489"
"11","11","encoding","encoding","56","E48.jpg","3",".","37","0","461"
"11","11","encoding","encoding","57","E36.jpg","3",".","37","0","527"
"11","11","encoding","encoding","58","E27.jpg","3",".","37","0","545"
"11","11","encoding","encoding","59","F75.jpg","1",".","37","0","652"
"11","11","encoding","encoding","60","E77.jpg","3",".","37","0","431"
"11","11","encoding","encoding","61","F47.jpg","1",".","37","0","450"
"11","11","encoding","encoding","62","E14.jpg","3",".","37","0","517"
"11","11","encoding","encoding","63","E31.jpg","3",".","37","0","671"
"11","11","encoding","encoding","64","E57.jpg","3",".","37","0","506"
"11","11","encoding","encoding","65","E30.jpg","3",".","37","0","405"
"11","11","encoding","encoding","67","E73.jpg","3",".","37","0","820"
"11","11","encoding","encoding","68","E62.jpg","3",".","37","0","655"
"11","11","encoding","encoding","69","E34.jpg","3",".","37","0","538"
"11","11","encoding","encoding","70","E29.jpg","3",".","37","0","469"
"11","11","encoding","encoding","71","F25.jpg","1",".","37","0","375"
"11","11","encoding","encoding","72","E2.jpg","3",".","37","0","434"
"11","11","encoding","encoding","73","E0.jpg","3",".","37","0","365"
"11","11","encoding","encoding","74","F29.jpg","1",".","37","0","424"
"11","11","encoding","encoding","75","E57.jpg","3",".","37","0","379"
"11","11","encoding","encoding","76","E23.jpg","3",".","37","0","445"
"11","11","encoding","encoding","77","F37.jpg","1",".","37","0","392"
"11","11","encoding","encoding","78","E17.jpg","3",".","37","0","411"
"11","11","encoding","encoding","79","F60.jpg","1",".","37","0","366"
"11","11","encoding","encoding","80","E39.jpg","3",".","37","0","464"
"11","11","encoding","encoding","81","F32.jpg","1",".","37","0","419"
"11","11","encoding","encoding","82","E34.jpg","3",".","37","0","686"
"11","11","encoding","encoding","83","E39.jpg","3",".","37","0","465"
"11","11","encoding","encoding","84","F7.jpg","1",".","37","0","444"
"11","11","encoding","encoding","85","E49.jpg","3",".","37","0","598"
"11","11","encoding","encoding","86","E66.jpg","3",".","37","0","505"
"11","11","encoding","encoding","87","F10.jpg","1",".","37","0","556"
"11","11","encoding","encoding","88","F21.jpg","1",".","37","0","559"
"11","11","encoding","encoding","89","E15.jpg","3",".","37","0","505"
"11","11","encoding","encoding","90","E6.jpg","3",".","37","0","412"
"11","11","encoding","encoding","91","E9.jpg","3",".","37","0","615"
"11","11","encoding","encoding","92","E36.jpg","3",".","37","0","714"
"11","11","encoding","encoding","93","F38.jpg","1",".","37","0","645"
"11","11","encoding","encoding","94","E24.jpg","3",".","37","0","511"
"11","11","encoding","encoding","95","F11.jpg","1",".","37","0","370"
"11","11","encoding","encoding","96","E5.jpg","3",".","36","0","453"
"11","11","encoding","encoding","97","E30.jpg","3",".","37","0","440"
"11","11","encoding","encoding","98","E58.jpg","3",".","37","0","354"
"11","11","encoding","encoding","99","F5.jpg","1",".","37","0","557"
"11","11","encoding","encoding","100","E1.jpg","3",".","37","0","416"
"11","11","encoding","encoding","101","E68.jpg","3",".","37","0","323"
"11","11","encoding","encoding","102","E0.jpg","3",".","37","0","390"
"11","11","encoding","encoding","103","E71.jpg","3",".","37","0","344"
"11","11","encoding","encoding","104","E4.jpg","3",".","37","0","403"
"11","11","encoding","encoding","105","E25.jpg","3",".","37","0","446"
"11","11","encoding","encoding","106","F49.jpg","1",".","37","0","417"
"11","11","encoding","encoding","107","E2.jpg","3",".","37","0","548"
"11","11","encoding","encoding","108","E35.jpg","3",".","37","0","350"
"11","11","encoding","encoding","109","E36.jpg","3",".","37","0","401"
"11","11","encoding","encoding","110","E53.jpg","3",".","36","0","532"
"11","11","encoding","encoding","111","E51.jpg","3",".","37","0","440"
"11","11","encoding","encoding","112","E77.jpg","3",".","37","0","369"
"11","11","encoding","encoding","113","E19.jpg","3",".","37","0","436"
"11","11","encoding","encoding","114","F62.jpg","1",".","37","0","391"
"11","11","encoding","encoding","115","E29.jpg","3",".","37","0","458"
"11","11","encoding","encoding","116","F40.jpg","1",".","37","0","421"
"11","11","encoding","encoding","117","E15.jpg","3",".","37","0","375"
"11","11","encoding","encoding","118","E27.jpg","3",".","36","0","514"
"11","11","encoding","encoding","119","E72.jpg","3",".","37","0","477"
"11","11","encoding","encoding","120","E47.jpg","3",".","37","0","456"
"11","11","encoding","encoding","121","E20.jpg","3",".","37","0","418"
"11","11","encoding","encoding","122","E42.jpg","3",".","37","0","397"
"11","11","encoding","encoding","123","E8.jpg","3",".","37","0","464"
"11","11","encoding","encoding","124","E14.jpg","3",".","37","0","491"
"11","11","encoding","encoding","125","F30.jpg","1",".","37","0","422"
"11","11","encoding","encoding","126","E74.jpg","3",".","37","0","304"
"11","11","encoding","encoding","127","F23.jpg","1",".","37","0","371"
"11","11","encoding","encoding","128","F63.jpg","1",".","37","0","518"
"11","11","encoding","encoding","129","E37.jpg","3",".","37","0","497"
"11","11","encoding","encoding","130","E7.jpg","3",".","36","0","539"
"11","11","encoding","encoding","131","E38.jpg","3",".","37","0","558"
"11","11","encoding","encoding","133","E78.jpg","3",".","37","0","530"
"11","11","encoding","encoding","134","E11.jpg","3",".","37","0","501"
"11","11","encoding","encoding","135","E5.jpg","3",".","36","0","544"
"11","11","encoding","encoding","136","E23.jpg","3",".","37","0","562"
"11","11","encoding","encoding","137","E32.jpg","3",".","36","0","477"
"11","11","encoding","encoding","138","E65.jpg","3",".","37","0","416"
"11","11","encoding","encoding","139","F69.jpg","1",".","37","0","587"
"11","11","encoding","encoding","140","E38.jpg","3",".","37","0","486"
"11","11","encoding","encoding","141","E71.jpg","3",".","37","0","336"
"11","11","encoding","encoding","142","E64.jpg","3",".","37","0","419"
"11","11","encoding","encoding","143","E9.jpg","3",".","37","0","406"
"11","11","encoding","encoding","144","F18.jpg","1",".","37","0","360"
"11","11","encoding","encoding","145","F59.jpg","1",".","37","0","411"
"11","11","encoding","encoding","146","E75.jpg","3",".","37","0","414"
"11","11","encoding","encoding","147","F13.jpg","1",".","37","0","553"
"11","11","encoding","encoding","148","E69.jpg","3",".","37","0","868"
"11","11","encoding","encoding","149","E24.jpg","3",".","37","0","559"
"11","11","encoding","encoding","150","E33.jpg","3",".","37","0","385"
"11","11","encoding","encoding","151","E56.jpg","3",".","37","0","372"
"11","11","encoding","encoding","152","E67.jpg","3",".","37","0","447"
"11","11","encoding","encoding","153","E25.jpg","3",".","37","0","386"
"11","11","encoding","encoding","154","E41.jpg","3",".","37","0","420"
"11","11","encoding","encoding","155","F27.jpg","1",".","37","0","399"
"11","11","encoding","encoding","156","F33.jpg","1",".","37","0","418"
"11","11","encoding","encoding","157","F15.jpg","1",".","37","0","469"
"11","11","encoding","encoding","158","F39.jpg","1",".","37","0","447"
"11","11","encoding","encoding","159","E46.jpg","3",".","37","0","498"
"11","11","encoding","encoding","160","E26.jpg","3",".","37","0","405"
"11","11","encoding","encoding","161","E40.jpg","3",".","37","0","384"
"11","11","encoding","encoding","162","E27.jpg","3",".","36","0","507"
"11","11","encoding","encoding","163","E72.jpg","3",".","36","0","549"
"11","11","encoding","encoding","164","F57.jpg","1",".","37","0","496"
"11","11","encoding","encoding","165","E6.jpg","3",".","37","0","403"
"11","11","encoding","encoding","166","E62.jpg","3",".","37","0","382"
"11","11","encoding","encoding","167","E31.jpg","3",".","37","0","585"
"11","11","encoding","encoding","168","F71.jpg","1",".","37","0","387"
"11","11","encoding","encoding","169","E52.jpg","3",".","36","0","494"
"11","11","encoding","encoding","170","E10.jpg","3",".","37","0","497"
"11","11","encoding","encoding","171","E66.jpg","3",".","36","0","508"
"11","11","encoding","encoding","172","E12.jpg","3",".","37","0","406"
"11","11","encoding","encoding","173","E55.jpg","3",".","37","0","465"
"11","11","encoding","encoding","174","E50.jpg","3",".","37","0","428"
"11","11","encoding","encoding","175","E11.jpg","3",".","37","0","495"
"11","11","encoding","encoding","176","F74.jpg","1",".","37","0","433"
"11","11","encoding","encoding","177","E3.jpg","3",".","37","0","508"
"11","11","encoding","encoding","178","E47.jpg","3",".","37","0","311"
"11","11","encoding","encoding","179","E21.jpg","3",".","37","0","210"
"11","11","encoding","encoding","180","E17.jpg","3",".","37","0","365"
"11","11","encoding","encoding","181","F50.jpg","1",".","37","0","343"
"11","11","encoding","encoding","182","E26.jpg","3",".","37","0","418"
"11","11","encoding","encoding","183","E66.jpg","3",".","36","0","437"
"11","11","encoding","encoding","184","F61.jpg","1",".","37","0","632"
"11","11","encoding","encoding","185","E20.jpg","3",".","37","0","459"
"11","11","encoding","encoding","186","E79.jpg","3",".","36","0","597"
"11","11","encoding","encoding","187","F51.jpg","1",".","37","0","736"
"11","11","encoding","encoding","188","E19.jpg","3",".","0","0","1000"
"11","11","encoding","encoding","189","E75.jpg","3",".","36","0","542"
"11","11","encoding","encoding","190","E59.jpg","3",".","37","0","440"
"11","11","encoding","encoding","191","E26.jpg","3",".","37","0","595"
"11","11","encoding","encoding","192","E6.jpg","3",".","37","0","358"
"11","11","encoding","encoding","193","E51.jpg","3",".","37","0","345"
"11","11","encoding","encoding","194","E61.jpg","3",".","37","0","396"
"11","11","encoding","encoding","195","E14.jpg","3",".","37","0","510"
"11","11","encoding","encoding","196","E78.jpg","3",".","37","0","425"
"11","11","encoding","encoding","197","F55.jpg","1",".","37","0","420"
"11","11","encoding","encoding","199","E16.jpg","3",".","37","0","525"
"11","11","encoding","encoding","200","E62.jpg","3",".","37","0","400"
"11","11","encoding","encoding","201","F78.jpg","1",".","37","0","411"
"11","11","encoding","encoding","202","E3.jpg","3",".","37","0","358"
"11","11","encoding","encoding","203","F24.jpg","1",".","37","0","312"
"11","11","encoding","encoding","204","E22.jpg","3",".","37","0","443"
"11","11","encoding","encoding","205","E33.jpg","3",".","37","0","398"
"11","11","encoding","encoding","206","E13.jpg","3",".","37","0","401"
"11","11","encoding","encoding","207","F52.jpg","1",".","37","0","420"
"11","11","encoding","encoding","208","E35.jpg","3",".","37","0","374"
"11","11","encoding","encoding","209","E21.jpg","3",".","37","0","409"
"11","11","encoding","encoding","210","F73.jpg","1",".","37","0","420"
"11","11","encoding","encoding","211","E5.jpg","3",".","36","0","495"
"11","11","encoding","encoding","212","F56.jpg","1",".","37","0","482"
"11","11","encoding","encoding","213","E67.jpg","3",".","37","0","492"
"11","11","encoding","encoding","214","F3.jpg","1",".","37","0","431"
"11","11","encoding","encoding","215","E9.jpg","3",".","37","0","378"
"11","11","encoding","encoding","216","E49.jpg","3",".","37","0","461"
"11","11","encoding","encoding","217","E21.jpg","3",".","37","0","415"
"11","11","encoding","encoding","218","E63.jpg","3",".","37","0","434"
"11","11","encoding","encoding","219","E79.jpg","3",".","36","0","749"
"11","11","encoding","encoding","220","E2.jpg","3",".","37","0","496"
"11","11","encoding","encoding","221","E79.jpg","3",".","36","0","459"
"11","11","encoding","encoding","222","E65.jpg","3",".","37","0","581"
"11","11","encoding","encoding","223","E54.jpg","3",".","37","0","432"
"11","11","encoding","encoding","224","E53.jpg","3",".","36","0","563"
"11","11","encoding","encoding","225","E12.jpg","3",".","37","0","622"
"11","11","encoding","encoding","226","E13.jpg","3",".","36","0","552"
"11","11","encoding","encoding","227","F31.jpg","1",".","37","0","419"
"11","11","encoding","encoding","228","E57.jpg","3",".","37","0","430"
"11","11","encoding","encoding","229","E70.jpg","3",".","36","0","569"
"11","11","encoding","encoding","230","F53.jpg","1",".","37","0","340"
"11","11","encoding","encoding","231","E61.jpg","3",".","37","0","430"
"11","11","encoding","encoding","232","E55.jpg","3",".","37","0","457"
"11","11","encoding","encoding","233","E52.jpg","3",".","36","0","508"
"11","11","encoding","encoding","234","E74.jpg","3",".","37","0","503"
"11","11","encoding","encoding","235","E56.jpg","3",".","37","0","393"
"11","11","encoding","encoding","236","E34.jpg","3",".","37","0","436"
"11","11","encoding","encoding","237","E52.jpg","3",".","37","0","359"
"11","11","encoding","encoding","238","E46.jpg","3",".","37","0","426"
"11","11","encoding","encoding","239","E15.jpg","3",".","37","0","565"
"11","11","encoding","encoding","240","E47.jpg","3",".","37","0","367"
"11","11","encoding","encoding","241","E1.jpg","3",".","37","0","402"
"11","11","encoding","encoding","242","F65.jpg","1",".","37","0","381"
"11","11","encoding","encoding","243","F12.jpg","1",".","37","0","392"
"11","11","encoding","encoding","244","F6.jpg","1",".","37","0","403"
"11","11","encoding","encoding","245","F22.jpg","1",".","37","0","397"
"11","11","encoding","encoding","246","E75.jpg","3",".","36","0","512"
"11","11","encoding","encoding","247","E73.jpg","3",".","37","0","387"
"11","11","encoding","encoding","248","E43.jpg","3",".","37","0","374"
"11","11","encoding","encoding","249","E59.jpg","3",".","37","0","400"
"11","11","encoding","encoding","250","E16.jpg","3",".","37","0","403"
"11","11","encoding","encoding","251","E4.jpg","3",".","37","0","446"
"11","11","encoding","encoding","252","F76.jpg","1",".","37","0","473"
"11","11","encoding","encoding","253","F54.jpg","1",".","37","0","724"
"11","11","encoding","encoding","254","F45.jpg","1",".","37","0","494"
"11","11","encoding","encoding","255","F46.jpg","1",".","0","0","1000"
"11","11","encoding","encoding","256","E0.jpg","3",".","37","0","644"
"11","11","encoding","encoding","257","E71.jpg","3",".","37","0","543"
"11","11","encoding","encoding","258","F8.jpg","1",".","37","0","593"
"11","11","encoding","encoding","259","E38.jpg","3",".","37","0","508"
"11","11","encoding","encoding","260","E64.jpg","3",".","37","0","447"
"11","11","encoding","encoding","261","F1.jpg","1",".","37","0","434"
"11","11","encoding","encoding","262","E76.jpg","3",".","37","0","565"
"11","11","encoding","encoding","263","F67.jpg","1",".","37","0","479"
"11","11","encoding","encoding","265","E8.jpg","3",".","37","0","454"
"11","11","encoding","encoding","266","E44.jpg","3",".","37","0","369"
"11","11","encoding","encoding","267","E7.jpg","3",".","36","0","580"
"11","11","encoding","encoding","268","E68.jpg","3",".","36","0","654"
"11","11","encoding","encoding","269","E48.jpg","3",".","37","0","473"
"11","11","encoding","encoding","270","E58.jpg","3",".","37","0","412"
"11","11","encoding","encoding","271","F26.jpg","1",".","37","0","439"
"11","11","encoding","encoding","272","E7.jpg","3",".","36","0","570"
"11","11","encoding","encoding","273","F19.jpg","1",".","0","0","1000"
"11","11","encoding","encoding","274","E69.jpg","3",".","37","0","615"
"11","11","encoding","encoding","275","E43.jpg","3",".","37","0","938"
"11","11","encoding","encoding","276","E42.jpg","3",".","37","0","517"
"11","11","encoding","encoding","277","E59.jpg","3",".","37","0","384"
"11","11","encoding","encoding","278","E31.jpg","3",".","37","0","458"
"11","11","encoding","encoding","279","E74.jpg","3",".","37","0","357"
"11","11","encoding","encoding","280","F35.jpg","1",".","37","0","376"
"11","11","encoding","encoding","281","E13.jpg","3",".","36","0","539"
"11","11","encoding","encoding","282","F34.jpg","1",".","37","0","397"
"11","11","encoding","encoding","283","E70.jpg","3",".","37","0","640"
"11","11","encoding","encoding","284","F36.jpg","1",".","37","0","555"
"11","11","encoding","encoding","285","E4.jpg","3",".","37","0","406"
"11","11","encoding","encoding","286","E64.jpg","3",".","37","0","817"
"11","11","encoding","encoding","287","F70.jpg","1",".","0","0","1000"
"11","11","encoding","encoding","288","E12.jpg","3",".","37","0","430"
"11","11","encoding","encoding","289","E68.jpg","3",".","36","0","665"
"11","11","encoding","encoding","290","E41.jpg","3",".","37","0","428"
"11","11","encoding","encoding","291","E11.jpg","3",".","37","0","415"
"11","11","encoding","encoding","292","E56.jpg","3",".","37","0","505"
"11","11","encoding","encoding","293","E53.jpg","3",".","36","0","492"
"11","11","encoding","encoding","294","E24.jpg","3",".","37","0","511"
"11","11","encoding","encoding","295","E22.jpg","3",".","37","0","610"
"11","11","encoding","encoding","296","F72.jpg","1",".","37","0","540"
"11","11","encoding","encoding","297","E17.jpg","3",".","37","0","455"
"11","11","encoding","encoding","298","E40.jpg","3",".","37","0","426"
"11","11","encoding","encoding","299","E25.jpg","3",".","37","0","485"
"11","11","encoding","encoding","300","E50.jpg","3",".","37","0","407"
"11","11","encoding","encoding","301","E19.jpg","3",".","37","0","490"
"11","11","encoding","encoding","302","E61.jpg","3",".","37","0","509"
"11","11","encoding","encoding","303","E39.jpg","3",".","37","0","640"
"11","11","encoding","encoding","304","E63.jpg","3",".","37","0","955"
"11","11","encoding","encoding","305","E60.jpg","3",".","37","0","685"
"11","11","encoding","encoding","306","E73.jpg","3",".","37","0","424"
"11","11","encoding","encoding","307","E72.jpg","3",".","36","0","667"
"11","11","encoding","encoding","308","E54.jpg","3",".","37","0","462"
"11","11","encoding","encoding","309","F64.jpg","1",".","37","0","409"
"11","11","encoding","encoding","310","F14.jpg","1",".","37","0","843"
"11","11","encoding","encoding","311","E46.jpg","3",".","37","0","390"
"11","11","encoding","encoding","312","F79.jpg","1",".","37","0","577"
"11","11","encoding","encoding","313","F17.jpg","1",".","37","0","316"
"11","11","encoding","encoding","314","E50.jpg","3",".","37","0","422"
"11","11","encoding","encoding","315","E48.jpg","3",".","37","0","569"
"11","11","encoding","encoding","316","E37.jpg","3",".","37","0","420"
"11","11","encoding","encoding","317","E76.jpg","3",".","37","0","423"
"11","11","encoding","encoding","318","E45.jpg","3",".","37","0","418"
"11","11","encoding","encoding","319","E10.jpg","3",".","37","0","372"
"11","11","encoding","encoding","320","E69.jpg","3",".","37","0","471"
"11","11","encoding","encoding","321","E76.jpg","3",".","37","0","290"
"11","11","encoding","encoding","322","E60.jpg","3",".","37","0","461"
"11","11","encoding","encoding","323","F66.jpg","1",".","37","0","423"
"11","11","encoding","encoding","324","E45.jpg","3",".","37","0","402"
"11","11","encoding","encoding","325","E65.jpg","",".","37","0","429"
"11","11","retrieval","old_object","1","E64.jpg",".","3","36","1","1227"
"11","11","retrieval","new_object","2","H49.jpg",".",".","37","1","702"
"11","11","retrieval","old_object","3","F49.jpg",".","1","37","0","976"
"11","11","retrieval","old_object","4","F69.jpg",".","1","36","1","987"
"11","11","retrieval","old_object","5","E41.jpg",".","3","36","1","638"
"11","11","retrieval","old_object","6","E37.jpg",".","3","36","1","585"
"11","11","retrieval","old_object","7","F70.jpg",".","1","36","1","572"
"11","11","retrieval","new_object","8","H50.jpg",".",".","37","1","615"
"11","11","retrieval","new_object","9","H21.jpg",".",".","37","1","697"
"11","11","retrieval","new_object","10","H18.jpg",".",".","37","1","1036"
"11","11","retrieval","new_object","11","H2.jpg",".",".","37","1","871"
"11","11","retrieval","old_object","12","E4.jpg",".","3","36","1","626"
"11","11","retrieval","old_object","13","F32.jpg",".","1","37","0","813"
"11","11","retrieval","new_object","14","H47.jpg",".",".","36","0","840"
"11","11","retrieval","old_object","15","E21.jpg",".","3","36","1","635"
"11","11","retrieval","old_object","16","F40.jpg",".","1","37","0","565"
"11","11","retrieval","old_object","17","E33.jpg",".","3","36","1","664"
"11","11","retrieval","new_object","18","H58.jpg",".",".","37","1","667"
"11","11","retrieval","new_object","19","G67.jpg",".",".","37","1","582"
"11","11","retrieval","old_object","20","F51.jpg",".","1","36","1","793"
"11","11","retrieval","new_object","21","G4.jpg",".",".","37","1","796"
"11","11","retrieval","new_object","22","G15.jpg",".",".","37","1","687"
"11","11","retrieval","new_object","23","G1.jpg",".",".","37","1","602"
"11","11","retrieval","new_object","24","H79.jpg",".",".","37","1","540"
"11","11","retrieval","new_object","25","H48.jpg",".",".","37","1","623"
"11","11","retrieval","new_object","26","H3.jpg",".",".","36","0","954"
"11","11","retrieval","old_object","27","F73.jpg",".","1","36","1","717"
"11","11","retrieval","old_object","28","F74.jpg",".","1","37","0","600"
"11","11","retrieval","old_object","29","F68.jpg",".","1","36","1","731"
"11","11","retrieval","new_object","30","G8.jpg",".",".","37","1","669"
"11","11","retrieval","old_object","31","F65.jpg",".","1","36","1","760"
"11","11","retrieval","old_object","32","F10.jpg",".","1","36","1","867"
"11","11","retrieval","new_object","33","G57.jpg",".",".","37","1","726"
"11","11","retrieval","old_object","34","E30.jpg",".","3","36","1","593"
"11","11","retrieval","old_object","35","E43.jpg",".","3","36","1","724"
"11","11","retrieval","old_object","36","F5.jpg",".","1","37","0","639"
"11","11","retrieval","old_object","37","E58.jpg",".","3","36","1","721"
"11","11","retrieval","old_object","38","E14.jpg",".","3","36","1","724"
"11","11","retrieval","new_object","39","G70.jpg",".",".","37","1","727"
"11","11","retrieval","new_object","40","H0.jpg",".",".","37","1","818"
"11","11","retrieval","old_object","41","E34.jpg",".","3","36","1","741"
"11","11","retrieval","old_object","42","F58.jpg",".","1","36","1","744"
"11","11","retrieval","new_object","43","G25.jpg",".",".","37","1","923"
"11","11","retrieval","old_object","44","E50.jpg",".","3","36","1","805"
"11","11","retrieval","old_object","45","F46.jpg",".","1","36","1","936"
"11","11","retrieval","new_object","46","H10.jpg",".",".","37","1","1203"
"11","11","retrieval","old_object","47","F15.jpg",".","1","37","0","734"
"11","11","retrieval","old_object","48","F79.jpg",".","1","36","1","873"
"11","11","retrieval","old_object","49","F34.jpg",".","1","36","1","700"
"11","11","retrieval","new_object","50","G30.jpg",".",".","37","1","894"
"11","11","retrieval","old_object","51","E13.jpg",".","3","36","1","577"
"11","11","retrieval","old_object","52","E78.jpg",".","3","36","1","604"
"11","11","retrieval","old_object","53","F13.jpg",".","1","36","1","775"
"11","11","retrieval","new_object","54","H35.jpg",".",".","37","1","850"
"11","11","retrieval","old_object","55","E77.jpg",".","3","36","1","677"
"11","11","retrieval","old_object","56","F37.jpg",".","1","37","0","656"
"11","11","retrieval","old_object","57","E39.jpg",".","3","36","1","746"
"11","11","retrieval","old_object","58","F67.jpg",".","1","36","1","1245"
"11","11","retrieval","new_object","59","G0.jpg",".",".","37","1","704"
"11","11","retrieval","new_object","60","H37.jpg",".",".","37","1","1163"
"11","11","retrieval","old_object","61","E63.jpg",".","3","36","1","614"
"11","11","retrieval","new_object","62","H45.jpg",".",".","37","1","689"
"11","11","retrieval","old_object","63","F19.jpg",".","1","36","1","860"
"11","11","retrieval","old_object","64","F50.jpg",".","1","36","1","654"
"11","11","retrieval","old_object","65","F57.jpg",".","1","37","0","945"
"11","11","retrieval","new_object","67","G60.jpg",".",".","37","1","610"
"11","11","retrieval","new_object","68","G18.jpg",".",".","37","1","1262"
"11","11","retrieval","new_object","69","G7.jpg",".",".","37","1","857"
"11","11","retrieval","new_object","70","G72.jpg",".",".","37","1","963"
"11","11","retrieval","new_object","71","H32.jpg",".",".","37","1","581"
"11","11","retrieval","new_object","72","H67.jpg",".",".","37","1","600"
"11","11","retrieval","old_object","73","E66.jpg",".","3","36","1","627"
"11","11","retrieval","old_object","74","E1.jpg",".","3","36","1","886"
"11","11","retrieval","new_object","75","G62.jpg",".",".","37","1","961"
"11","11","retrieval","new_object","76","G65.jpg",".",".","37","1","636"
"11","11","retrieval","old_object","77","E22.jpg",".","3","36","1","591"
"11","11","retrieval","new_object","78","H13.jpg",".",".","37","1","609"
"11","11","retrieval","old_object","79","F72.jpg",".","1","37","0","652"
"11","11","retrieval","old_object","80","F41.jpg",".","1","36","1","632"
"11","11","retrieval","new_object","81","H1.jpg",".",".","37","1","626"
"11","11","retrieval","new_object","82","H22.jpg",".",".","37","1","1094"
"11","11","retrieval","new_object","83","G12.jpg",".",".","37","1","736"
"11","11","retrieval","new_object","84","H29.jpg",".",".","37","1","610"
"11","11","retrieval","old_object","85","E10.jpg",".","3","36","1","757"
"11","11","retrieval","new_object","86","G73.jpg",".",".","37","1","640"
"11","11","retrieval","old_object","87","F44.jpg",".","1","36","1","643"
"11","11","retrieval","old_object","88","F78.jpg",".","1","36","1","654"
"11","11","retrieval","new_object","89","H36.jpg",".",".","37","1","569"
"11","11","retrieval","new_object","90","G78.jpg",".",".","37","1","692"
"11","11","retrieval","old_object","91","E73.jpg",".","3","36","1","751"
"11","11","retrieval","new_object","92","H52.jpg",".",".","37","1","617"
"11","11","retrieval","new_object","93","H14.jpg",".",".","37","1","596"
"11","11","retrieval","old_object","94","F8.jpg",".","1","37","0","912"
"11","11","retrieval","old_object","95","F66.jpg",".","1","36","1","1026"
"11","11","retrieval","new_object","96","H30.jpg",".",".","37","1","685"
"11","11","retrieval","old_object","97","F55.jpg",".","1","37","0","544"
"11","11","retrieval","new_object","98","G5.jpg",".",".","37","1","594"
"11","11","retrieval","new_object","99","H74.jpg",".",".","37","1","829"
"11","11","retrieval","new_object","100","G32.jpg",".",".","37","1","1080"
"11","11","retrieval","old_object","101","E51.jpg",".","3","36","1","636"
"11","11","retrieval","new_object","102","G41.jpg",".",".","37","1","758"
"11","11","retrieval","old_object","103","F9.jpg",".","1","36","1","649"
"11","11","retrieval","new_object","104","H24.jpg",".",".","37","1","1093"
"11","11","retrieval","old_object","105","E16.jpg",".","3","36","1","647"
"11","11","retrieval","new_object","106","H56.jpg",".",".","37","1","577"
"11","11","retrieval","old_object","107","F60.jpg",".","1","37","0","588"
"11","11","retrieval","new_object","108","H34.jpg",".",".","37","1","663"
"11","11","retrieval","new_object","109","G46.jpg",".",".","37","1","1002"
"11","11","retrieval","old_object","110","F54.jpg",".","1","36","1","757"
"11","11","retrieval","new_object","111","G63.jpg",".",".","37","1","1128"
"11","11","retrieval","new_object","112","H73.jpg",".",".","37","1","683"
"11","11","retrieval","new_object","113","H9.jpg",".",".","37","1","517"
"11","11","retrieval","new_object","114","G51.jpg",".",".","37","1","768"
"11","11","retrieval","new_object","115","H15.jpg",".",".","37","1","619"
"11","11","retrieval","new_object","116","H51.jpg",".",".","37","1","838"
"11","11","retrieval","old_object","117","E69.jpg",".","3","36","1","1089"
"11","11","retrieval","old_object","118","F2.jpg",".","1","37","0","756"
"11","11","retrieval","new_object","119","H17.jpg",".",".","37","1","511"
"11","11","retrieval","old_object","120","E42.jpg",".","3","36","1","737"
"11","11","retrieval","old_object","121","E65.jpg",".","3","36","1","524"
"11","11","retrieval","new_object","122","G10.jpg",".",".","37","1","1055"
"11","11","retrieval","old_object","123","F14.jpg",".","1","36","1","730"
"11","11","retrieval","new_object","124","G56.jpg",".",".","37","1","1141"
"11","11","retrieval","new_object","125","G38.jpg",".",".","37","1","1088"
"11","11","retrieval","new_object","126","H46.jpg",".",".","37","1","978"
"11","11","retrieval","new_object","127","H63.jpg",".",".","37","1","885"
"11","11","retrieval","old_object","128","F31.jpg",".","1","37","0","1224"
"11","11","retrieval","old_object","129","E54.jpg",".","3","36","1","851"
"11","11","retrieval","new_object","130","G37.jpg",".",".","37","1","606"
"11","11","retrieval","new_object","131","G50.jpg",".",".","37","1","569"
"11","11","retrieval","old_object","133","E15.jpg",".","3","37","0","582"
"11","11","retrieval","old_object","134","E3.jpg",".","3","36","1","642"
"11","11","retrieval","new_object","135","G58.jpg",".",".","37","1","811"
"11","11","retrieval","new_object","136","G59.jpg",".",".","37","1","1014"
"11","11","retrieval","new_object","137","H7.jpg",".",".","37","1","625"
"11","11","retrieval","old_object","138","E35.jpg",".","3","36","1","708"
"11","11","retrieval","old_object","139","F36.jpg",".","1","36","1","591"
"11","11","retrieval","new_object","140","G52.jpg",".",".","37","1","674"
"11","11","retrieval","old_object","141","F4.jpg",".","1","37","0","821"
"11","11","retrieval","old_object","142","F77.jpg",".","1","36","1","703"
"11","11","retrieval","new_object","143","H76.jpg",".",".","37","1","818"
"11","11","retrieval","new_object","144","G61.jpg",".",".","37","1","660"
"11","11","retrieval","new_object","145","H69.jpg",".",".","37","1","583"
"11","11","retrieval","old_object","146","F53.jpg",".","1","36","1","738"
"11","11","retrieval","new_object","147","H16.jpg",".",".","37","1","637"
"11","11","retrieval","new_object","148","H12.jpg",".",".","37","1","632"
"11","11","retrieval","old_object","149","E57.jpg",".","3","36","1","587"
"11","11","retrieval","new_object","150","G3.jpg",".",".","37","1","590"
"11","11","retrieval","old_object","151","F1.jpg",".","1","37","0","600"
"11","11","retrieval","old_object","152","F71.jpg",".","1","36","1","787"
"11","11","retrieval","new_object","153","G64.jpg",".",".","37","1","741"
"11","11","retrieval","new_object","154","H31.jpg",".",".","37","1","560"
"11","11","retrieval","new_object","155","H40.jpg",".",".","37","1","747"
"11","11","retrieval","new_object","156","H44.jpg",".",".","37","1","710"
"11","11","retrieval","new_object","157","G28.jpg",".",".","37","1","585"
"11","11","retrieval","new_object","158","G33.jpg",".",".","37","1","1204"
"11","11","retrieval","old_object","159","E20.jpg",".","3","36","1","743"
"11","11","retrieval","new_object","160","H66.jpg",".",".","37","1","649"
"11","11","retrieval","old_object","161","E60.jpg",".","3","36","1","1052"
"11","11","retrieval","old_object","162","E52.jpg",".","3","36","1","1039"
"11","11","retrieval","new_object","163","G53.jpg",".",".","37","1","1082"
"11","11","retrieval","old_object","164","F28.jpg",".","1","36","1","877"
"11","11","retrieval","new_object","165","H39.jpg",".",".","37","1","792"
"11","11","retrieval","old_object","166","E74.jpg",".","3","36","1","627"
"11","11","retrieval","old_object","167","E29.jpg",".","3","36","1","854"
"11","11","retrieval","new_object","168","G49.jpg",".",".","37","1","712"
"11","11","retrieval","new_object","169","G45.jpg",".",".","37","1","597"
"11","11","retrieval","new_object","170","H4.jpg",".",".","37","1","654"
"11","11","retrieval","old_object","171","F6.jpg",".","1","37","0","905"
"11","11","retrieval","new_object","172","H72.jpg",".",".","37","1","636"
"11","11","retrieval","old_object","173","F45.jpg",".","1","37","0","502"
"11","11","retrieval","new_object","174","G34.jpg",".",".","37","1","697"
"11","11","retrieval","old_object","175","E44.jpg",".","3","36","1","724"
"11","11","retrieval","new_object","176","H8.jpg",".",".","37","1","727"
"11","11","retrieval","old_object","177","F63.jpg",".","1","36","1","938"
"11","11","retrieval","old_object","178","E23.jpg",".","3","36","1","597"
"11","11","retrieval","new_object","179","H54.jpg",".",".","37","1","944"
"11","11","retrieval","old_object","180","E28.jpg",".","3","36","1","659"
"11","11","retrieval","old_object","181","E46.jpg",".","3","36","1","797"
"11","11","retrieval","old_object","182","F35.jpg",".","1","37","0","752"
"11","11","retrieval","new_object","183","G48.jpg",".",".","37","1","555"
"11","11","retrieval","new_object","184","G42.jpg",".",".","37","1","638"
"11","11","retrieval","old_object","185","F52.jpg",".","1","37","0","657"
"11","11","retrieval","new_object","186","H70.jpg",".",".","37","1","652"
"11","11","retrieval","new_object","187","H65.jpg",".",".","37","1","607"
"11","11","retrieval","new_object","188","H68.jpg",".",".","37","1","801"
"11","11","retrieval","old_object","189","F62.jpg",".","1","37","0","916"
"11","11","retrieval","new_object","190","H64.jpg",".",".","37","1","1023"
"11","11","retrieval","old_object","191","E71.jpg",".","3","37","0","1274"
"11","11","retrieval","old_object","192","E26.jpg",".","3","36","1","717"
"11","11","retrieval","new_object","193","G13.jpg",".",".","37","1","1800"
"11","11","retrieval","new_object","194","G79.jpg",".",".","37","1","771"
"11","11","retrieval","old_object","195","E61.jpg",".","3","36","1","765"
"11","11","retrieval","new_object","196","G40.jpg",".",".","37","1","1056"
"11","11","retrieval","old_object","197","E6.jpg",".","3","37","0","1251"
"11","11","retrieval","old_object","199","E53.jpg",".","3","36","1","562"
"11","11","retrieval","new_object","200","G6.jpg",".",".","37","1","557"
"11","11","retrieval","old_object","201","E40.jpg",".","3","36","1","704"
"11","11","retrieval","new_object","202","H41.jpg",".",".","37","1","603"
"11","11","retrieval","old_object","203","F3.jpg",".","1","36","1","613"
"11","11","retrieval","new_object","204","G14.jpg",".",".","37","1","584"
"11","11","retrieval","old_object","205","E2.jpg",".","3","36","1","595"
"11","11","retrieval","new_object","206","G9.jpg",".",".","37","1","494"
"11","11","retrieval","new_object","207","H23.jpg",".",".","37","1","681"
"11","11","retrieval","old_object","208","F12.jpg",".","1","36","1","636"
"11","11","retrieval","old_object","209","E36.jpg",".","3","36","1","855"
"11","11","retrieval","new_object","210","G66.jpg",".",".","37","1","769"
"11","11","retrieval","new_object","211","H55.jpg",".",".","37","1","828"
"11","11","retrieval","old_object","212","E49.jpg",".","3","36","1","727"
"11","11","retrieval","old_object","213","E27.jpg",".","3","36","1","826"
"11","11","retrieval","old_object","214","F27.jpg",".","1","36","1","781"
"11","11","retrieval","old_object","215","F29.jpg",".","1","37","0","624"
"11","11","retrieval","new_object","216","G43.jpg",".",".","36","0","1139"
"11","11","retrieval","new_object","217","G21.jpg",".",".","37","1","1301"
"11","11","retrieval","old_object","218","E47.jpg",".","3","36","1","840"
"11","11","retrieval","old_object","219","F17.jpg",".","1","37","0","1011"
"11","11","retrieval","new_object","220","G27.jpg",".",".","37","1","742"
"11","11","retrieval","old_object","221","E79.jpg",".","3","36","1","641"
"11","11","retrieval","old_object","222","E5.jpg",".","3","36","1","556"
"11","11","retrieval","new_object","223","G75.jpg",".",".","37","1","758"
"11","11","retrieval","new_object","224","G35.jpg",".",".","37","1","657"
"11","11","retrieval","new_object","225","H43.jpg",".",".","36","0","732"
"11","11","retrieval","old_object","226","F20.jpg",".","1","36","1","719"
"11","11","retrieval","old_object","227","F43.jpg",".","1","36","1","1026"
"11","11","retrieval","old_object","228","F0.jpg",".","1","36","1","805"
"11","11","retrieval","old_object","229","E12.jpg",".","3","36","1","592"
"11","11","retrieval","old_object","230","F76.jpg",".","1","36","1","731"
"11","11","retrieval","old_object","231","E70.jpg",".","3","36","1","605"
"11","11","retrieval","new_object","232","H25.jpg",".",".","37","1","760"
"11","11","retrieval","old_object","233","E19.jpg",".","3","36","1","723"
"11","11","retrieval","old_object","234","E59.jpg",".","3","36","1","614"
"11","11","retrieval","old_object","235","F39.jpg",".","1","37","0","857"
"11","11","retrieval","old_object","236","E25.jpg",".","3","36","1","860"
"11","11","retrieval","new_object","237","G76.jpg",".",".","37","1","670"
"11","11","retrieval","new_object","238","G31.jpg",".",".","37","1","601"
"11","11","retrieval","new_object","239","G26.jpg",".",".","37","1","636"
"11","11","retrieval","new_object","240","G22.jpg",".",".","37","1","527"
"11","11","retrieval","old_object","241","E38.jpg",".","3","36","1","642"
"11","11","retrieval","old_object","242","F47.jpg",".","1","37","0","709"
"11","11","retrieval","old_object","243","E45.jpg",".","3","36","1","672"
"11","11","retrieval","new_object","244","G17.jpg",".",".","37","1","874"
"11","11","retrieval","new_object","245","H75.jpg",".",".","37","1","661"
"11","11","retrieval","old_object","246","E24.jpg",".","3","36","1","656"
"11","11","retrieval","old_object","247","E48.jpg",".","3","36","1","723"
"11","11","retrieval","new_object","248","G36.jpg",".",".","37","1","742"
"11","11","retrieval","old_object","249","E67.jpg",".","3","36","1","689"
"11","11","retrieval","old_object","250","F24.jpg",".","1","36","1","636"
"11","11","retrieval","new_object","251","G2.jpg",".",".","37","1","614"
"11","11","retrieval","old_object","252","F33.jpg",".","1","36","1","777"
"11","11","retrieval","old_object","253","E68.jpg",".","3","36","1","1020"
"11","11","retrieval","old_object","254","F56.jpg",".","1","36","1","663"
"11","11","retrieval","new_object","255","H78.jpg",".",".","37","1","986"
"11","11","retrieval","new_object","256","G55.jpg",".",".","37","1","597"
"11","11","retrieval","new_object","257","H62.jpg",".",".","37","1","584"
"11","11","retrieval","old_object","258","F48.jpg",".","1","37","0","778"
"11","11","retrieval","new_object","259","H28.jpg",".",".","37","1","693"
"11","11","retrieval","new_object","260","H60.jpg",".",".","37","1","576"
"11","11","retrieval","new_object","261","H57.jpg",".",".","37","1","515"
"11","11","retrieval","old_object","262","F23.jpg",".","1","36","1","678"
"11","11","retrieval","old_object","263","E76.jpg",".","3","36","1","721"
"11","11","retrieval","new_object","265","G29.jpg",".",".","37","1","624"
"11","11","retrieval","new_object","266","G71.jpg",".",".","37","1","971"
"11","11","retrieval","new_object","267","H59.jpg",".",".","37","1","742"
"11","11","retrieval","new_object","268","G16.jpg",".",".","37","1","929"
"11","11","retrieval","new_object","269","H33.jpg",".",".","37","1","732"
"11","11","retrieval","new_object","270","G23.jpg",".",".","37","1","655"
"11","11","retrieval","old_object","271","E9.jpg",".","3","36","1","945"
"11","11","retrieval","new_object","272","G39.jpg",".",".","37","1","620"
"11","11","retrieval","old_object","273","E18.jpg",".","3","36","1","799"
"11","11","retrieval","old_object","274","E17.jpg",".","3","36","1","850"
"11","11","retrieval","new_object","275","G54.jpg",".",".","37","1","717"
"11","11","retrieval","old_object","276","E55.jpg",".","3","36","1","848"
"11","11","retrieval","old_object","277","E32.jpg",".","3","36","1","595"
"11","11","retrieval","old_object","278","F75.jpg",".","1","36","1","1277"
"11","11","retrieval","new_object","279","G11.jpg",".",".","37","1","744"
"11","11","retrieval","new_object","280","G69.jpg",".",".","37","1","675"
"11","11","retrieval","old_object","281","F59.jpg",".","1","37","0","942"
"11","11","retrieval","old_object","282","F26.jpg",".","1","37","0","977"
"11","11","retrieval","old_object","283","F7.jpg",".","1","37","0","844"
"11","11","retrieval","new_object","284","H42.jpg",".",".","37","1","919"
"11","11","retrieval","old_object","285","E7.jpg",".","3","36","1","641"
"11","11","retrieval","old_object","286","F21.jpg",".","1","36","1","692"
"11","11","retrieval","old_object","287","F61.jpg",".","1","36","1","871"
"11","11","retrieval","new_object","288","H38.jpg",".",".","37","1","722"
"11","11","retrieval","old_object","289","F42.jpg",".","1","36","1","997"
"11","11","retrieval","new_object","290","H27.jpg",".",".","37","1","992"
"11","11","retrieval","new_object","291","G47.jpg",".",".","37","1","1179"
"11","11","retrieval","old_object","292","E31.jpg",".","3","36","1","749"
"11","11","retrieval","new_object","293","H20.jpg",".",".","37","1","840"
"11","11","retrieval","old_object","294","E75.jpg",".","3","36","1","627"
"11","11","retrieval","new_object","295","G77.jpg",".",".","37","1","774"
"11","11","retrieval","old_object","296","F18.jpg",".","1","37","0","681"
"11","11","retrieval","new_object","297","H5.jpg",".",".","37","1","740"
"11","11","retrieval","new_object","298","H61.jpg",".",".","37","1","671"
"11","11","retrieval","new_object","299","H19.jpg",".",".","37","1","657"
"11","11","retrieval","new_object","300","G68.jpg",".",".","37","1","1020"
"11","11","retrieval","new_object","301","H26.jpg",".",".","37","1","671"
"11","11","retrieval","new_object","302","H6.jpg",".",".","37","1","570"
"11","11","retrieval","old_object","303","E72.jpg",".","3","36","1","669"
"11","11","retrieval","old_object","304","E56.jpg",".","3","37","0","648"
"11","11","retrieval","old_object","305","F30.jpg",".","1","37","0","931"
"11","11","retrieval","old_object","306","F11.jpg",".","1","36","1","1349"
"11","11","retrieval","new_object","307","H77.jpg",".",".","37","1","520"
"11","11","retrieval","old_object","308","F25.jpg",".","1","37","0","643"
"11","11","retrieval","new_object","309","H71.jpg",".",".","37","1","734"
"11","11","retrieval","old_object","310","E62.jpg",".","3","36","1","705"
"11","11","retrieval","new_object","311","G20.jpg",".",".","37","1","644"
"11","11","retrieval","new_object","312","G24.jpg",".",".","37","1","590"
"11","11","retrieval","new_object","313","H11.jpg",".",".","37","1","713"
"11","11","retrieval","old_object","314","E0.jpg",".","3","36","1","756"
"11","11","retrieval","new_object","315","G44.jpg",".",".","37","1","623"
"11","11","retrieval","new_object","316","G74.jpg",".",".","37","1","650"
"11","11","retrieval","old_object","317","E8.jpg",".","3","36","1","741"
"11","11","retrieval","old_object","318","F64.jpg",".","1","36","1","944"
"11","11","retrieval","old_object","319","F38.jpg",".","1","36","1","722"
"11","11","retrieval","old_object","320","E11.jpg",".","3","36","1","693"
"11","11","retrieval","old_object","321","F22.jpg",".","1","36","1","776"
"11","11","retrieval","new_object","322","H53.jpg",".",".","37","1","603"
"11","11","retrieval","old_object","323","F16.jpg",".","1","36","1","750"
"11","11","retrieval","new_object","324","G19.jpg",".",".","37","1","753"
"11","11","retrieval","old_object","325","E64.jpg",".","","36","1","756"
"11","11","demographics_block","gender","1",".",".",".","Male","1","14888"
"11","11","demographics_block","age","1",".",".",".","28","1","14888"
"11","11","demographics_block","education","1",".",".",".","16","1","14888"
"11","11","demographics_block","left_right_handed","2",".",".",".","Right","1","6470"
"11","11","demographics_block","raceoption1","2",".",".",".","0","1","6470"
"11","11","demographics_block","raceoption2","2",".",".",".","","1","6470"
"11","11","demographics_block","raceoption3","2",".",".",".","","1","6470"
"11","11","demographics_block","raceoption4","2",".",".",".","","1","6470"
"11","11","demographics_block","raceoption5","2",".",".",".","","1","6470"
"11","11","demographics_block","raceoption6","2",".",".",".","","1","6470"
"11","11","demographics_block","raceoption7","2",".",".",".","","1","6470"
"11","11","demographics_block","raceoption8","2",".",".",".","","1","6470"
"11","11","demographics_block","raceoption9","2",".",".",".","","1","6470"
"11","11","demographics_block","raceother","2",".",".",".","","1","6470"
"11","11","demographics_block","raceother","2",".",".",".","","1","6470"
"11","11","demographics_block","english_language","2",".",".",".","Yes","1","6470"
"11","11","demographics_block","other","2",".",".",".","","1","6470"
"11","11","demographics_block","eyesight","3",".",".",".","Yes","1","7904"
"11","11","demographics_block","colorblind","3",".",".",".","No","1","7904"
"20","20","encoding","encoding","1","E65.jpg","3",".","0","0","1000"
"20","20","encoding","encoding","2","E18.jpg","3",".","0","0","1000"
"20","20","encoding","encoding","3","F20.jpg","1",".","0","0","1000"
"20","20","encoding","encoding","4","E54.jpg","3",".","0","0","1000"
"20","20","encoding","encoding","5","E58.jpg","3",".","0","0","1000"
"20","20","encoding","encoding","6","E18.jpg","3",".","0","0","1000"
"20","20","encoding","encoding","7","E49.jpg","3",".","0","0","1000"
"20","20","encoding","encoding","8","F68.jpg","1",".","0","0","1000"
"20","20","encoding","encoding","9","E35.jpg","3",".","36","0","977"
"20","20","encoding","encoding","10","F41.jpg","1",".","0","0","1000"
"20","20","encoding","encoding","11","E28.jpg","3",".","0","0","1000"
"20","20","encoding","encoding","12","E16.jpg","3",".","0","0","1000"
"20","20","encoding","encoding","13","E78.jpg","3",".","0","0","1000"
"20","20","encoding","encoding","14","F16.jpg","1",".","0","0","1000"
"20","20","encoding","encoding","15","E32.jpg","3",".","0","0","1000"
"20","20","encoding","encoding","16","F28.jpg","1",".","0","0","1000"
"20","20","encoding","encoding","17","E40.jpg","3",".","0","0","1000"
"20","20","encoding","encoding","18","E45.jpg","3",".","0","0","1000"
"20","20","encoding","encoding","19","E44.jpg","3",".","0","0","1000"
"20","20","encoding","encoding","20","E3.jpg","3",".","0","0","1000"
"20","20","encoding","encoding","21","E63.jpg","3",".","0","0","1000"
"20","20","encoding","encoding","22","E55.jpg","3",".","0","0","1000"
"20","20","encoding","encoding","23","E20.jpg","3",".","36","0","907"
"20","20","encoding","encoding","24","F4.jpg","1",".","0","0","1000"
"20","20","encoding","encoding","25","E60.jpg","3",".","0","0","1000"
"20","20","encoding","encoding","26","E1.jpg","3",".","0","0","1000"
"20","20","encoding","encoding","27","F58.jpg","1",".","0","0","1000"
"20","20","encoding","encoding","28","E70.jpg","3",".","0","0","1000"
"20","20","encoding","encoding","29","E33.jpg","3",".","0","0","1000"
"20","20","encoding","encoding","30","E37.jpg","3",".","0","0","1000"
"20","20","encoding","encoding","31","E8.jpg","3",".","0","0","1000"
"20","20","encoding","encoding","32","E32.jpg","3",".","0","0","1000"
"20","20","encoding","encoding","33","E77.jpg","3",".","0","0","1000"
"20","20","encoding","encoding","34","E42.jpg","3",".","0","0","1000"
"20","20","encoding","encoding","35","E67.jpg","3",".","0","0","1000"
"20","20","encoding","encoding","36","F48.jpg","1",".","0","0","1000"
"20","20","encoding","encoding","37","E51.jpg","3",".","0","0","1000"
"20","20","encoding","encoding","38","E30.jpg","3",".","0","0","1000"
"20","20","encoding","encoding","39","F2.jpg","1",".","0","0","1000"
"20","20","encoding","encoding","40","F77.jpg","1",".","0","0","1000"
"20","20","encoding","encoding","41","E28.jpg","3",".","0","0","1000"
"20","20","encoding","encoding","42","E10.jpg","3",".","0","0","1000"
"20","20","encoding","encoding","43","E41.jpg","3",".","0","0","1000"
"20","20","encoding","encoding","44","E28.jpg","3",".","0","0","1000"
"20","20","encoding","encoding","45","E22.jpg","3",".","0","0","1000"
"20","20","encoding","encoding","46","F43.jpg","1",".","0","0","1000"
"20","20","encoding","encoding","47","F9.jpg","1",".","0","0","1000"
"20","20","encoding","encoding","48","E29.jpg","3",".","0","0","1000"
"20","20","encoding","encoding","49","F0.jpg","1",".","0","0","1000"
"20","20","encoding","encoding","50","E18.jpg","3",".","36","0","822"
"20","20","encoding","encoding","51","E43.jpg","3",".","0","0","1000"
"20","20","encoding","encoding","52","E23.jpg","3",".","0","0","1000"
"20","20","encoding","encoding","53","E44.jpg","3",".","0","0","1000"
"20","20","encoding","encoding","54","F44.jpg","1",".","0","0","1000"
"20","20","encoding","encoding","55","F42.jpg","1",".","0","0","1000"
"20","20","encoding","encoding","56","E48.jpg","3",".","0","0","1000"
"20","20","encoding","encoding","57","E36.jpg","3",".","0","0","1000"
"20","20","encoding","encoding","58","E27.jpg","3",".","36","0","424"
"20","20","encoding","encoding","59","F75.jpg","1",".","36","0","975"
"20","20","encoding","encoding","60","E77.jpg","3",".","0","0","1000"
