"group","subject","blockcode","trialcode","trialnum","stimulus","encoding_condition","old_object_condition","response","correct","latency"
"17","17","encoding","encoding","1","Lollipop_Grape.jpg","1",".","0","0","1000"
"17","17","encoding","encoding","2","Generator.jpg","3",".","37","0","824"
"17","17","encoding","encoding","3","Fortress.jpg","1",".","36","0","822"
"17","17","encoding","encoding","4","MonaLisa.jpg","1",".","36","0","715"
"17","17","encoding","encoding","5","AmpMeter.jpg","3",".","37","0","592"
"17","17","encoding","encoding","6","AmpMeter.jpg","3",".","37","0","558"
"17","17","encoding","encoding","7","Ashtray_Empty.jpg","3",".","36","0","651"
"17","17","encoding","encoding","8","Glove_Rubber.jpg","3",".","37","0","704"
"17","17","encoding","encoding","9","Pipe_Drain.jpg","1",".","37","0","533"
"17","17","encoding","encoding","10","MonkeyPuppet.jpg","3",".","37","0","858"
"17","17","encoding","encoding","11","NintendoWii.jpg","3",".","37","0","648"
"17","17","encoding","encoding","12","Tickets_Blank.jpg","3",".","37","0","685"
"17","17","encoding","encoding","13","Pineapple.jpg","3",".","36","0","650"
"17","17","encoding","encoding","14","Beater_Electric.jpg","3",".","37","0","479"
"17","17","encoding","encoding","15","Balalaika.jpg","3",".","37","0","548"
"17","17","encoding","encoding","16","Hourglass.jpg","3",".","37","0","426"
"17","17","encoding","encoding","17","Ashtray_Empty.jpg","3",".","37","0","423"
"17","17","encoding","encoding","18","Chest_Toys.jpg","3",".","37","0","484"
"17","17","encoding","encoding","19","Toy_Witch.jpg","3",".","37","0","418"
"17","17","encoding","encoding","20","BicycleBrake.jpg","1",".","37","0","446"
"17","17","encoding","encoding","21","Mattress.jpg","3",".","37","0","675"
"17","17","encoding","encoding","22","IceCrusher.jpg","3",".","37","0","505"
"17","17","encoding","encoding","23","Toy_Witch.jpg","3",".","37","0","566"
"17","17","encoding","encoding","24","Mat_Door.jpg","3",".","37","0","531"
"17","17","encoding","encoding","25","Bird_Cardinal.jpg","3",".","37","0","616"
"17","17","encoding","encoding","26","Toy_Moose.jpg","3",".","37","0","622"
"17","17","encoding","encoding","27","DogTreat.jpg","1",".","37","0","595"
"17","17","encoding","encoding","28","Bottle_Blue.jpg","3",".","37","0","544"
"17","17","encoding","encoding","29","Guitarcase.jpg","3",".","37","0","477"
"17","17","encoding","encoding","30","Paratrooper.jpg","3",".","37","0","611"
"17","17","encoding","encoding","31","Golf_Bag.jpg","1",".","37","0","536"
"17","17","encoding","encoding","32","GPS.jpg","3",".","37","0","502"
"17","17","encoding","encoding","33","BottleOpener.jpg","1",".","37","0","443"
"17","17","encoding","encoding","34","DrinkingFountain.jpg","1",".","37","0","456"
"17","17","encoding","encoding","35","Mango.jpg","1",".","36","0","550"
"17","17","encoding","encoding","36","WireStripper.jpg","1",".","37","0","475"
"17","17","encoding","encoding","37","Bowl_Chinese.jpg","3",".","37","0","401"
"17","17","encoding","encoding","38","BicyclePedal.jpg","3",".","37","0","454"
"17","17","encoding","encoding","39","Oyster.jpg","3",".","37","0","588"
"17","17","encoding","encoding","40","DoorBell.jpg","1",".","37","0","633"
"17","17","encoding","encoding","41","Clip_Paper.jpg","3",".","37","0","511"
"17","17","encoding","encoding","42","RemoteControl.jpg","3",".","37","0","500"
"17","17","encoding","encoding","43","Generator.jpg","3",".","37","0","465"
"17","17","encoding","encoding","44","Toy_GasPump.jpg","3",".","37","0","511"
"17","17","encoding","encoding","45","Chair_BeanBag.jpg","3",".","37","0","532"
"17","17","encoding","encoding","46","Chair_BeanBag.jpg","3",".","37","0","450"
"17","17","encoding","encoding","47","Keg.jpg","1",".","37","0","542"
"17","17","encoding","encoding","48","Bowl_Chinese.jpg","3",".","37","0","420"
"17","17","encoding","encoding","49","Cherry.jpg","3",".","36","0","649"
"17","17","encoding","encoding","50","Bullet.jpg","3",".","37","0","519"
"17","17","encoding","encoding","51","Guitar_Acoustic.jpg","1",".","37","0","476"
"17","17","encoding","encoding","52","MouthGuard.jpg","3",".","37","0","490"
"17","17","encoding","encoding","53","MixingGlass.jpg","1",".","37","0","391"
"17","17","encoding","encoding","54","Megaphone.jpg","3",".","37","0","428"
"17","17","encoding","encoding","55","WindowBlinds.jpg","3",".","37","0","602"
"17","17","encoding","encoding","56","Steeple.jpg","3",".","37","0","511"
"17","17","encoding","encoding","57","Tripod.jpg","1",".","37","0","477"
"17","17","encoding","encoding","58","Bellows.jpg","3",".","37","0","546"
"17","17","encoding","encoding","59","Clip_Paper.jpg","3",".","37","0","375"
"17","17","encoding","encoding","60","Colander.jpg","1",".","37","0","452"
"17","17","encoding","encoding","61","Bird_Cardinal.jpg","3",".","36","0","577"
"17","17","encoding","encoding","62","Nyala.jpg","3",".","36","0","910"
"17","17","encoding","encoding","63","Hippopotamus.jpg","3",".","36","0","667"
"17","17","encoding","encoding","64","Teabag.jpg","3",".","37","0","705"
"17","17","encoding","encoding","65","PotatoMasher_Zigzag.jpg","3",".","37","0","510"
"17","17","encoding","encoding","67","LeatherPuncherTool.jpg","3",".","37","0","514"
"17","17","encoding","encoding","68","AmpMeter.jpg","3",".","37","0","455"
"17","17","encoding","encoding","69","Toys_Lego.jpg","1",".","37","0","428"
"17","17","encoding","encoding","70","Shampoo.jpg","3",".","37","0","506"
"17","17","encoding","encoding","71","BadgeSpecialAgent.jpg","3",".","37","0","431"
"17","17","encoding","encoding","72","TartStrawberry.jpg","3",".","36","0","500"
"17","17","encoding","encoding","73","Trumpet.jpg","3",".","37","0","449"
"17","17","encoding","encoding","74","DryRack_Dishes.jpg","3",".","37","0","566"
"17","17","encoding","encoding","75","Cake_Wedding.jpg","1",".","37","0","564"
"17","17","encoding","encoding","76","Trophy.jpg","3",".","37","0","585"
"17","17","encoding","encoding","77","MouthGuard.jpg","3",".","37","0","598"
"17","17","encoding","encoding","78","HairDryer.jpg","1",".","37","0","500"
"17","17","encoding","encoding","79","Lantern_TeaBox.jpg","1",".","37","0","409"
"17","17","encoding","encoding","80","Table_Poker.jpg","1",".","37","0","391"
"17","17","encoding","encoding","81","Exercise_Stretch.jpg","1",".","37","0","468"
"17","17","encoding","encoding","82","FireExtinguisher.jpg","1",".","37","0","450"
"17","17","encoding","encoding","83","Toy_GasPump.jpg","3",".","37","0","527"
"17","17","encoding","encoding","84","WashRack.jpg","1",".","37","0","636"
"17","17","encoding","encoding","85","Hammer_Reflex.jpg","1",".","37","0","450"
"17","17","encoding","encoding","86","NeedlesAcupuncture.jpg","3",".","37","0","383"
"17","17","encoding","encoding","87","Toy_StackingRing.jpg","3",".","37","0","293"
"17","17","encoding","encoding","88","Tortilla.jpg","3",".","37","0","714"
"17","17","encoding","encoding","89","Toy_Moose.jpg","3",".","36","0","680"
"17","17","encoding","encoding","90","Cantaloupe.jpg","1",".","36","0","597"
"17","17","encoding","encoding","91","Cherry.jpg","3",".","36","0","522"
"17","17","encoding","encoding","92","DryRack_Dishes.jpg","3",".","37","0","560"
"17","17","encoding","encoding","93","Cassette_Audio.jpg","3",".","37","0","485"
"17","17","encoding","encoding","94","Car_Sedan.jpg","3",".","37","0","561"
"17","17","encoding","encoding","95","Toy_BlocksPlastic Colourful.jpg","1",".","37","0","503"
"17","17","encoding","encoding","96","Glove_Rubber.jpg","3",".","37","0","692"
"17","17","encoding","encoding","97","Jar_JellyBeans.jpg","3",".","37","0","490"
"17","17","encoding","encoding","98","DoorKnob.jpg","3",".","37","0","439"
"17","17","encoding","encoding","99","Cup_Styrofoam.jpg","3",".","37","0","452"
"17","17","encoding","encoding","100","Mug_Beer.jpg","1",".","37","0","474"
"17","17","encoding","encoding","101","MouthGuard.jpg","3",".","37","0","463"
"17","17","encoding","encoding","102","Bullet.jpg","3",".","37","0","469"
"17","17","encoding","encoding","103","Toy_RockingHorseBlack.jpg","1",".","37","0","474"
"17","17","encoding","encoding","104","Goose_Canadian.jpg","3",".","36","0","664"
"17","17","encoding","encoding","105","BadgeSpecialAgent.jpg","3",".","36","0","629"
"17","17","encoding","encoding","106","Spoon_Wooden.jpg","3",".","37","0","482"
"17","17","encoding","encoding","107","Beater_Electric.jpg","3",".","37","0","520"
"17","17","encoding","encoding","108","Autocreeper.jpg","1",".","37","0","532"
"17","17","encoding","encoding","109","Lock_Combination.jpg","1",".","37","0","483"
"17","17","encoding","encoding","110","Box_Floral.jpg","3",".","37","0","455"
"17","17","encoding","encoding","111","Stove_Camping.jpg","3",".","37","0","541"
"17","17","encoding","encoding","112","Stove_Camping.jpg","3",".","37","0","506"
"17","17","encoding","encoding","113","Sign_Parking.jpg","3",".","37","0","655"
"17","17","encoding","encoding","114","Thermostat_Digital.jpg","1",".","37","0","460"
"17","17","encoding","encoding","115","Toy_Shapesorter.jpg","1",".","37","0","450"
"17","17","encoding","encoding","116","Chair_MedicalToilet.jpg","1",".","37","0","511"
"17","17","encoding","encoding","117","FlashlightHeadBand.jpg","1",".","37","0","532"
"17","17","encoding","encoding","118","Phone_Wireless.jpg","3",".","36","0","857"
"17","17","encoding","encoding","119","TeethMould.jpg","3",".","37","0","383"
"17","17","encoding","encoding","120","PaintBrushAndPallette.jpg","3",".","37","0","652"
"17","17","encoding","encoding","121","Trophy.jpg","3",".","37","0","617"
"17","17","encoding","encoding","122","Mitt_Oven.jpg","1",".","37","0","566"
"17","17","encoding","encoding","123","Almond.jpg","1",".","37","0","652"
"17","17","encoding","encoding","124","Speaker_OnStand.jpg","3",".","37","0","641"
"17","17","encoding","encoding","125","Goose_Canadian.jpg","3",".","36","0","710"
"17","17","encoding","encoding","126","NeedlesAcupuncture.jpg","3",".","37","0","524"
"17","17","encoding","encoding","127","Bird_Cardinal.jpg","3",".","36","0","521"
"17","17","encoding","encoding","128","Knife_Hunting.jpg","3",".","37","0","535"
"17","17","encoding","encoding","129","Bowl_Chinese.jpg","3",".","37","0","516"
"17","17","encoding","encoding","130","LeatherPuncherTool.jpg","3",".","37","0","546"
"17","17","encoding","encoding","131","Bottle_Blue.jpg","3",".","37","0","519"
"17","17","encoding","encoding","133","Sign_Wetfloor.jpg","3",".","37","0","439"
"17","17","encoding","encoding","134","Drink_Green.jpg","3",".","36","0","652"
"17","17","encoding","encoding","135","Chest.jpg","1",".","37","0","385"
"17","17","encoding","encoding","136","Jar_JellyBeans.jpg","3",".","37","0","423"
"17","17","encoding","encoding","137","CookieCutter_Bell.jpg","1",".","37","0","556"
"17","17","encoding","encoding","138","Skates.jpg","3",".","37","0","490"
"17","17","encoding","encoding","139","LeatherPuncherTool.jpg","3",".","37","0","407"
"17","17","encoding","encoding","140","Tickets_Blank.jpg","3",".","37","0","445"
"17","17","encoding","encoding","141","Hourglass.jpg","3",".","37","0","442"
"17","17","encoding","encoding","142","Mat_Door.jpg","3",".","37","0","543"
"17","17","encoding","encoding","143","Drink_Green.jpg","3",".","37","0","477"
"17","17","encoding","encoding","144","Trumpet.jpg","3",".","37","0","466"
"17","17","encoding","encoding","145","NintendoWii.jpg","3",".","37","0","432"
"17","17","encoding","encoding","146","Blanket.jpg","1",".","37","0","493"
"17","17","encoding","encoding","147","Flute_Wooden.jpg","1",".","37","0","419"
"17","17","encoding","encoding","148","Pants_Jeans.jpg","1",".","37","0","480"
"17","17","encoding","encoding","149","Desk_School.jpg","3",".","37","0","461"
"17","17","encoding","encoding","150","Pitcher.jpg","1",".","37","0","395"
"17","17","encoding","encoding","151","GPS.jpg","3",".","37","0","944"
"17","17","encoding","encoding","152","Cassette_Audio.jpg","3",".","37","0","469"
"17","17","encoding","encoding","153","Mop.jpg","1",".","37","0","506"
"17","17","encoding","encoding","154","PuppetTheatre_WhiteGold.jpg","3",".","0","0","1000"
"17","17","encoding","encoding","155","Cup_Styrofoam.jpg","3",".","37","0","485"
"17","17","encoding","encoding","156","BusStop.jpg","1",".","37","0","778"
"17","17","encoding","encoding","157","Candy_Heart.jpg","3",".","37","0","799"
"17","17","encoding","encoding","158","Fruit_Cactus.jpg","1",".","36","0","691"
"17","17","encoding","encoding","159","Bottle_Wine.jpg","1",".","37","0","521"
"17","17","encoding","encoding","160","Knee.jpg","3",".","37","0","566"
"17","17","encoding","encoding","161","Hippopotamus.jpg","3",".","36","0","635"
"17","17","encoding","encoding","162","Phone_Wireless.jpg","3",".","37","0","433"
"17","17","encoding","encoding","163","Bottle_Blue.jpg","3",".","37","0","470"
"17","17","encoding","encoding","164","Shampoo.jpg","3",".","37","0","540"
"17","17","encoding","encoding","165","PaintRollTray.jpg","3",".","37","0","505"
"17","17","encoding","encoding","166","Hook_Fish.jpg","3",".","37","0","503"
"17","17","encoding","encoding","167","Paratrooper.jpg","3",".","37","0","492"
"17","17","encoding","encoding","168","Skates.jpg","3",".","37","0","537"
"17","17","encoding","encoding","169","Car_Sedan.jpg","3",".","37","0","463"
"17","17","encoding","encoding","170","Mattress.jpg","3",".","37","0","484"
"17","17","encoding","encoding","171","PassionFruit.jpg","3",".","37","0","385"
"17","17","encoding","encoding","172","DoorKnob.jpg","3",".","37","0","542"
"17","17","encoding","encoding","173","RemoteControl.jpg","3",".","37","0","436"
"17","17","encoding","encoding","174","Dress_Party.jpg","1",".","36","0","464"
"17","17","encoding","encoding","175","Bullet.jpg","3",".","37","0","582"
"17","17","encoding","encoding","176","PotatoMasher_Zigzag.jpg","3",".","37","0","515"
"17","17","encoding","encoding","177","Pineapple.jpg","3",".","36","0","545"
"17","17","encoding","encoding","178","Chest_Toys.jpg","3",".","37","0","502"
"17","17","encoding","encoding","179","Flamingo_Cartoon.jpg","1",".","36","0","532"
"17","17","encoding","encoding","180","PaintRollTray.jpg","3",".","37","0","497"
"17","17","encoding","encoding","181","Steeple.jpg","3",".","37","0","447"
"17","17","encoding","encoding","182","Hippopotamus.jpg","3",".","36","0","580"
"17","17","encoding","encoding","183","BicyclePedal.jpg","3",".","37","0","545"
"17","17","encoding","encoding","184","Hook_Fish.jpg","3",".","36","0","567"
"17","17","encoding","encoding","185","Oyster.jpg","3",".","37","0","412"
"17","17","encoding","encoding","186","Lilypad.jpg","3",".","36","0","594"
"17","17","encoding","encoding","187","JukeboxAntique.jpg","3",".","37","0","407"
"17","17","encoding","encoding","188","Fuse.jpg","3",".","37","0","468"
"17","17","encoding","encoding","189","Phone_Wireless.jpg","3",".","37","0","610"
"17","17","encoding","encoding","190","CandyDispenser.jpg","1",".","37","0","399"
"17","17","encoding","encoding","191","Speaker_OnStand.jpg","3",".","37","0","356"
"17","17","encoding","encoding","192","Knee.jpg","3",".","37","0","442"
"17","17","encoding","encoding","193","Tickets_Blank.jpg","3",".","37","0","511"
"17","17","encoding","encoding","194","Apple_RedAndGreen.jpg","1",".","36","0","532"
"17","17","encoding","encoding","195","Trophy.jpg","3",".","37","0","465"
"17","17","encoding","encoding","196","DoorKnob.jpg","3",".","37","0","423"
"17","17","encoding","encoding","197","Desk_School.jpg","3",".","37","0","468"
"17","17","encoding","encoding","199","Tortilla.jpg","3",".","0","0","1000"
"17","17","encoding","encoding","200","NailPolish.jpg","3",".","37","0","864"
"17","17","encoding","encoding","201","NintendoWii.jpg","3",".","37","0","422"
"17","17","encoding","encoding","202","TeethMould.jpg","3",".","37","0","651"
"17","17","encoding","encoding","203","Spoons_MeasuringDetached.jpg","1",".","37","0","408"
"17","17","encoding","encoding","204","Sign_Wetfloor.jpg","3",".","37","0","470"
"17","17","encoding","encoding","205","Paratrooper.jpg","3",".","37","0","339"
"17","17","encoding","encoding","206","Box_Floral.jpg","3",".","37","0","399"
"17","17","encoding","encoding","207","TartStrawberry.jpg","3",".","37","0","317"
"17","17","encoding","encoding","208","PotatoMasher_Zigzag.jpg","3",".","37","0","459"
"17","17","encoding","encoding","209","JukeboxAntique.jpg","3",".","37","0","519"
"17","17","encoding","encoding","210","Hourglass.jpg","3",".","37","0","533"
"17","17","encoding","encoding","211","fries.jpg","1",".","36","0","506"
"17","17","encoding","encoding","212","ShoulderPads.jpg","1",".","37","0","560"
"17","17","encoding","encoding","213","Hook_Fish.jpg","3",".","36","0","636"
"17","17","encoding","encoding","214","Nyala.jpg","3",".","36","0","530"
"17","17","encoding","encoding","215","Sign_Parking.jpg","3",".","37","0","463"
"17","17","encoding","encoding","216","Fish_Rockbass.jpg","1",".","36","0","517"
"17","17","encoding","encoding","217","Peppermill.jpg","1",".","37","0","586"
"17","17","encoding","encoding","218","Goose_Canadian.jpg","3",".","36","0","552"
"17","17","encoding","encoding","219","Shampoo.jpg","3",".","37","0","525"
"17","17","encoding","encoding","220","Skates.jpg","3",".","37","0","498"
"17","17","encoding","encoding","221","Toy_Moose.jpg","3",".","36","0","600"
"17","17","encoding","encoding","222","Mask_Happy.jpg","1",".","37","0","725"
"17","17","encoding","encoding","223","Bellows.jpg","3",".","37","0","507"
"17","17","encoding","encoding","224","Teabag.jpg","3",".","37","0","424"
"17","17","encoding","encoding","225","Cup_Styrofoam.jpg","3",".","37","0","462"
"17","17","encoding","encoding","226","PuppetTheatre_WhiteGold.jpg","3",".","37","0","531"
"17","17","encoding","encoding","227","Oyster.jpg","3",".","36","0","728"
"17","17","encoding","encoding","228","StringBean.jpg","3",".","36","0","790"
"17","17","encoding","encoding","229","Chest_Toys.jpg","3",".","37","0","499"
"17","17","encoding","encoding","230","Tortilla.jpg","3",".","37","0","713"
"17","17","encoding","encoding","231","Candy_Heart.jpg","3",".","37","0","678"
"17","17","encoding","encoding","232","Helmet_Construction.jpg","1",".","37","0","492"
"17","17","encoding","encoding","233","Wheelbarrow_Green.jpg","1",".","37","0","497"
"17","17","encoding","encoding","234","IceCrusher.jpg","3",".","37","0","422"
"17","17","encoding","encoding","235","Bellows.jpg","3",".","37","0","443"
"17","17","encoding","encoding","236","Generator.jpg","3",".","37","0","401"
"17","17","encoding","encoding","237","WindowBlinds.jpg","3",".","37","0","269"
"17","17","encoding","encoding","238","DentistOverheadLight.jpg","1",".","37","0","435"
"17","17","encoding","encoding","239","TartStrawberry.jpg","3",".","36","0","472"
"17","17","encoding","encoding","240","BicycleHandleGrip.jpg","1",".","37","0","446"
"17","17","encoding","encoding","241","Mat_Door.jpg","3",".","37","0","387"
"17","17","encoding","encoding","242","BicyclePedal.jpg","3",".","37","0","400"
"17","17","encoding","encoding","243","RemoteControl.jpg","3",".","37","0","422"
"17","17","encoding","encoding","244","StringBean.jpg","3",".","36","0","507"
"17","17","encoding","encoding","245","Box_Jewellery.jpg","1",".","37","0","497"
"17","17","encoding","encoding","246","Lilypad.jpg","3",".","36","0","574"
"17","17","encoding","encoding","247","IceCrusher.jpg","3",".","37","0","444"
"17","17","encoding","encoding","248","Mattress.jpg","3",".","37","0","433"
"17","17","encoding","encoding","249","Toy_Witch.jpg","3",".","36","0","430"
"17","17","encoding","encoding","250","Sign_Parking.jpg","3",".","37","0","411"
"17","17","encoding","encoding","251","Fuse.jpg","3",".","37","0","353"
"17","17","encoding","encoding","252","Stove_Camping.jpg","3",".","37","0","341"
"17","17","encoding","encoding","253","Fuse.jpg","3",".","37","0","411"
"17","17","encoding","encoding","254","Sushi.jpg","1",".","37","0","240"
"17","17","encoding","encoding","255","PassionFruit.jpg","3",".","36","0","510"
"17","17","encoding","encoding","256","Chair_BeanBag.jpg","3",".","37","0","596"
"17","17","encoding","encoding","257","WindowBlinds.jpg","3",".","37","0","456"
"17","17","encoding","encoding","258","Steeple.jpg","3",".","37","0","541"
"17","17","encoding","encoding","259","Light_Siren.jpg","1",".","37","0","546"
"17","17","encoding","encoding","260","Knife_Hunting.jpg","3",".","37","0","432"
"17","17","encoding","encoding","261","TinChristmas.jpg","1",".","37","0","453"
"17","17","encoding","encoding","262","GPS.jpg","3",".","37","0","395"
"17","17","encoding","encoding","263","Teabag.jpg","3",".","37","0","576"
"17","17","encoding","encoding","265","Desk_School.jpg","3",".","37","0","537"
"17","17","encoding","encoding","266","Shoes_DutchClogs.jpg","1",".","37","0","494"
"17","17","encoding","encoding","267","Lilypad.jpg","3",".","36","0","508"
"17","17","encoding","encoding","268","Toy_GasPump.jpg","3",".","37","0","457"
"17","17","encoding","encoding","269","Helmet_Soldier.jpg","1",".","37","0","486"
"17","17","encoding","encoding","270","Cassette_Audio.jpg","3",".","37","0","379"
"17","17","encoding","encoding","271","MonkeyPuppet.jpg","3",".","37","0","353"
"17","17","encoding","encoding","272","Balalaika.jpg","3",".","37","0","534"
"17","17","encoding","encoding","273","DryRack_Dishes.jpg","3",".","37","0","435"
"17","17","encoding","encoding","274","BadgeSpecialAgent.jpg","3",".","37","0","425"
"17","17","encoding","encoding","275","Toy_StackingRing.jpg","3",".","37","0","438"
"17","17","encoding","encoding","276","Jar_JellyBeans.jpg","3",".","37","0","548"
"17","17","encoding","encoding","277","NailPolish.jpg","3",".","37","0","361"
"17","17","encoding","encoding","278","TeethMould.jpg","3",".","37","0","639"
"17","17","encoding","encoding","279","Knife_Hunting.jpg","3",".","37","0","476"
"17","17","encoding","encoding","280","Sign_Wetfloor.jpg","3",".","37","0","457"
"17","17","encoding","encoding","281","Candy_Chocolate.jpg","1",".","37","0","799"
"17","17","encoding","encoding","282","Toy_StackingRing.jpg","3",".","37","0","412"
"17","17","encoding","encoding","283","Drink_Green.jpg","3",".","37","0","426"
"17","17","encoding","encoding","284","Spoon_Wooden.jpg","3",".","37","0","455"
"17","17","encoding","encoding","285","PaintBrushAndPallette.jpg","3",".","37","0","412"
"17","17","encoding","encoding","286","PaintBrushAndPallette.jpg","3",".","37","0","426"
"17","17","encoding","encoding","287","Guitarcase.jpg","3",".","37","0","431"
"17","17","encoding","encoding","288","IceCream_Chocolate.jpg","1",".","36","0","636"
"17","17","encoding","encoding","289","Trumpet.jpg","3",".","37","0","490"
"17","17","encoding","encoding","290","GasBurner.jpg","1",".","37","0","383"
"17","17","encoding","encoding","291","Megaphone.jpg","3",".","37","0","500"
"17","17","encoding","encoding","292","Speaker_OnStand.jpg","3",".","37","0","538"
"17","17","encoding","encoding","293","PaintRollTray.jpg","3",".","37","0","423"
"17","17","encoding","encoding","294","Car_Sedan.jpg","3",".","37","0","437"
"17","17","encoding","encoding","295","Candy_Heart.jpg","3",".","37","0","402"
"17","17","encoding","encoding","296","Megaphone.jpg","3",".","37","0","424"
"17","17","encoding","encoding","297","NeedlesAcupuncture.jpg","3",".","37","0","357"
"17","17","encoding","encoding","298","Ashtray_Empty.jpg","3",".","37","0","498"
"17","17","encoding","encoding","299","Notebook.jpg","1",".","37","0","352"
"17","17","encoding","encoding","300","Clip_Paper.jpg","3",".","37","0","389"
"17","17","encoding","encoding","301","Guitarcase.jpg","3",".","37","0","331"
"17","17","encoding","encoding","302","Saw.jpg","1",".","37","0","432"
"17","17","encoding","encoding","303","SculptureMetalFish.jpg","1",".","37","0","302"
"17","17","encoding","encoding","304","Candle_Blue.jpg","1",".","37","0","291"
"17","17","encoding","encoding","305","Glove_Rubber.jpg","3",".","37","0","287"
"17","17","encoding","encoding","306","Nyala.jpg","3",".","36","0","702"
"17","17","encoding","encoding","307","ButterDish.jpg","1",".","37","0","442"
"17","17","encoding","encoding","308","NailPolish.jpg","3",".","37","0","384"
"17","17","encoding","encoding","309","SmokeDetector.jpg","1",".","37","0","349"
"17","17","encoding","encoding","310","PassionFruit.jpg","3",".","37","0","395"
"17","17","encoding","encoding","311","Leaf_Clover.jpg","1",".","36","0","544"
"17","17","encoding","encoding","312","StringBean.jpg","3",".","36","0","525"
"17","17","encoding","encoding","313","Balalaika.jpg","3",".","37","0","563"
"17","17","encoding","encoding","314","MonkeyPuppet.jpg","3",".","37","0","432"
"17","17","encoding","encoding","315","Beater_Electric.jpg","3",".","37","0","742"
"17","17","encoding","encoding","316","Knee.jpg","3",".","37","0","427"
"17","17","encoding","encoding","317","Box_Floral.jpg","3",".","37","0","537"
"17","17","encoding","encoding","318","Bathtub.jpg","1",".","37","0","526"
"17","17","encoding","encoding","319","Pineapple.jpg","3",".","36","0","428"
"17","17","encoding","encoding","320","Spoon_Wooden.jpg","3",".","37","0","625"
"17","17","encoding","encoding","321","CameoPortrait.jpg","1",".","37","0","790"
"17","17","encoding","encoding","322","JukeboxAntique.jpg","3",".","37","0","516"
"17","17","encoding","encoding","323","Cherry.jpg","3",".","36","0","513"
"17","17","encoding","encoding","324","PuppetTheatre_WhiteGold.jpg","3",".","37","0","431"
"17","17","encoding","encoding","325","Lollipop_Grape.jpg","",".","37","0","428"
"17","17","retrieval","old_object","1","MouthGuard.jpg",".","3","37","0","709"
"17","17","retrieval","new_object","2","Seashell_AlternateTellin.jpg",".",".","36","0","290"
"17","17","retrieval","old_object","3","Mango.jpg",".","1","36","1","576"
"17","17","retrieval","new_object","4","PropellerFan.jpg",".",".","36","0","85"
"17","17","retrieval","new_object","5","KeyHook_Occupied.jpg",".",".","37","1","63"
"17","17","retrieval","old_object","6","Toy_Shapesorter.jpg",".","1","37","0","692"
"17","17","retrieval","old_object","7","PaintRollTray.jpg",".","3","36","1","662"
"17","17","retrieval","new_object","8","Hawk.jpg",".",".","36","0","514"
"17","17","retrieval","new_object","9","Pajamas.jpg",".",".","37","1","172"
"17","17","retrieval","new_object","10","Decoration_WallOrnament.jpg",".",".","37","1","230"
"17","17","retrieval","new_object","11","CuttingBoard.jpg",".",".","37","1","807"
"17","17","retrieval","new_object","12","RibbonSpool.jpg",".",".","37","1","720"
"17","17","retrieval","old_object","13","Jar_JellyBeans.jpg",".","3","37","0","910"
"17","17","retrieval","old_object","14","Candy_Heart.jpg",".","3","37","0","680"
"17","17","retrieval","old_object","15","Fish_Rockbass.jpg",".","1","36","1","1401"
"17","17","retrieval","new_object","16","Shield_Antique.jpg",".",".","37","1","583"
"17","17","retrieval","new_object","17","Pot_Cooking.jpg",".",".","37","1","768"
"17","17","retrieval","old_object","18","SmokeDetector.jpg",".","1","37","0","646"
"17","17","retrieval","old_object","19","Bottle_Blue.jpg",".","3","37","0","487"
"17","17","retrieval","old_object","20","Keg.jpg",".","1","37","0","881"
"17","17","retrieval","old_object","21","Car_Sedan.jpg",".","3","37","0","1234"
"17","17","retrieval","new_object","22","BoogieBoard.jpg",".",".","37","1","504"
"17","17","retrieval","new_object","23","Pasta_Spaghetti.jpg",".",".","37","1","1217"
"17","17","retrieval","old_object","24","Saw.jpg",".","1","36","1","1207"
"17","17","retrieval","new_object","25","Frame_Oval.jpg",".",".","37","1","269"
"17","17","retrieval","old_object","26","Chair_BeanBag.jpg",".","3","37","0","914"
"17","17","retrieval","new_object","27","BicycleOdometer.jpg",".",".","0","0","1500"
"17","17","retrieval","new_object","28","ContactLens.jpg",".",".","37","1","249"
"17","17","retrieval","new_object","29","Box_FirstAidOpen.jpg",".",".","37","1","67"
"17","17","retrieval","new_object","30","Chopsticks.jpg",".",".","37","1","572"
"17","17","retrieval","old_object","31","Beater_Electric.jpg",".","3","37","0","578"
"17","17","retrieval","old_object","32","Dress_Party.jpg",".","1","37","0","795"
"17","17","retrieval","old_object","33","DentistOverheadLight.jpg",".","1","37","0","597"
"17","17","retrieval","old_object","34","ButterDish.jpg",".","1","37","0","670"
"17","17","retrieval","old_object","35","PaintBrushAndPallette.jpg",".","3","36","1","776"
"17","17","retrieval","new_object","36","PaintRoller.jpg",".",".","37","1","853"
"17","17","retrieval","new_object","37","Glass_Cup.jpg",".",".","37","1","7"
"17","17","retrieval","new_object","38","KitchenTools.jpg",".",".","37","1","129"
"17","17","retrieval","old_object","39","Teabag.jpg",".","3","36","1","710"
"17","17","retrieval","new_object","40","Toy_PoliceCar.jpg",".",".","37","1","763"
"17","17","retrieval","new_object","41","Kite_Rainbow.jpg",".",".","37","1","149"
"17","17","retrieval","old_object","42","Candy_Chocolate.jpg",".","1","37","0","634"
"17","17","retrieval","new_object","43","HumanSkeleton.jpg",".",".","36","0","175"
"17","17","retrieval","old_object","44","BusStop.jpg",".","1","37","0","517"
"17","17","retrieval","new_object","45","Tape_Washi.jpg",".",".","37","1","186"
"17","17","retrieval","new_object","46","Broom_Long.jpg",".",".","37","1","668"
"17","17","retrieval","new_object","47","Bottle_BubbleBlower.jpg",".",".","37","1","37"
"17","17","retrieval","new_object","48","Comb.jpg",".",".","37","1","63"
"17","17","retrieval","old_object","49","TinChristmas.jpg",".","1","37","0","1165"
"17","17","retrieval","old_object","50","Autocreeper.jpg",".","1","37","0","990"
"17","17","retrieval","old_object","51","Pants_Jeans.jpg",".","1","37","0","1231"
"17","17","retrieval","old_object","52","GPS.jpg",".","3","37","0","737"
"17","17","retrieval","new_object","53","Bench_Wooden.jpg",".",".","37","1","31"
"17","17","retrieval","new_object","54","Toolbox_RedOpen.jpg",".",".","37","1","352"
"17","17","retrieval","old_object","55","Mitt_Oven.jpg",".","1","37","0","462"
"17","17","retrieval","old_object","56","Toy_Moose.jpg",".","3","37","0","1031"
"17","17","retrieval","new_object","57","Tire_Hollow.jpg",".",".","37","1","565"
"17","17","retrieval","old_object","58","Stove_Camping.jpg",".","3","37","0","450"
"17","17","retrieval","old_object","59","CookieCutter_Bell.jpg",".","1","37","0","516"
"17","17","retrieval","new_object","60","DrillBit.jpg",".",".","37","1","97"
"17","17","retrieval","new_object","61","AnsweringMachine.jpg",".",".","37","1","195"
"17","17","retrieval","old_object","62","DoorBell.jpg",".","1","37","0","616"
"17","17","retrieval","new_object","63","Crib_Basket.jpg",".",".","37","1","446"
"17","17","retrieval","new_object","64","Toy_SeeSaw.jpg",".",".","37","1","264"
"17","17","retrieval","new_object","65","BicycleChain.jpg",".",".","37","1","225"
"17","17","retrieval","old_object","67","Trophy.jpg",".","3","37","0","1086"
"17","17","retrieval","new_object","68","Drum_Brazilan.jpg",".",".","37","1","660"
"17","17","retrieval","old_object","69","SculptureMetalFish.jpg",".","1","37","0","728"
"17","17","retrieval","old_object","70","Almond.jpg",".","1","37","0","938"
"17","17","retrieval","new_object","71","Hat_Baseball.jpg",".",".","37","1","47"
"17","17","retrieval","new_object","72","Wheel_Steering.jpg",".",".","37","1","473"
"17","17","retrieval","new_object","73","Screw.jpg",".",".","36","0","251"
"17","17","retrieval","old_object","74","MonkeyPuppet.jpg",".","3","37","0","592"
"17","17","retrieval","old_object","75","FireExtinguisher.jpg",".","1","37","0","698"
"17","17","retrieval","new_object","76","Cross.jpg",".",".","36","0","703"
"17","17","retrieval","new_object","77","Flower_Hibiscus.jpg",".",".","36","0","473"
"17","17","retrieval","new_object","78","Pig.jpg",".",".","37","1","722"
"17","17","retrieval","new_object","79","DivingBoard.jpg",".",".","37","1","252"
"17","17","retrieval","old_object","80","LeatherPuncherTool.jpg",".","3","37","0","641"
"17","17","retrieval","old_object","81","Sign_Parking.jpg",".","3","37","0","979"
"17","17","retrieval","new_object","82","Toy_TableSet.jpg",".",".","37","1","256"
"17","17","retrieval","new_object","83","Carbiner_Ascender.jpg",".",".","37","1","570"
"17","17","retrieval","old_object","84","Bowl_Chinese.jpg",".","3","37","0","695"
"17","17","retrieval","new_object","85","Cabinet_Office.jpg",".",".","36","0","533"
"17","17","retrieval","new_object","86","Strainer_Tea.jpg",".",".","37","1","255"
"17","17","retrieval","new_object","87","Bugle.jpg",".",".","37","1","192"
"17","17","retrieval","new_object","88","Tribunal_Wooden.jpg",".",".","37","1","218"
"17","17","retrieval","old_object","89","DoorKnob.jpg",".","3","37","0","663"
"17","17","retrieval","old_object","90","Pipe_Drain.jpg",".","1","37","0","761"
"17","17","retrieval","new_object","91","Chipmunk.jpg",".",".","37","1","462"
"17","17","retrieval","old_object","92","HairDryer.jpg",".","1","37","0","684"
"17","17","retrieval","old_object","93","Chest.jpg",".","1","37","0","765"
"17","17","retrieval","new_object","94","SundaeBanana.jpg",".",".","37","1","715"
"17","17","retrieval","old_object","95","Table_Poker.jpg",".","1","37","0","760"
"17","17","retrieval","old_object","96","WindowBlinds.jpg",".","3","37","0","594"
"17","17","retrieval","old_object","97","Toy_Witch.jpg",".","3","37","0","516"
"17","17","retrieval","old_object","98","Pineapple.jpg",".","3","36","1","1021"
"17","17","retrieval","new_object","99","MobilityScooter.jpg",".",".","37","1","211"
"17","17","retrieval","old_object","100","Thermostat_Digital.jpg",".","1","37","0","695"
"17","17","retrieval","old_object","101","BottleOpener.jpg",".","1","37","0","761"
"17","17","retrieval","old_object","102","CandyDispenser.jpg",".","1","37","0","786"
"17","17","retrieval","old_object","103","Bird_Cardinal.jpg",".","3","37","0","916"
"17","17","retrieval","new_object","104","Gorilla.jpg",".",".","37","1","417"
"17","17","retrieval","new_object","105","GranolaBar.jpg",".",".","37","1","835"
"17","17","retrieval","old_object","106","Phone_Wireless.jpg",".","3","36","1","1240"
"17","17","retrieval","new_object","107","SmokingPipe.jpg",".",".","36","0","446"
"17","17","retrieval","old_object","108","Flamingo_Cartoon.jpg",".","1","37","0","1147"
"17","17","retrieval","old_object","109","Cassette_Audio.jpg",".","3","37","0","1149"
"17","17","retrieval","new_object","110","Telescope.jpg",".",".","36","0","354"
"17","17","retrieval","new_object","111","Flower_Orchid.jpg",".",".","37","1","380"
"17","17","retrieval","old_object","112","DogTreat.jpg",".","1","37","0","1290"
"17","17","retrieval","old_object","113","IceCrusher.jpg",".","3","37","0","771"
"17","17","retrieval","new_object","114","Toy_Lighthouse.jpg",".",".","37","1","353"
"17","17","retrieval","new_object","115","Fencing_HelmetSwords.jpg",".",".","37","1","122"
"17","17","retrieval","old_object","116","Lollipop_Grape.jpg",".","1","37","0","968"
"17","17","retrieval","old_object","117","Cake_Wedding.jpg",".","1","37","0","785"
"17","17","retrieval","old_object","118","MonaLisa.jpg",".","1","36","1","859"
"17","17","retrieval","new_object","119","Dress_Blue.jpg",".",".","37","1","208"
"17","17","retrieval","old_object","120","Speaker_OnStand.jpg",".","3","37","0","998"
"17","17","retrieval","new_object","121","Box_Present.jpg",".",".","37","1","403"
"17","17","retrieval","new_object","122","Tweezers.jpg",".",".","36","0","605"
"17","17","retrieval","new_object","123","CoffeeGrinder.jpg",".",".","37","1","158"
"17","17","retrieval","new_object","124","ElasticBand.jpg",".",".","36","0","288"
"17","17","retrieval","old_object","125","Generator.jpg",".","3","37","0","774"
"17","17","retrieval","new_object","126","FlipFlop_PairBlue.jpg",".",".","36","0","403"
"17","17","retrieval","old_object","127","Flute_Wooden.jpg",".","1","36","1","1065"
"17","17","retrieval","new_object","128","Shoe_Pink.jpg",".",".","37","1","582"
"17","17","retrieval","new_object","129","Hockey_Equipment.jpg",".",".","37","1","912"
"17","17","retrieval","old_object","130","Hourglass.jpg",".","3","37","0","909"
"17","17","retrieval","old_object","131","PotatoMasher_Zigzag.jpg",".","3","37","0","1286"
"17","17","retrieval","new_object","133","Tofu.jpg",".",".","37","1","584"
"17","17","retrieval","old_object","134","Clip_Paper.jpg",".","3","37","0","1069"
"17","17","retrieval","old_object","135","Balalaika.jpg",".","3","37","0","791"
"17","17","retrieval","new_object","136","Jar_Cotton.jpg",".",".","37","1","84"
"17","17","retrieval","old_object","137","BicycleBrake.jpg",".","1","37","0","586"
"17","17","retrieval","old_object","138","Bellows.jpg",".","3","37","0","555"
"17","17","retrieval","old_object","139","Sushi.jpg",".","1","37","0","701"
"17","17","retrieval","old_object","140","DryRack_Dishes.jpg",".","3","37","0","503"
"17","17","retrieval","new_object","141","Crutches.jpg",".",".","37","1","100"
"17","17","retrieval","old_object","142","Knife_Hunting.jpg",".","3","37","0","578"
"17","17","retrieval","old_object","143","BicycleHandleGrip.jpg",".","1","36","1","1403"
"17","17","retrieval","old_object","144","Guitarcase.jpg",".","3","36","1","1525"
"17","17","retrieval","old_object","145","Lilypad.jpg",".","3","36","1","1606"
"17","17","retrieval","new_object","146","Outhouse.jpg",".",".","36","0","428"
"17","17","retrieval","new_object","147","Sign_TrafficArrow.jpg",".",".","37","1","645"
"17","17","retrieval","new_object","148","Boxcutter.jpg",".",".","37","1","150"
"17","17","retrieval","old_object","149","BicyclePedal.jpg",".","3","37","0","588"
"17","17","retrieval","old_object","150","Bathtub.jpg",".","1","37","0","958"
"17","17","retrieval","old_object","151","Trumpet.jpg",".","3","37","0","599"
"17","17","retrieval","new_object","152","Caterpillar.jpg",".",".","37","1","532"
"17","17","retrieval","old_object","153","Toy_StackingRing.jpg",".","3","37","0","570"
"17","17","retrieval","old_object","154","Nyala.jpg",".","3","36","1","1243"
"17","17","retrieval","new_object","155","Thermostat.jpg",".",".","37","1","297"
"17","17","retrieval","old_object","156","Bottle_Wine.jpg",".","1","37","0","1190"
"17","17","retrieval","new_object","157","SafetyPin.jpg",".",".","36","0","452"
"17","17","retrieval","new_object","158","BicycleGear.jpg",".",".","36","0","349"
"17","17","retrieval","old_object","159","Candle_Blue.jpg",".","1","36","1","995"
"17","17","retrieval","new_object","160","Brooch_Fish.jpg",".",".","36","0","760"
"17","17","retrieval","new_object","161","Brace_Back.jpg",".",".","37","1","586"
"17","17","retrieval","new_object","162","Switch_LightWhite.jpg",".",".","37","1","1083"
"17","17","retrieval","old_object","163","WashRack.jpg",".","1","37","0","1401"
"17","17","retrieval","old_object","164","Hook_Fish.jpg",".","3","37","0","1691"
"17","17","retrieval","new_object","165","Chinchilla.jpg",".",".","36","0","1232"
"17","17","retrieval","new_object","166","Pipe.jpg",".",".","37","1","1290"
"17","17","retrieval","old_object","167","Drink_Green.jpg",".","3","36","1","1343"
"17","17","retrieval","new_object","168","Ball_8.jpg",".",".","36","0","549"
"17","17","retrieval","old_object","169","Mat_Door.jpg",".","3","37","0","746"
"17","17","retrieval","new_object","170","Statue_SouthAmerican.jpg",".",".","36","0","368"
"17","17","retrieval","new_object","171","CookieCutter_Tree.jpg",".",".","37","1","369"
"17","17","retrieval","old_object","172","Cherry.jpg",".","3","36","1","1543"
"17","17","retrieval","old_object","173","IceCream_Chocolate.jpg",".","1","0","0","2000"
"17","17","retrieval","new_object","174","Sock_Ankle.jpg",".",".","36","0","278"
"17","17","retrieval","new_object","175","ChessPiece_Knight.jpg",".",".","36","0","320"
"17","17","retrieval","new_object","176","PaperStack.jpg",".",".","36","0","673"
"17","17","retrieval","new_object","177","BloodpPresureCuff.jpg",".",".","36","0","619"
"17","17","retrieval","old_object","178","StringBean.jpg",".","3","36","1","952"
"17","17","retrieval","new_object","179","Waffle.jpg",".",".","37","1","533"
"17","17","retrieval","old_object","180","NailPolish.jpg",".","3","37","0","706"
"17","17","retrieval","old_object","181","Chest_Toys.jpg",".","3","37","0","868"
"17","17","retrieval","old_object","182","NintendoWii.jpg",".","3","37","0","613"
"17","17","retrieval","new_object","183","Currants.jpg",".",".","37","1","419"
"17","17","retrieval","new_object","184","Ball_Disco.jpg",".",".","37","1","188"
"17","17","retrieval","old_object","185","Megaphone.jpg",".","3","37","0","986"
"17","17","retrieval","old_object","186","Skates.jpg",".","3","37","0","1019"
"17","17","retrieval","old_object","187","Goose_Canadian.jpg",".","3","36","1","933"
"17","17","retrieval","new_object","188","Case_DVD.jpg",".",".","37","1","187"
"17","17","retrieval","new_object","189","Cage_Bird.jpg",".",".","37","1","92"
"17","17","retrieval","new_object","190","Gun_Glue.jpg",".",".","36","0","310"
"17","17","retrieval","new_object","191","Clock_Radio.jpg",".",".","37","1","551"
"17","17","retrieval","old_object","192","Apple_RedAndGreen.jpg",".","1","36","1","925"
"17","17","retrieval","new_object","193","Radio_Vintage.jpg",".",".","37","1","82"
"17","17","retrieval","new_object","194","Bandage_Wrap.jpg",".",".","37","1","228"
"17","17","retrieval","new_object","195","Iron_Antique.jpg",".",".","36","0","229"
"17","17","retrieval","old_object","196","Pitcher.jpg",".","1","36","1","643"
"17","17","retrieval","new_object","197","OnionRed.jpg",".",".","37","1","776"
"17","17","retrieval","new_object","199","Bomb.jpg",".",".","36","0","1001"
"17","17","retrieval","old_object","200","Cup_Styrofoam.jpg",".","3","37","0","750"
"17","17","retrieval","new_object","201","Knife_Butter.jpg",".",".","37","1","268"
"17","17","retrieval","new_object","202","Playground.jpg",".",".","37","1","110"
"17","17","retrieval","old_object","203","PassionFruit.jpg",".","3","36","1","1131"
"17","17","retrieval","new_object","204","ShearsGarden.jpg",".",".","36","0","305"
"17","17","retrieval","new_object","205","Hazelnut.jpg",".",".","36","0","538"
"17","17","retrieval","old_object","206","Knee.jpg",".","3","36","1","1000"
"17","17","retrieval","old_object","207","Shoes_DutchClogs.jpg",".","1","37","0","649"
"17","17","retrieval","new_object","208","Statue_VirginMary.jpg",".",".","37","1","127"
"17","17","retrieval","new_object","209","Jug_Milk.jpg",".",".","36","0","712"
"17","17","retrieval","old_object","210","Toy_BlocksPlastic Colourful.jpg",".","1","37","0","669"
"17","17","retrieval","old_object","211","CameoPortrait.jpg",".","1","36","1","798"
"17","17","retrieval","old_object","212","Mattress.jpg",".","3","37","0","680"
"17","17","retrieval","old_object","213","Desk_School.jpg",".","3","36","1","761"
"17","17","retrieval","new_object","214","PedestalGreek.jpg",".",".","36","0","431"
"17","17","retrieval","old_object","215","Fruit_Cactus.jpg",".","1","36","1","1605"
"17","17","retrieval","new_object","216","SaxophoneSoprano.jpg",".",".","36","0","666"
"17","17","retrieval","new_object","217","ToothPaste.jpg",".",".","37","1","388"
"17","17","retrieval","old_object","218","Bullet.jpg",".","3","36","1","1481"
"17","17","retrieval","new_object","219","Sink_Bathroom.jpg",".",".","37","1","687"
"17","17","retrieval","old_object","220","Sign_Wetfloor.jpg",".","3","37","0","844"
"17","17","retrieval","new_object","221","Hoverboard.jpg",".",".","37","1","138"
"17","17","retrieval","old_object","222","Mop.jpg",".","1","37","0","783"
"17","17","retrieval","new_object","223","ShoppingCart.jpg",".",".","37","1","125"
"17","17","retrieval","new_object","224","Boardgame_Checkers.jpg",".",".","37","1","822"
"17","17","retrieval","old_object","225","Tortilla.jpg",".","3","37","0","1100"
"17","17","retrieval","old_object","226","JukeboxAntique.jpg",".","3","37","0","510"
"17","17","retrieval","old_object","227","Chair_MedicalToilet.jpg",".","1","36","1","799"
"17","17","retrieval","new_object","228","Pickaxe.jpg",".",".","36","0","221"
"17","17","retrieval","new_object","229","Boots_KneeHigh.jpg",".",".","37","1","182"
"17","17","retrieval","new_object","230","Toy_DollOffice.jpg",".",".","36","0","904"
"17","17","retrieval","old_object","231","Light_Siren.jpg",".","1","37","0","733"
"17","17","retrieval","new_object","232","Toolbox_Old.jpg",".",".","37","1","67"
"17","17","retrieval","new_object","233","Makeup_Foundation.jpg",".",".","37","1","260"
"17","17","retrieval","old_object","234","Fortress.jpg",".","1","36","1","786"
"17","17","retrieval","old_object","235","Toy_GasPump.jpg",".","3","37","0","795"
"17","17","retrieval","new_object","236","Bindings_Snowboard.jpg",".",".","37","1","641"
"17","17","retrieval","old_object","237","Ashtray_Empty.jpg",".","3","36","1","1214"
"17","17","retrieval","old_object","238","BadgeSpecialAgent.jpg",".","3","37","0","992"
"17","17","retrieval","old_object","239","Hippopotamus.jpg",".","3","36","1","873"
"17","17","retrieval","new_object","240","Paddle_Beach.jpg",".",".","36","0","311"
"17","17","retrieval","new_object","241","TireRims.jpg",".",".","36","0","113"
"17","17","retrieval","new_object","242","Arch.jpg",".",".","37","1","889"
"17","17","retrieval","old_object","243","Mask_Happy.jpg",".","1","37","0","1007"
"17","17","retrieval","old_object","244","GasBurner.jpg",".","1","37","0","1480"
"17","17","retrieval","new_object","245","Dolphine.jpg",".",".","36","0","942"
"17","17","retrieval","new_object","246","Glass_Martini.jpg",".",".","36","0","351"
"17","17","retrieval","old_object","247","Oyster.jpg",".","3","36","1","621"
"17","17","retrieval","new_object","248","Helmet_Knight.jpg",".",".","37","1","210"
"17","17","retrieval","old_object","249","Spoon_Wooden.jpg",".","3","36","1","760"
"17","17","retrieval","new_object","250","Spatula_1.jpg",".",".","37","1","717"
"17","17","retrieval","old_object","251","Tickets_Blank.jpg",".","3","37","0","1019"
"17","17","retrieval","old_object","252","TartStrawberry.jpg",".","3","37","0","765"
"17","17","retrieval","new_object","253","Syrup_Maple.jpg",".",".","37","1","418"
"17","17","retrieval","old_object","254","Helmet_Construction.jpg",".","1","37","0","784"
"17","17","retrieval","old_object","255","Helmet_Soldier.jpg",".","1","36","1","641"
"17","17","retrieval","new_object","256","Can_OilSpout.jpg",".",".","36","0","247"
"17","17","retrieval","new_object","257","SewingMachine.jpg",".",".","36","0","200"
"17","17","retrieval","old_object","258","Colander.jpg",".","1","36","1","1086"
"17","17","retrieval","new_object","259","Cannister_Gas.jpg",".",".","37","1","291"
"17","17","retrieval","new_object","260","Dart.jpg",".",".","36","0","237"
"17","17","retrieval","old_object","261","Peppermill.jpg",".","1","36","1","1122"
"17","17","retrieval","old_object","262","Steeple.jpg",".","3","36","1","652"
"17","17","retrieval","old_object","263","MixingGlass.jpg",".","1","36","1","757"
"17","17","retrieval","new_object","265","Lighter_Yellow.jpg",".",".","0","0","1500"
"17","17","retrieval","new_object","266","Hottub.jpg",".",".","0","0","1500"
"17","17","retrieval","old_object","267","Blanket.jpg",".","1","0","0","2000"
"17","17","retrieval","old_object","268","Spoons_MeasuringDetached.jpg",".","1","0","0","2000"
"17","17","retrieval","new_object","269","Beaker.jpg",".",".","0","0","1500"
"17","17","retrieval","old_object","270","Box_Floral.jpg",".","3","0","0","2000"
"17","17","retrieval","new_object","271","Icepick.jpg",".",".","37","1","243"
"17","17","retrieval","new_object","272","CrepeMaker.jpg",".",".","37","1","629"
"17","17","retrieval","new_object","273","Toy_BearBlackPlastic.jpg",".",".","36","0","646"
"17","17","retrieval","new_object","274","Hammer.jpg",".",".","37","1","120"
"17","17","retrieval","old_object","275","Lock_Combination.jpg",".","1","37","0","533"
"17","17","retrieval","old_object","276","Toys_Lego.jpg",".","1","37","0","623"
"17","17","retrieval","old_object","277","Tripod.jpg",".","1","37","0","552"
"17","17","retrieval","old_object","278","Box_Jewellery.jpg",".","1","36","1","1193"
"17","17","retrieval","new_object","279","Baster.jpg",".",".","37","1","311"
"17","17","retrieval","old_object","280","Toy_RockingHorseBlack.jpg",".","1","37","0","884"
"17","17","retrieval","new_object","281","LampPost_OneBulb.jpg",".",".","37","1","322"
"17","17","retrieval","old_object","282","RemoteControl.jpg",".","3","37","0","663"
"17","17","retrieval","new_object","283","Microphone.jpg",".",".","37","1","1045"
"17","17","retrieval","new_object","284","Truck_Dump.jpg",".",".","37","1","774"
"17","17","retrieval","old_object","285","Shampoo.jpg",".","3","37","0","876"
"17","17","retrieval","new_object","286","Cabinet_Display.jpg",".",".","37","1","665"
"17","17","retrieval","old_object","287","ShoulderPads.jpg",".","1","36","1","863"
"17","17","retrieval","new_object","288","Thermos_MetalSleek.jpg",".",".","37","1","148"
"17","17","retrieval","old_object","289","Hammer_Reflex.jpg",".","1","37","0","538"
"17","17","retrieval","old_object","290","PuppetTheatre_WhiteGold.jpg",".","3","36","1","1660"
"17","17","retrieval","old_object","291","Guitar_Acoustic.jpg",".","1","37","0","589"
"17","17","retrieval","new_object","292","ReindeerHeadband.jpg",".",".","37","1","499"
"17","17","retrieval","old_object","293","fries.jpg",".","1","37","0","1112"
"17","17","retrieval","old_object","294","Fuse.jpg",".","3","36","1","1050"
"17","17","retrieval","old_object","295","Cantaloupe.jpg",".","1","36","1","835"
"17","17","retrieval","new_object","296","House_Rural.jpg",".",".","36","0","209"
"17","17","retrieval","old_object","297","AmpMeter.jpg",".","3","37","0","1062"
"17","17","retrieval","old_object","298","FlashlightHeadBand.jpg",".","1","37","0","1000"
"17","17","retrieval","new_object","299","Pen_Ballpoint.jpg",".",".","36","0","605"
"17","17","retrieval","new_object","300","TurkeyDinner.jpg",".",".","37","1","1063"
"17","17","retrieval","old_object","301","TeethMould.jpg",".","3","36","1","1132"
"17","17","retrieval","old_object","302","Leaf_Clover.jpg",".","1","37","0","1150"
"17","17","retrieval","old_object","303","Exercise_Stretch.jpg",".","1","37","0","592"
"17","17","retrieval","old_object","304","Lantern_TeaBox.jpg",".","1","36","1","721"
"17","17","retrieval","new_object","305","Bell_Hand.jpg",".",".","37","1","47"
"17","17","retrieval","old_object","306","Paratrooper.jpg",".","3","37","0","596"
"17","17","retrieval","new_object","307","SkullDeer.jpg",".",".","36","0","602"
"17","17","retrieval","new_object","308","Loofa.jpg",".",".","37","1","578"
"17","17","retrieval","new_object","309","Bottle_Specimen.jpg",".",".","37","1","541"
"17","17","retrieval","old_object","310","DrinkingFountain.jpg",".","1","37","0","578"
"17","17","retrieval","old_object","311","Wheelbarrow_Green.jpg",".","1","37","0","547"
"17","17","retrieval","new_object","312","Fridge.jpg",".",".","37","1","128"
"17","17","retrieval","old_object","313","Notebook.jpg",".","1","36","1","1334"
"17","17","retrieval","new_object","314","Exercise_Machine.jpg",".",".","37","1","499"
"17","17","retrieval","new_object","315","Socks_Winter.jpg",".",".","36","0","309"
"17","17","retrieval","old_object","316","Glove_Rubber.jpg",".","3","37","0","803"
"17","17","retrieval","new_object","317","PanCooking.jpg",".",".","37","1","40"
"17","17","retrieval","old_object","318","NeedlesAcupuncture.jpg",".","3","37","0","1190"
"17","17","retrieval","new_object","319","SkiPoles.jpg",".",".","37","1","387"
"17","17","retrieval","new_object","320","Lamp_TableWhite.jpg",".",".","36","0","205"
"17","17","retrieval","new_object","321","CartonEggs.jpg",".",".","37","1","806"
"17","17","retrieval","old_object","322","Golf_Bag.jpg",".","1","37","0","908"
"17","17","retrieval","new_object","323","Radio_Vintage.jpg",".",".","36","0","49"
"17","17","retrieval","old_object","324","WireStripper.jpg",".","1","37","0","607"
"17","17","retrieval","old_object","325","Mug_Beer.jpg",".","1","36","1","1504"
"17","17","demographics_block","gender","1",".",".",".","male","1","14736"
"17","17","demographics_block","age","1",".",".",".","30","1","14736"
"17","17","demographics_block","education","1",".",".",".","4","1","14736"
"17","17","demographics_block","left_right_handed","2",".",".",".","Right","1","13740"
"17","17","demographics_block","raceoption1","2",".",".",".","","1","13740"
"17","17","demographics_block","raceoption2","2",".",".",".","","1","13740"
"17","17","demographics_block","raceoption3","2",".",".",".","","1","13740"
"17","17","demographics_block","raceoption4","2",".",".",".","","1","13740"
"17","17","demographics_block","raceoption5","2",".",".",".","","1","13740"
"17","17","demographics_block","raceoption6","2",".",".",".","","1","13740"
"17","17","demographics_block","raceoption7","2",".",".",".","","1","13740"
"17","17","demographics_block","raceoption8","2",".",".",".","7","1","13740"
"17","17","demographics_block","raceoption9","2",".",".",".","","1","13740"
"17","17","demographics_block","raceother","2",".",".",".","","1","13740"
"17","17","demographics_block","raceother","2",".",".",".","","1","13740"
"17","17","demographics_block","english_language","2",".",".",".","Yes","1","13740"
"17","17","demographics_block","other","2",".",".",".","","1","13740"
"17","17","demographics_block","eyesight","3",".",".",".","Yes","1","6820"
"17","17","demographics_block","colorblind","3",".",".",".","No","1","6820"
"20","20","encoding","encoding","1","Lollipop_Grape.jpg","1",".","0","0","1000"
"20","20","encoding","encoding","2","Generator.jpg","3",".","0","0","1000"
"20","20","encoding","encoding","3","Fortress.jpg","1",".","37","0","4294967295"
"20","20","encoding","encoding","4","MonaLisa.jpg","1",".","0","0","1000"
"20","20","encoding","encoding","5","AmpMeter.jpg","3",".","0","0","1000"
"20","20","encoding","encoding","6","AmpMeter.jpg","3",".","37","0","4294967290"
"20","20","encoding","encoding","7","Ashtray_Empty.jpg","3",".","0","0","1000"
"20","20","encoding","encoding","8","Glove_Rubber.jpg","3",".","37","0","4294967294"
"20","20","encoding","encoding","9","Pipe_Drain.jpg","1",".","0","0","1000"
"20","20","encoding","encoding","10","MonkeyPuppet.jpg","3",".","0","0","1000"
"20","20","encoding","encoding","11","NintendoWii.jpg","3",".","0","0","1000"
"20","20","encoding","encoding","12","Tickets_Blank.jpg","3",".","0","0","1000"
"20","20","encoding","encoding","13","Pineapple.jpg","3",".","0","0","1000"
"20","20","encoding","encoding","14","Beater_Electric.jpg","3",".","37","0","0"
"20","20","encoding","encoding","15","Balalaika.jpg","3",".","37","0","205"
"20","20","encoding","encoding","16","Hourglass.jpg","3",".","0","0","1000"
"20","20","encoding","encoding","17","Ashtray_Empty.jpg","3",".","0","0","1000"
"20","20","encoding","encoding","18","Chest_Toys.jpg","3",".","0","0","1000"
"20","20","encoding","encoding","19","Toy_Witch.jpg","3",".","0","0","1000"
"20","20","encoding","encoding","20","BicycleBrake.jpg","1",".","0","0","1000"
"20","20","encoding","encoding","21","Mattress.jpg","3",".","0","0","1000"
"20","20","encoding","encoding","22","IceCrusher.jpg","3",".","0","0","1000"
"20","20","encoding","encoding","23","Toy_Witch.jpg","3",".","0","0","1000"
"20","20","encoding","encoding","24","Mat_Door.jpg","3",".","0","0","1000"
"20","20","encoding","encoding","25","Bird_Cardinal.jpg","3",".","0","0","1000"
"20","20","encoding","encoding","26","Toy_Moose.jpg","3",".","0","0","1000"
"20","20","encoding","encoding","27","DogTreat.jpg","1",".","0","0","1000"
"20","20","encoding","encoding","28","Bottle_Blue.jpg","3",".","37","0","4294967295"
"20","20","encoding","encoding","29","Guitarcase.jpg","3",".","0","0","1000"
"20","20","encoding","encoding","30","Paratrooper.jpg","3",".","36","0","643"
"20","20","encoding","encoding","31","Golf_Bag.jpg","1",".","0","0","1000"
"20","20","encoding","encoding","32","GPS.jpg","3",".","36","0","4294967292"
"20","20","encoding","encoding","33","BottleOpener.jpg","1",".","0","0","1000"
"20","20","encoding","encoding","34","DrinkingFountain.jpg","1",".","0","0","1000"
"20","20","encoding","encoding","35","Mango.jpg","1",".","36","0","4294967290"
"20","20","encoding","encoding","36","WireStripper.jpg","1",".","37","0","739"
"20","20","encoding","encoding","37","Bowl_Chinese.jpg","3",".","0","0","1000"
"20","20","encoding","encoding","38","BicyclePedal.jpg","3",".","37","0","4294967293"
"20","20","encoding","encoding","39","Oyster.jpg","3",".","37","0","162"
"20","20","encoding","encoding","40","DoorBell.jpg","1",".","37","0","4294967294"
"20","20","encoding","encoding","41","Clip_Paper.jpg","3",".","37","0","218"
"20","20","encoding","encoding","42","RemoteControl.jpg","3",".","36","0","455"
"20","20","encoding","encoding","43","Generator.jpg","3",".","36","0","4294967294"
"20","20","encoding","encoding","44","Toy_GasPump.jpg","3",".","37","0","0"
"20","20","encoding","encoding","45","Chair_BeanBag.jpg","3",".","37","0","287"
"20","20","encoding","encoding","46","Chair_BeanBag.jpg","3",".","36","0","831"
"20","20","encoding","encoding","47","Keg.jpg","1",".","37","0","4294967294"
"20","20","encoding","encoding","48","Bowl_Chinese.jpg","3",".","37","0","0"
"20","20","encoding","encoding","49","Cherry.jpg","3",".","36","0","844"
"20","20","encoding","encoding","50","Bullet.jpg","3",".","0","0","1000"
"20","20","encoding","encoding","51","Guitar_Acoustic.jpg","1",".","0","0","1000"
"20","20","encoding","encoding","52","MouthGuard.jpg","3",".","0","0","1000"
"20","20","encoding","encoding","53","MixingGlass.jpg","1",".","37","0","168"
"20","20","encoding","encoding","54","Megaphone.jpg","3",".","36","0","80"
"20","20","encoding","encoding","55","WindowBlinds.jpg","3",".","0","0","1000"
"20","20","encoding","encoding","56","Steeple.jpg","3",".","37","0","4294967294"
"20","20","encoding","encoding","57","Tripod.jpg","1",".","0","0","1000"
"20","20","encoding","encoding","58","Bellows.jpg","3",".","0","0","1000"
"20","20","encoding","encoding","59","Clip_Paper.jpg","3",".","36","0","0"
"20","20","encoding","encoding","60","Colander.jpg","1",".","0","0","1000"
"20","20","encoding","encoding","61","Bird_Cardinal.jpg","3",".","36","0","4294967294"
"20","20","encoding","encoding","62","Nyala.jpg","3",".","0","0","1000"
"20","20","encoding","encoding","63","Hippopotamus.jpg","3",".","37","0","4294967291"
"20","20","encoding","encoding","64","Teabag.jpg","3",".","0","0","1000"
"20","20","encoding","encoding","65","PotatoMasher_Zigzag.jpg","3",".","37","0","0"
"20","20","encoding","encoding","67","LeatherPuncherTool.jpg","3",".","0","0","1000"
"20","20","encoding","encoding","68","AmpMeter.jpg","3",".","36","0","610"
"20","20","encoding","encoding","69","Toys_Lego.jpg","1",".","36","0","4294967295"
"20","20","encoding","encoding","70","Shampoo.jpg","3",".","37","0","824"
"20","20","encoding","encoding","71","BadgeSpecialAgent.jpg","3",".","37","0","260"
"20","20","encoding","encoding","72","TartStrawberry.jpg","3",".","0","0","1000"
"20","20","encoding","encoding","73","Trumpet.jpg","3",".","0","0","1000"
"20","20","encoding","encoding","74","DryRack_Dishes.jpg","3",".","0","0","1000"
"20","20","encoding","encoding","75","Cake_Wedding.jpg","1",".","0","0","1000"
"20","20","encoding","encoding","76","Trophy.jpg","3",".","0","0","1000"
"20","20","encoding","encoding","77","MouthGuard.jpg","3",".","0","0","1000"
"20","20","encoding","encoding","78","HairDryer.jpg","1",".","37","0","0"
"20","20","encoding","encoding","79","Lantern_TeaBox.jpg","1",".","0","0","1000"
"20","20","encoding","encoding","80","Table_Poker.jpg","1",".","36","0","529"
"20","20","encoding","encoding","81","Exercise_Stretch.jpg","1",".","36","0","0"
"20","20","encoding","encoding","82","FireExtinguisher.jpg","1",".","37","0","197"
"20","20","encoding","encoding","83","Toy_GasPump.jpg","3",".","0","0","1000"
"20","20","encoding","encoding","84","WashRack.jpg","1",".","37","0","0"
"20","20","encoding","encoding","85","Hammer_Reflex.jpg","1",".","37","0","618"
"20","20","encoding","encoding","86","NeedlesAcupuncture.jpg","3",".","37","0","0"
"20","20","encoding","encoding","87","Toy_StackingRing.jpg","3",".","37","0","247"
"20","20","encoding","encoding","88","Tortilla.jpg","3",".","37","0","500"
"20","20","encoding","encoding","89","Toy_Moose.jpg","3",".","0","0","1000"
"20","20","encoding","encoding","90","Cantaloupe.jpg","1",".","37","0","4294967292"
"20","20","encoding","encoding","91","Cherry.jpg","3",".","0","0","1000"
"20","20","encoding","encoding","92","DryRack_Dishes.jpg","3",".","36","0","4294967295"
"20","20","encoding","encoding","93","Cassette_Audio.jpg","3",".","0","0","1000"
"20","20","encoding","encoding","94","Car_Sedan.jpg","3",".","0","0","1000"
"20","20","encoding","encoding","95","Toy_BlocksPlastic Colourful.jpg","1",".","37","0","206"
"20","20","encoding","encoding","96","Glove_Rubber.jpg","3",".","37","0","0"
"20","20","encoding","encoding","97","Jar_JellyBeans.jpg","3",".","37","0","0"
"20","20","encoding","encoding","98","DoorKnob.jpg","3",".","36","0","0"
"20","20","encoding","encoding","99","Cup_Styrofoam.jpg","3",".","0","0","1000"
"20","20","encoding","encoding","100","Mug_Beer.jpg","1",".","37","0","0"
"20","20","encoding","encoding","101","MouthGuard.jpg","3",".","0","0","1000"
"20","20","encoding","encoding","102","Bullet.jpg","3",".","36","0","16"
"20","20","encoding","encoding","103","Toy_RockingHorseBlack.jpg","1",".","37","0","4294967295"
"20","20","encoding","encoding","104","Goose_Canadian.jpg","3",".","0","0","1000"
"20","20","encoding","encoding","105","BadgeSpecialAgent.jpg","3",".","37","0","195"
"20","20","encoding","encoding","106","Spoon_Wooden.jpg","3",".","37","0","0"
"20","20","encoding","encoding","107","Beater_Electric.jpg","3",".","36","0","4294967295"
"20","20","encoding","encoding","108","Autocreeper.jpg","1",".","36","0","175"
"20","20","encoding","encoding","109","Lock_Combination.jpg","1",".","0","0","1000"
"20","20","encoding","encoding","110","Box_Floral.jpg","3",".","37","0","216"
"20","20","encoding","encoding","111","Stove_Camping.jpg","3",".","0","0","1000"
"20","20","encoding","encoding","112","Stove_Camping.jpg","3",".","36","0","322"
"20","20","encoding","encoding","113","Sign_Parking.jpg","3",".","0","0","1000"
"20","20","encoding","encoding","114","Thermostat_Digital.jpg","1",".","37","0","750"
"20","20","encoding","encoding","115","Toy_Shapesorter.jpg","1",".","36","0","4294967275"
"20","20","encoding","encoding","116","Chair_MedicalToilet.jpg","1",".","37","0","233"
"20","20","encoding","encoding","117","FlashlightHeadBand.jpg","1",".","36","0","331"
"20","20","encoding","encoding","118","Phone_Wireless.jpg","3",".","37","0","53"
"20","20","encoding","encoding","119","TeethMould.jpg","3",".","0","0","1000"
"20","20","encoding","encoding","120","PaintBrushAndPallette.jpg","3",".","37","0","188"
"20","20","encoding","encoding","121","Trophy.jpg","3",".","36","0","159"
"20","20","encoding","encoding","122","Mitt_Oven.jpg","1",".","36","0","304"
"20","20","encoding","encoding","123","Almond.jpg","1",".","37","0","124"
"20","20","encoding","encoding","124","Speaker_OnStand.jpg","3",".","37","0","399"
"20","20","encoding","encoding","125","Goose_Canadian.jpg","3",".","0","0","1000"
"20","20","encoding","encoding","126","NeedlesAcupuncture.jpg","3",".","37","0","4294967295"
"20","20","encoding","encoding","127","Bird_Cardinal.jpg","3",".","36","0","4294967294"
"20","20","encoding","encoding","128","Knife_Hunting.jpg","3",".","36","0","0"
"20","20","encoding","encoding","129","Bowl_Chinese.jpg","3",".","36","0","0"
"20","20","encoding","encoding","130","LeatherPuncherTool.jpg","3",".","36","0","0"
"20","20","encoding","encoding","131","Bottle_Blue.jpg","3",".","36","0","4294967295"
"20","20","encoding","encoding","133","Sign_Wetfloor.jpg","3",".","0","0","1000"
"20","20","encoding","encoding","134","Drink_Green.jpg","3",".","37","0","454"
"20","20","encoding","encoding","135","Chest.jpg","1",".","37","0","120"
"20","20","encoding","encoding","136","Jar_JellyBeans.jpg","3",".","0","0","1000"
"20","20","encoding","encoding","137","CookieCutter_Bell.jpg","1",".","36","0","737"
"20","20","encoding","encoding","138","Skates.jpg","3",".","36","0","915"
"20","20","encoding","encoding","139","LeatherPuncherTool.jpg","3",".","36","0","751"
"20","20","encoding","encoding","140","Tickets_Blank.jpg","3",".","36","0","735"
"20","20","encoding","encoding","141","Hourglass.jpg","3",".","0","0","1000"
"20","20","encoding","encoding","142","Mat_Door.jpg","3",".","0","0","1000"
"20","20","encoding","encoding","143","Drink_Green.jpg","3",".","36","0","4294967285"
"20","20","encoding","encoding","144","Trumpet.jpg","3",".","0","0","1000"
"20","20","encoding","encoding","145","NintendoWii.jpg","3",".","0","0","1000"
"20","20","encoding","encoding","146","Blanket.jpg","1",".","0","0","1000"
"20","20","encoding","encoding","147","Flute_Wooden.jpg","1",".","0","0","1000"
"20","20","encoding","encoding","148","Pants_Jeans.jpg","1",".","0","0","1000"
"20","20","encoding","encoding","149","Desk_School.jpg","3",".","36","0","4294967289"
"20","20","encoding","encoding","150","Pitcher.jpg","1",".","0","0","1000"
"20","20","encoding","encoding","151","GPS.jpg","3",".","0","0","1000"
"20","20","encoding","encoding","152","Cassette_Audio.jpg","3",".","0","0","1000"
"20","20","encoding","encoding","153","Mop.jpg","1",".","36","0","4294967295"
"20","20","encoding","encoding","154","PuppetTheatre_WhiteGold.jpg","3",".","0","0","1000"
"20","20","encoding","encoding","155","Cup_Styrofoam.jpg","3",".","0","0","1000"
"20","20","encoding","encoding","156","BusStop.jpg","1",".","0","0","1000"
"20","20","encoding","encoding","157","Candy_Heart.jpg","3",".","0","0","1000"
"20","20","encoding","encoding","158","Fruit_Cactus.jpg","1",".","0","0","1000"
"20","20","encoding","encoding","159","Bottle_Wine.jpg","1",".","0","0","1000"
"20","20","encoding","encoding","160","Knee.jpg","3",".","0","0","1000"
"20","20","encoding","encoding","161","Hippopotamus.jpg","3",".","0","0","1000"
"20","20","encoding","encoding","162","Phone_Wireless.jpg","3",".","36","0","4294967292"
"20","20","encoding","encoding","163","Bottle_Blue.jpg","3",".","0","0","1000"
"20","20","encoding","encoding","164","Shampoo.jpg","3",".","0","0","1000"
"20","20","encoding","encoding","165","PaintRollTray.jpg","3",".","0","0","1000"
"20","20","encoding","encoding","166","Hook_Fish.jpg","3",".","0","0","1000"
"20","20","encoding","encoding","167","Paratrooper.jpg","3",".","36","0","836"
"20","20","encoding","encoding","168","Skates.jpg","3",".","0","0","1000"
"20","20","encoding","encoding","169","Car_Sedan.jpg","3",".","37","0","453"
"20","20","encoding","encoding","170","Mattress.jpg","3",".","0","0","1000"
"20","20","encoding","encoding","171","PassionFruit.jpg","3",".","0","0","1000"
"20","20","encoding","encoding","172","DoorKnob.jpg","3",".","0","0","1000"
"20","20","encoding","encoding","173","RemoteControl.jpg","3",".","0","0","1000"
"20","20","encoding","encoding","174","Dress_Party.jpg","1",".","0","0","1000"
"20","20","encoding","encoding","175","Bullet.jpg","3",".","0","0","1000"
"20","20","encoding","encoding","176","PotatoMasher_Zigzag.jpg","3",".","0","0","1000"
"20","20","encoding","encoding","177","Pineapple.jpg","3",".","0","0","1000"
"20","20","encoding","encoding","178","Chest_Toys.jpg","3",".","0","0","1000"
"20","20","encoding","encoding","179","Flamingo_Cartoon.jpg","1",".","0","0","1000"
"20","20","encoding","encoding","180","PaintRollTray.jpg","3",".","0","0","1000"
"20","20","encoding","encoding","181","Steeple.jpg","3",".","0","0","1000"
"20","20","encoding","encoding","182","Hippopotamus.jpg","3",".","0","0","1000"
"20","20","encoding","encoding","183","BicyclePedal.jpg","3",".","0","0","1000"
"20","20","encoding","encoding","184","Hook_Fish.jpg","3",".","0","0","1000"
"20","20","encoding","encoding","185","Oyster.jpg","3",".","0","0","1000"
"20","20","encoding","encoding","186","Lilypad.jpg","3",".","0","0","1000"
"20","20","encoding","encoding","187","JukeboxAntique.jpg","3",".","0","0","1000"
"20","20","encoding","encoding","188","Fuse.jpg","3",".","0","0","1000"
"20","20","encoding","encoding","189","Phone_Wireless.jpg","3",".","37","0","4294967250"
"20","20","encoding","encoding","190","CandyDispenser.jpg","1",".","0","0","1000"
"20","20","encoding","encoding","191","Speaker_OnStand.jpg","3",".","0","0","1000"
"20","20","encoding","encoding","192","Knee.jpg","3",".","36","0","67"
"20","20","encoding","encoding","193","Tickets_Blank.jpg","3",".","0","0","1000"
"20","20","encoding","encoding","194","Apple_RedAndGreen.jpg","1",".","36","0","4294967292"
"20","20","encoding","encoding","195","Trophy.jpg","3",".","36","0","0"
"20","20","encoding","encoding","196","DoorKnob.jpg","3",".","37","0","0"
"20","20","encoding","encoding","197","Desk_School.jpg","3",".","37","0","0"
"20","20","encoding","encoding","199","Tortilla.jpg","3",".","0","0","1000"
"20","20","encoding","encoding","200","NailPolish.jpg","3",".","0","0","1000"
"20","20","encoding","encoding","201","NintendoWii.jpg","3",".","0","0","1000"
"20","20","encoding","encoding","202","TeethMould.jpg","3",".","0","0","1000"
"20","20","encoding","encoding","203","Spoons_MeasuringDetached.jpg","1",".","0","0","1000"
"20","20","encoding","encoding","204","Sign_Wetfloor.jpg","3",".","0","0","1000"
"20","20","encoding","encoding","205","Paratrooper.jpg","3",".","0","0","1000"
"20","20","encoding","encoding","206","Box_Floral.jpg","3",".","0","0","1000"
"20","20","encoding","encoding","207","TartStrawberry.jpg","3",".","0","0","1000"
"20","20","encoding","encoding","208","PotatoMasher_Zigzag.jpg","3",".","0","0","1000"
"20","20","encoding","encoding","209","JukeboxAntique.jpg","3",".","36","0","234"
"20","20","encoding","encoding","210","Hourglass.jpg","3",".","36","0","514"
"20","20","encoding","encoding","211","fries.jpg","1",".","36","0","431"
"20","20","encoding","encoding","212","ShoulderPads.jpg","1",".","0","0","1000"
"20","20","encoding","encoding","213","Hook_Fish.jpg","3",".","37","0","0"
"20","20","encoding","encoding","214","Nyala.jpg","3",".","37","0","968"
"20","20","encoding","encoding","215","Sign_Parking.jpg","3",".","37","0","4294967295"
"20","20","encoding","encoding","216","Fish_Rockbass.jpg","1",".","0","0","1000"
"20","20","encoding","encoding","217","Peppermill.jpg","1",".","36","0","4294967295"
"20","20","encoding","encoding","218","Goose_Canadian.jpg","3",".","36","0","179"
"20","20","encoding","encoding","219","Shampoo.jpg","3",".","37","0","4294967295"
"20","20","encoding","encoding","220","Skates.jpg","3",".","36","0","4294967295"
"20","20","encoding","encoding","221","Toy_Moose.jpg","3",".","37","0","4294967294"
"20","20","encoding","encoding","222","Mask_Happy.jpg","1",".","37","0","0"
"20","20","encoding","encoding","223","Bellows.jpg","3",".","37","0","4294967295"
"20","20","encoding","encoding","224","Teabag.jpg","3",".","0","0","1000"
"20","20","encoding","encoding","225","Cup_Styrofoam.jpg","3",".","36","0","645"
"20","20","encoding","encoding","226","PuppetTheatre_WhiteGold.jpg","3",".","36","0","398"
"20","20","encoding","encoding","227","Oyster.jpg","3",".","36","0","0"
"20","20","encoding","encoding","228","StringBean.jpg","3",".","0","0","1000"
"20","20","encoding","encoding","229","Chest_Toys.jpg","3",".","36","0","4294967294"
"20","20","encoding","encoding","230","Tortilla.jpg","3",".","36","0","230"
"20","20","encoding","encoding","231","Candy_Heart.jpg","3",".","37","0","4294967282"
"20","20","encoding","encoding","232","Helmet_Construction.jpg","1",".","0","0","1000"
"20","20","encoding","encoding","233","Wheelbarrow_Green.jpg","1",".","36","0","332"
"20","20","encoding","encoding","234","IceCrusher.jpg","3",".","37","0","4294967295"
"20","20","encoding","encoding","235","Bellows.jpg","3",".","37","0","4294967295"
"20","20","encoding","encoding","236","Generator.jpg","3",".","37","0","0"
"20","20","encoding","encoding","237","WindowBlinds.jpg","3",".","36","0","0"
"20","20","encoding","encoding","238","DentistOverheadLight.jpg","1",".","0","0","1000"
"20","20","encoding","encoding","239","TartStrawberry.jpg","3",".","0","0","1000"
"20","20","encoding","encoding","240","BicycleHandleGrip.jpg","1",".","37","0","4294967295"
"20","20","encoding","encoding","241","Mat_Door.jpg","3",".","37","0","4294967295"
"20","20","encoding","encoding","242","BicyclePedal.jpg","3",".","37","0","4294967295"
"20","20","encoding","encoding","243","RemoteControl.jpg","3",".","36","0","220"
"20","20","encoding","encoding","244","StringBean.jpg","3",".","36","0","945"
"20","20","encoding","encoding","245","Box_Jewellery.jpg","1",".","36","0","4294967292"
"20","20","encoding","encoding","246","Lilypad.jpg","3",".","36","0","211"
"20","20","encoding","encoding","247","IceCrusher.jpg","3",".","0","0","1000"
"20","20","encoding","encoding","248","Mattress.jpg","3",".","0","0","1000"
"20","20","encoding","encoding","249","Toy_Witch.jpg","3",".","37","0","213"
"20","20","encoding","encoding","250","Sign_Parking.jpg","3",".","37","0","0"
"20","20","encoding","encoding","251","Fuse.jpg","3",".","37","0","926"
"20","20","encoding","encoding","252","Stove_Camping.jpg","3",".","37","0","4294967295"
"20","20","encoding","encoding","253","Fuse.jpg","3",".","0","0","1000"
"20","20","encoding","encoding","254","Sushi.jpg","1",".","0","0","1000"
"20","20","encoding","encoding","255","PassionFruit.jpg","3",".","0","0","1000"
"20","20","encoding","encoding","256","Chair_BeanBag.jpg","3",".","37","0","4294967295"
"20","20","encoding","encoding","257","WindowBlinds.jpg","3",".","0","0","1000"
"20","20","encoding","encoding","258","Steeple.jpg","3",".","0","0","1000"
"20","20","encoding","encoding","259","Light_Siren.jpg","1",".","36","0","4294967294"
"20","20","encoding","encoding","260","Knife_Hunting.jpg","3",".","36","0","4294967295"
"20","20","encoding","encoding","261","TinChristmas.jpg","1",".","36","0","852"
"20","20","encoding","encoding","262","GPS.jpg","3",".","36","0","0"
"20","20","encoding","encoding","263","Teabag.jpg","3",".","36","0","4294967295"
"20","20","encoding","encoding","265","Desk_School.jpg","3",".","0","0","1000"
"20","20","encoding","encoding","266","Shoes_DutchClogs.jpg","1",".","36","0","920"
"20","20","encoding","encoding","267","Lilypad.jpg","3",".","0","0","1000"
"20","20","encoding","encoding","268","Toy_GasPump.jpg","3",".","36","0","0"
"20","20","encoding","encoding","269","Helmet_Soldier.jpg","1",".","0","0","1000"
"20","20","encoding","encoding","270","Cassette_Audio.jpg","3",".","36","0","891"
"20","20","encoding","encoding","271","MonkeyPuppet.jpg","3",".","36","0","217"
"20","20","encoding","encoding","272","Balalaika.jpg","3",".","36","0","0"
"20","20","encoding","encoding","273","DryRack_Dishes.jpg","3",".","36","0","234"
"20","20","encoding","encoding","274","BadgeSpecialAgent.jpg","3",".","36","0","4294967286"
"20","20","encoding","encoding","275","Toy_StackingRing.jpg","3",".","0","0","1000"
"20","20","encoding","encoding","276","Jar_JellyBeans.jpg","3",".","36","0","0"
"20","20","encoding","encoding","277","NailPolish.jpg","3",".","37","0","0"
"20","20","encoding","encoding","278","TeethMould.jpg","3",".","37","0","4294967295"
"20","20","encoding","encoding","279","Knife_Hunting.jpg","3",".","36","0","0"
"20","20","encoding","encoding","280","Sign_Wetfloor.jpg","3",".","0","0","1000"
"20","20","encoding","encoding","281","Candy_Chocolate.jpg","1",".","37","0","0"
"20","20","encoding","encoding","282","Toy_StackingRing.jpg","3",".","37","0","164"
"20","20","encoding","encoding","283","Drink_Green.jpg","3",".","0","0","1000"
"20","20","encoding","encoding","284","Spoon_Wooden.jpg","3",".","0","0","1000"
"20","20","encoding","encoding","285","PaintBrushAndPallette.jpg","3",".","37","0","4294967294"
"20","20","encoding","encoding","286","PaintBrushAndPallette.jpg","3",".","37","0","397"
"20","20","encoding","encoding","287","Guitarcase.jpg","3",".","37","0","0"
"20","20","encoding","encoding","288","IceCream_Chocolate.jpg","1",".","0","0","1000"
"20","20","encoding","encoding","289","Trumpet.jpg","3",".","37","0","0"
"20","20","encoding","encoding","290","GasBurner.jpg","1",".","37","0","4294967295"
"20","20","encoding","encoding","291","Megaphone.jpg","3",".","37","0","0"
"20","20","encoding","encoding","292","Speaker_OnStand.jpg","3",".","37","0","653"
"20","20","encoding","encoding","293","PaintRollTray.jpg","3",".","37","0","0"
"20","20","encoding","encoding","294","Car_Sedan.jpg","3",".","37","0","4294967295"
"20","20","encoding","encoding","295","Candy_Heart.jpg","3",".","37","0","0"
"20","20","encoding","encoding","296","Megaphone.jpg","3",".","37","0","210"
"20","20","encoding","encoding","297","NeedlesAcupuncture.jpg","3",".","37","0","152"
"20","20","encoding","encoding","298","Ashtray_Empty.jpg","3",".","0","0","1000"
"20","20","encoding","encoding","299","Notebook.jpg","1",".","37","0","250"
"20","20","encoding","encoding","300","Clip_Paper.jpg","3",".","37","0","0"
"20","20","encoding","encoding","301","Guitarcase.jpg","3",".","0","0","1000"
"20","20","encoding","encoding","302","Saw.jpg","1",".","37","0","253"
"20","20","encoding","encoding","303","SculptureMetalFish.jpg","1",".","37","0","202"
"20","20","encoding","encoding","304","Candle_Blue.jpg","1",".","37","0","0"
"20","20","encoding","encoding","305","Glove_Rubber.jpg","3",".","37","0","534"
"20","20","encoding","encoding","306","Nyala.jpg","3",".","37","0","0"
"20","20","encoding","encoding","307","ButterDish.jpg","1",".","37","0","352"
"20","20","encoding","encoding","308","NailPolish.jpg","3",".","37","0","528"
"20","20","encoding","encoding","309","SmokeDetector.jpg","1",".","37","0","0"
"20","20","encoding","encoding","310","PassionFruit.jpg","3",".","37","0","0"
"20","20","encoding","encoding","311","Leaf_Clover.jpg","1",".","0","0","1000"
"20","20","encoding","encoding","312","StringBean.jpg","3",".","0","0","1000"
"20","20","encoding","encoding","313","Balalaika.jpg","3",".","37","0","430"
"20","20","encoding","encoding","314","MonkeyPuppet.jpg","3",".","37","0","345"
"20","20","encoding","encoding","315","Beater_Electric.jpg","3",".","0","0","1000"
"20","20","encoding","encoding","316","Knee.jpg","3",".","37","0","0"
"20","20","encoding","encoding","317","Box_Floral.jpg","3",".","37","0","616"
"20","20","encoding","encoding","318","Bathtub.jpg","1",".","37","0","122"
"20","20","encoding","encoding","319","Pineapple.jpg","3",".","0","0","1000"
"20","20","encoding","encoding","320","Spoon_Wooden.jpg","3",".","0","0","1000"
"20","20","encoding","encoding","321","CameoPortrait.jpg","1",".","0","0","1000"
"20","20","encoding","encoding","322","JukeboxAntique.jpg","3",".","0","0","1000"
"20","20","encoding","encoding","323","Cherry.jpg","3",".","0","0","1000"
"20","20","encoding","encoding","324","PuppetTheatre_WhiteGold.jpg","3",".","37","0","0"
"20","20","encoding","encoding","325","Lollipop_Grape.jpg","",".","0","0","1000"
"20","20","retrieval","old_object","1","MouthGuard.jpg",".","3","36","1","545"
"20","20","retrieval","old_object","2","Mango.jpg",".","1","36","1","0"
"20","20","retrieval","old_object","3","Toy_Shapesorter.jpg",".","1","36","1","4294967295"
"20","20","retrieval","old_object","4","PaintRollTray.jpg",".","3","37","0","0"
"20","20","retrieval","old_object","5","Jar_JellyBeans.jpg",".","3","37","0","341"
"20","20","retrieval","old_object","6","Candy_Heart.jpg",".","3","37","0","0"
"20","20","retrieval","new_object","7","Fridge.jpg",".",".","0","0","1500"
"20","20","retrieval","new_object","8","Case_DVD.jpg",".",".","37","1","769"
"20","20","retrieval","new_object","9","Toy_DollOffice.jpg",".",".","37","1","387"
"20","20","retrieval","old_object","10","Fish_Rockbass.jpg",".","1","37","0","0"
"20","20","retrieval","old_object","11","SmokeDetector.jpg",".","1","0","0","2000"
"20","20","retrieval","new_object","12","Dolphine.jpg",".",".","0","0","1500"
"20","20","retrieval","old_object","13","Bottle_Blue.jpg",".","3","37","0","1061"
"20","20","retrieval","old_object","14","Keg.jpg",".","1","37","0","0"
"20","20","retrieval","new_object","15","Socks_Winter.jpg",".",".","37","1","1145"
"20","20","retrieval","old_object","16","Car_Sedan.jpg",".","3","37","0","0"
"20","20","retrieval","old_object","17","Saw.jpg",".","1","37","0","0"
"20","20","retrieval","new_object","18","SkullDeer.jpg",".",".","0","0","1500"
"20","20","retrieval","new_object","19","Drum_Brazilan.jpg",".",".","0","0","1500"
"20","20","retrieval","old_object","20","Chair_BeanBag.jpg",".","3","37","0","705"
"20","20","retrieval","old_object","21","Beater_Electric.jpg",".","3","37","0","0"
"20","20","retrieval","new_object","22","SaxophoneSoprano.jpg",".",".","37","1","141"
"20","20","retrieval","old_object","23","Dress_Party.jpg",".","1","0","0","2000"
"20","20","retrieval","old_object","24","DentistOverheadLight.jpg",".","1","37","0","0"
"20","20","retrieval","old_object","25","ButterDish.jpg",".","1","37","0","701"
"20","20","retrieval","new_object","26","Pen_Ballpoint.jpg",".",".","37","1","357"
"20","20","retrieval","new_object","27","RibbonSpool.jpg",".",".","0","0","1500"
"20","20","retrieval","new_object","28","CrepeMaker.jpg",".",".","0","0","1500"
"20","20","retrieval","new_object","29","SmokingPipe.jpg",".",".","37","1","973"
"20","20","retrieval","old_object","30","PaintBrushAndPallette.jpg",".","3","37","0","1885"
"20","20","retrieval","old_object","31","Teabag.jpg",".","3","37","0","0"
"20","20","retrieval","new_object","32","BloodpPresureCuff.jpg",".",".","37","1","340"
"20","20","retrieval","new_object","33","Shoe_Pink.jpg",".",".","37","1","77"
"20","20","retrieval","old_object","34","Candy_Chocolate.jpg",".","1","37","0","163"
"20","20","retrieval","old_object","35","BusStop.jpg",".","1","37","0","1755"
"20","20","retrieval","old_object","36","TinChristmas.jpg",".","1","0","0","2000"
"20","20","retrieval","new_object","37","GranolaBar.jpg",".",".","37","1","296"
"20","20","retrieval","old_object","38","Autocreeper.jpg",".","1","37","0","1921"
"20","20","retrieval","new_object","39","Gun_Glue.jpg",".",".","37","1","4294967294"
"20","20","retrieval","old_object","40","Pants_Jeans.jpg",".","1","37","0","4294967295"
"20","20","retrieval","old_object","41","GPS.jpg",".","3","37","0","0"
"20","20","retrieval","new_object","42","Paddle_Beach.jpg",".",".","37","1","520"
"20","20","retrieval","old_object","43","Mitt_Oven.jpg",".","1","37","0","4294967295"
"20","20","retrieval","new_object","44","Cabinet_Office.jpg",".",".","37","1","179"
"20","20","retrieval","old_object","45","Toy_Moose.jpg",".","3","37","0","0"
"20","20","retrieval","old_object","46","Stove_Camping.jpg",".","3","37","0","0"
"20","20","retrieval","old_object","47","CookieCutter_Bell.jpg",".","1","0","0","2000"
"20","20","retrieval","new_object","48","Crib_Basket.jpg",".",".","0","0","1500"
"20","20","retrieval","old_object","49","DoorBell.jpg",".","1","37","0","1731"
"20","20","retrieval","old_object","50","Trophy.jpg",".","3","37","0","0"
"20","20","retrieval","old_object","51","SculptureMetalFish.jpg",".","1","37","0","0"
"20","20","retrieval","new_object","52","ChessPiece_Knight.jpg",".",".","37","1","976"
"20","20","retrieval","new_object","53","Shield_Antique.jpg",".",".","0","0","1500"
"20","20","retrieval","old_object","54","Almond.jpg",".","1","37","0","0"
"20","20","retrieval","old_object","55","MonkeyPuppet.jpg",".","3","37","0","0"
"20","20","retrieval","new_object","56","ContactLens.jpg",".",".","37","1","1362"
"20","20","retrieval","new_object","57","Bugle.jpg",".",".","37","1","1041"
"20","20","retrieval","old_object","58","FireExtinguisher.jpg",".","1","37","0","632"
"20","20","retrieval","old_object","59","LeatherPuncherTool.jpg",".","3","37","0","1961"
"20","20","retrieval","old_object","60","Sign_Parking.jpg",".","3","37","0","4294967295"
"20","20","retrieval","old_object","61","Bowl_Chinese.jpg",".","3","0","0","2000"
"20","20","retrieval","old_object","62","DoorKnob.jpg",".","3","37","0","199"
"20","20","retrieval","old_object","63","Pipe_Drain.jpg",".","1","37","0","929"
"20","20","retrieval","new_object","64","Tofu.jpg",".",".","0","0","1500"
"20","20","retrieval","new_object","65","Hat_Baseball.jpg",".",".","0","0","1500"
"20","20","retrieval","old_object","67","HairDryer.jpg",".","1","0","0","2000"
"20","20","retrieval","new_object","68","Toy_SeeSaw.jpg",".",".","37","1","398"
"20","20","retrieval","new_object","69","DrillBit.jpg",".",".","36","0","700"
"20","20","retrieval","new_object","70","Can_OilSpout.jpg",".",".","0","0","1500"
"20","20","retrieval","new_object","71","Flower_Hibiscus.jpg",".",".","0","0","1500"
"20","20","retrieval","old_object","72","Chest.jpg",".","1","0","0","2000"
"20","20","retrieval","old_object","73","Table_Poker.jpg",".","1","0","0","2000"
"20","20","retrieval","old_object","74","WindowBlinds.jpg",".","3","0","0","2000"
"20","20","retrieval","old_object","75","Toy_Witch.jpg",".","3","0","0","2000"
"20","20","retrieval","old_object","76","Pineapple.jpg",".","3","0","0","2000"
"20","20","retrieval","old_object","77","Thermostat_Digital.jpg",".","1","0","0","2000"
"20","20","retrieval","old_object","78","BottleOpener.jpg",".","1","0","0","2000"
"20","20","retrieval","new_object","79","KitchenTools.jpg",".",".","0","0","1500"
"20","20","retrieval","new_object","80","Knife_Butter.jpg",".",".","0","0","1500"
"20","20","retrieval","new_object","81","SkiPoles.jpg",".",".","0","0","1500"
"20","20","retrieval","old_object","82","CandyDispenser.jpg",".","1","0","0","2000"
"20","20","retrieval","old_object","83","Bird_Cardinal.jpg",".","3","0","0","2000"
"20","20","retrieval","old_object","84","Phone_Wireless.jpg",".","3","0","0","2000"
"20","20","retrieval","old_object","85","Flamingo_Cartoon.jpg",".","1","0","0","2000"
"20","20","retrieval","old_object","86","Cassette_Audio.jpg",".","3","0","0","2000"
"20","20","retrieval","new_object","87","Pickaxe.jpg",".",".","0","0","1500"
"20","20","retrieval","new_object","88","Bomb.jpg",".",".","0","0","1500"
"20","20","retrieval","old_object","89","DogTreat.jpg",".","1","0","0","2000"
"20","20","retrieval","old_object","90","IceCrusher.jpg",".","3","0","0","2000"
"20","20","retrieval","new_object","91","Wheel_Steering.jpg",".",".","0","0","1500"
"20","20","retrieval","new_object","92","Ball_8.jpg",".",".","0","0","1500"
"20","20","retrieval","old_object","93","Lollipop_Grape.jpg",".","1","0","0","2000"
"20","20","retrieval","old_object","94","Cake_Wedding.jpg",".","1","0","0","2000"
"20","20","retrieval","new_object","95","CookieCutter_Tree.jpg",".",".","0","0","1500"
"20","20","retrieval","new_object","96","BoogieBoard.jpg",".",".","0","0","1500"
"20","20","retrieval","old_object","97","MonaLisa.jpg",".","1","0","0","2000"
"20","20","retrieval","new_object","98","SafetyPin.jpg",".",".","0","0","1500"
"20","20","retrieval","new_object","99","Fencing_HelmetSwords.jpg",".",".","0","0","1500"
"20","20","retrieval","new_object","100","Box_FirstAidOpen.jpg",".",".","0","0","1500"
"20","20","retrieval","new_object","101","Boots_KneeHigh.jpg",".",".","0","0","1500"
"20","20","retrieval","new_object","102","House_Rural.jpg",".",".","0","0","1500"
"20","20","retrieval","old_object","103","Speaker_OnStand.jpg",".","3","0","0","2000"
"20","20","retrieval","old_object","104","Generator.jpg",".","3","0","0","2000"
"20","20","retrieval","old_object","105","Flute_Wooden.jpg",".","1","0","0","2000"
"20","20","retrieval","old_object","106","Hourglass.jpg",".","3","0","0","2000"
"20","20","retrieval","old_object","107","PotatoMasher_Zigzag.jpg",".","3","0","0","2000"
"20","20","retrieval","old_object","108","Clip_Paper.jpg",".","3","0","0","2000"
"20","20","retrieval","new_object","109","Telescope.jpg",".",".","0","0","1500"
"20","20","retrieval","new_object","110","Toy_TableSet.jpg",".",".","0","0","1500"
"20","20","retrieval","new_object","111","Hottub.jpg",".",".","0","0","1500"
"20","20","retrieval","new_object","112","Statue_SouthAmerican.jpg",".",".","0","0","1500"
"20","20","retrieval","new_object","113","Microphone.jpg",".",".","0","0","1500"
"20","20","retrieval","old_object","114","Balalaika.jpg",".","3","0","0","2000"
"20","20","retrieval","new_object","115","Carbiner_Ascender.jpg",".",".","0","0","1500"
"20","20","retrieval","old_object","116","BicycleBrake.jpg",".","1","0","0","2000"
"20","20","retrieval","new_object","117","Tribunal_Wooden.jpg",".",".","0","0","1500"
"20","20","retrieval","new_object","118","Decoration_WallOrnament.jpg",".",".","0","0","1500"
"20","20","retrieval","old_object","119","Bellows.jpg",".","3","0","0","2000"
"20","20","retrieval","new_object","120","Comb.jpg",".",".","0","0","1500"
"20","20","retrieval","new_object","121","CoffeeGrinder.jpg",".",".","0","0","1500"
"20","20","retrieval","old_object","122","Sushi.jpg",".","1","0","0","2000"
"20","20","retrieval","old_object","123","DryRack_Dishes.jpg",".","3","0","0","2000"
"20","20","retrieval","old_object","124","Knife_Hunting.jpg",".","3","0","0","2000"
"20","20","retrieval","new_object","125","SundaeBanana.jpg",".",".","0","0","1500"
"20","20","retrieval","new_object","126","Tape_Washi.jpg",".",".","0","0","1500"
"20","20","retrieval","new_object","127","FlipFlop_PairBlue.jpg",".",".","0","0","1500"
"20","20","retrieval","old_object","128","BicycleHandleGrip.jpg",".","1","0","0","2000"
"20","20","retrieval","new_object","129","Glass_Cup.jpg",".",".","0","0","1500"
"20","20","retrieval","new_object","130","PanCooking.jpg",".",".","0","0","1500"
"20","20","retrieval","new_object","131","Hawk.jpg",".",".","0","0","1500"
"20","20","retrieval","new_object","133","Truck_Dump.jpg",".",".","0","0","1500"
"20","20","retrieval","new_object","134","BicycleChain.jpg",".",".","0","0","1500"
"20","20","retrieval","old_object","135","Guitarcase.jpg",".","3","0","0","2000"
"20","20","retrieval","new_object","136","Hammer.jpg",".",".","0","0","1500"
"20","20","retrieval","new_object","137","ShoppingCart.jpg",".",".","0","0","1500"
"20","20","retrieval","new_object","138","PaintRoller.jpg",".",".","0","0","1500"
"20","20","retrieval","old_object","139","Lilypad.jpg",".","3","0","0","2000"
"20","20","retrieval","new_object","140","BicycleOdometer.jpg",".",".","0","0","1500"
"20","20","retrieval","new_object","141","Pig.jpg",".",".","0","0","1500"
"20","20","retrieval","old_object","142","BicyclePedal.jpg",".","3","0","0","2000"
"20","20","retrieval","new_object","143","Bottle_Specimen.jpg",".",".","0","0","1500"
"20","20","retrieval","new_object","144","Bandage_Wrap.jpg",".",".","0","0","1500"
"20","20","retrieval","new_object","145","Screw.jpg",".",".","0","0","1500"
"20","20","retrieval","new_object","146","Currants.jpg",".",".","0","0","1500"
"20","20","retrieval","new_object","147","Lamp_TableWhite.jpg",".",".","0","0","1500"
"20","20","retrieval","old_object","148","Bathtub.jpg",".","1","0","0","2000"
"20","20","retrieval","new_object","149","Makeup_Foundation.jpg",".",".","0","0","1500"
"20","20","retrieval","old_object","150","Trumpet.jpg",".","3","0","0","2000"
"20","20","retrieval","old_object","151","Toy_StackingRing.jpg",".","3","0","0","2000"
"20","20","retrieval","new_object","152","Toy_PoliceCar.jpg",".",".","0","0","1500"
"20","20","retrieval","new_object","153","Seashell_AlternateTellin.jpg",".",".","0","0","1500"
"20","20","retrieval","new_object","154","ReindeerHeadband.jpg",".",".","0","0","1500"
"20","20","retrieval","old_object","155","Nyala.jpg",".","3","0","0","2000"
"20","20","retrieval","new_object","156","Radio_Vintage.jpg",".",".","0","0","1500"
"20","20","retrieval","new_object","157","Tire_Hollow.jpg",".",".","0","0","1500"
"20","20","retrieval","new_object","158","Boxcutter.jpg",".",".","0","0","1500"
"20","20","retrieval","new_object","159","Outhouse.jpg",".",".","0","0","1500"
"20","20","retrieval","old_object","160","Bottle_Wine.jpg",".","1","0","0","2000"
"20","20","retrieval","new_object","161","ElasticBand.jpg",".",".","0","0","1500"
"20","20","retrieval","old_object","162","Candle_Blue.jpg",".","1","0","0","2000"
"20","20","retrieval","old_object","163","WashRack.jpg",".","1","0","0","2000"
"20","20","retrieval","old_object","164","Hook_Fish.jpg",".","3","0","0","2000"
"20","20","retrieval","old_object","165","Drink_Green.jpg",".","3","0","0","2000"
"20","20","retrieval","new_object","166","OnionRed.jpg",".",".","0","0","1500"
"20","20","retrieval","new_object","167","Toolbox_Old.jpg",".",".","0","0","1500"
"20","20","retrieval","new_object","168","Hockey_Equipment.jpg",".",".","0","0","1500"
"20","20","retrieval","old_object","169","Mat_Door.jpg",".","3","0","0","2000"
"20","20","retrieval","new_object","170","Sign_TrafficArrow.jpg",".",".","0","0","1500"
"20","20","retrieval","new_object","171","Thermos_MetalSleek.jpg",".",".","0","0","1500"
"20","20","retrieval","new_object","172","Pajamas.jpg",".",".","0","0","1500"
"20","20","retrieval","old_object","173","Cherry.jpg",".","3","0","0","2000"
"20","20","retrieval","old_object","174","IceCream_Chocolate.jpg",".","1","0","0","2000"
"20","20","retrieval","old_object","175","StringBean.jpg",".","3","0","0","2000"
"20","20","retrieval","new_object","176","PedestalGreek.jpg",".",".","0","0","1500"
"20","20","retrieval","old_object","177","NailPolish.jpg",".","3","0","0","2000"
"20","20","retrieval","new_object","178","Cross.jpg",".",".","0","0","1500"
"20","20","retrieval","old_object","179","Chest_Toys.jpg",".","3","0","0","2000"
"20","20","retrieval","old_object","180","NintendoWii.jpg",".","3","0","0","2000"
"20","20","retrieval","old_object","181","Megaphone.jpg",".","3","0","0","2000"
"20","20","retrieval","new_object","182","Glass_Martini.jpg",".",".","0","0","1500"
"20","20","retrieval","new_object","183","TurkeyDinner.jpg",".",".","0","0","1500"
"20","20","retrieval","old_object","184","Skates.jpg",".","3","0","0","2000"
"20","20","retrieval","new_object","185","AnsweringMachine.jpg",".",".","0","0","1500"
"20","20","retrieval","new_object","186","MobilityScooter.jpg",".",".","0","0","1500"
"20","20","retrieval","new_object","187","Chopsticks.jpg",".",".","0","0","1500"
"20","20","retrieval","old_object","188","Goose_Canadian.jpg",".","3","0","0","2000"
"20","20","retrieval","old_object","189","Apple_RedAndGreen.jpg",".","1","0","0","2000"
"20","20","retrieval","old_object","190","Pitcher.jpg",".","1","0","0","2000"
"20","20","retrieval","old_object","191","Cup_Styrofoam.jpg",".","3","0","0","2000"
"20","20","retrieval","old_object","192","PassionFruit.jpg",".","3","0","0","2000"
"20","20","retrieval","new_object","193","Pipe.jpg",".",".","0","0","1500"
"20","20","retrieval","old_object","194","Knee.jpg",".","3","0","0","2000"
"20","20","retrieval","new_object","195","Tweezers.jpg",".",".","0","0","1500"
"20","20","retrieval","new_object","196","Playground.jpg",".",".","0","0","1500"
"20","20","retrieval","old_object","197","Shoes_DutchClogs.jpg",".","1","0","0","2000"
"20","20","retrieval","old_object","199","Toy_BlocksPlastic Colourful.jpg",".","1","36","1","1961"
"20","20","retrieval","new_object","200","Toy_BearBlackPlastic.jpg",".",".","36","0","1002"
"20","20","retrieval","old_object","201","CameoPortrait.jpg",".","1","37","0","119"
"20","20","retrieval","new_object","202","Exercise_Machine.jpg",".",".","37","1","1153"
"20","20","retrieval","new_object","203","Crutches.jpg",".",".","36","0","129"
"20","20","retrieval","old_object","204","Mattress.jpg",".","3","37","0","1851"
"20","20","retrieval","new_object","205","Thermostat.jpg",".",".","0","0","1500"
"20","20","retrieval","new_object","206","Dress_Blue.jpg",".",".","0","0","1500"
"20","20","retrieval","old_object","207","Desk_School.jpg",".","3","0","0","2000"
"20","20","retrieval","new_object","208","Statue_VirginMary.jpg",".",".","0","0","1500"
"20","20","retrieval","old_object","209","Fruit_Cactus.jpg",".","1","36","1","4294967295"
"20","20","retrieval","old_object","210","Bullet.jpg",".","3","0","0","2000"
"20","20","retrieval","new_object","211","Jug_Milk.jpg",".",".","0","0","1500"
"20","20","retrieval","new_object","212","Bench_Wooden.jpg",".",".","0","0","1500"
"20","20","retrieval","new_object","213","Chinchilla.jpg",".",".","0","0","1500"
"20","20","retrieval","new_object","214","ToothPaste.jpg",".",".","0","0","1500"
"20","20","retrieval","new_object","215","CuttingBoard.jpg",".",".","0","0","1500"
"20","20","retrieval","old_object","216","Sign_Wetfloor.jpg",".","3","0","0","2000"
"20","20","retrieval","new_object","217","Kite_Rainbow.jpg",".",".","0","0","1500"
"20","20","retrieval","new_object","218","Gorilla.jpg",".",".","0","0","1500"
"20","20","retrieval","new_object","219","DivingBoard.jpg",".",".","0","0","1500"
"20","20","retrieval","new_object","220","Arch.jpg",".",".","0","0","1500"
"20","20","retrieval","new_object","221","CartonEggs.jpg",".",".","0","0","1500"
"20","20","retrieval","old_object","222","Mop.jpg",".","1","0","0","2000"
"20","20","retrieval","new_object","223","Bindings_Snowboard.jpg",".",".","0","0","1500"
"20","20","retrieval","new_object","224","Sock_Ankle.jpg",".",".","0","0","1500"
"20","20","retrieval","new_object","225","Brooch_Fish.jpg",".",".","0","0","1500"
"20","20","retrieval","new_object","226","Loofa.jpg",".",".","0","0","1500"
"20","20","retrieval","old_object","227","Tortilla.jpg",".","3","0","0","2000"
"20","20","retrieval","old_object","228","JukeboxAntique.jpg",".","3","0","0","2000"
"20","20","retrieval","old_object","229","Chair_MedicalToilet.jpg",".","1","0","0","2000"
"20","20","retrieval","new_object","230","Hoverboard.jpg",".",".","0","0","1500"
"20","20","retrieval","old_object","231","Light_Siren.jpg",".","1","0","0","2000"
"20","20","retrieval","new_object","232","Icepick.jpg",".",".","0","0","1500"
"20","20","retrieval","old_object","233","Fortress.jpg",".","1","0","0","2000"
"20","20","retrieval","new_object","234","Baster.jpg",".",".","0","0","1500"
"20","20","retrieval","new_object","235","Helmet_Knight.jpg",".",".","0","0","1500"
"20","20","retrieval","old_object","236","Toy_GasPump.jpg",".","3","0","0","2000"
"20","20","retrieval","old_object","237","Ashtray_Empty.jpg",".","3","0","0","2000"
"20","20","retrieval","old_object","238","BadgeSpecialAgent.jpg",".","3","0","0","2000"
"20","20","retrieval","new_object","239","Jar_Cotton.jpg",".",".","0","0","1500"
"20","20","retrieval","old_object","240","Hippopotamus.jpg",".","3","0","0","2000"
"20","20","retrieval","new_object","241","Boardgame_Checkers.jpg",".",".","37","1","4294967245"
"20","20","retrieval","new_object","242","PropellerFan.jpg",".",".","37","1","1167"
"20","20","retrieval","new_object","243","KeyHook_Occupied.jpg",".",".","37","1","744"
"20","20","retrieval","old_object","244","Mask_Happy.jpg",".","1","37","0","4294967295"
"20","20","retrieval","new_object","245","Box_Present.jpg",".",".","37","1","32"
"20","20","retrieval","old_object","246","GasBurner.jpg",".","1","0","0","2000"