"group","subject","blockcode","trialcode","trialnum","stimulus","encoding_condition","old_object_condition","response","correct","latency"
"4","4","encoding","encoding","1","Tube_Paint.jpg","3",".","37","0","577"
"4","4","encoding","encoding","2","CarSuspension.jpg","3",".","37","0","688"
"4","4","encoding","encoding","3","GasStation.jpg","3",".","37","0","665"
"4","4","encoding","encoding","4","Barbecue_Charcoal.jpg","3",".","37","0","748"
"4","4","encoding","encoding","5","TailLight.jpg","3",".","37","0","675"
"4","4","encoding","encoding","6","Ship_Cruise.jpg","3",".","37","0","737"
"4","4","encoding","encoding","7","TailLight.jpg","3",".","37","0","796"
"4","4","encoding","encoding","8","Sign_Construction.jpg","3",".","37","0","699"
"4","4","encoding","encoding","9","Clock_Interior.jpg","1",".","37","0","941"
"4","4","encoding","encoding","10","Fork_Regular.jpg","3",".","37","0","724"
"4","4","encoding","encoding","11","WateringCan_Antique.jpg","1",".","37","0","939"
"4","4","encoding","encoding","12","Barometer.jpg","3",".","0","0","1000"
"4","4","encoding","encoding","13","Bone.jpg","3",".","36","0","679"
"4","4","encoding","encoding","14","Flags_CheckeredRacing.jpg","3",".","37","0","762"
"4","4","encoding","encoding","15","Toolbox_BlackOpen.jpg","1",".","37","0","572"
"4","4","encoding","encoding","16","Tube_Paint.jpg","3",".","37","0","467"
"4","4","encoding","encoding","17","Toy_LambPlushie.jpg","1",".","37","0","866"
"4","4","encoding","encoding","18","Aquarium.jpg","1",".","37","0","864"
"4","4","encoding","encoding","19","Statue_Horse.jpg","3",".","37","0","659"
"4","4","encoding","encoding","20","Handbag.jpg","3",".","37","0","958"
"4","4","encoding","encoding","21","Hedgehog.jpg","1",".","36","0","668"
"4","4","encoding","encoding","22","Candy_Toffee.jpg","3",".","36","0","795"
"4","4","encoding","encoding","23","Hanger.jpg","3",".","37","0","757"
"4","4","encoding","encoding","24","Clave.jpg","3",".","37","0","883"
"4","4","encoding","encoding","25","Light_Studio.jpg","3",".","0","0","1000"
"4","4","encoding","encoding","26","Lantern_Chinese.jpg","3",".","37","0","729"
"4","4","encoding","encoding","27","Tree_Fir.jpg","1",".","36","0","615"
"4","4","encoding","encoding","28","Bottle_Beer.jpg","3",".","37","0","598"
"4","4","encoding","encoding","29","Bucket_Halloween.jpg","3",".","37","0","609"
"4","4","encoding","encoding","30","BumperCar.jpg","1",".","37","0","547"
"4","4","encoding","encoding","31","Fork_Regular.jpg","3",".","37","0","534"
"4","4","encoding","encoding","32","Heelpad.jpg","3",".","37","0","885"
"4","4","encoding","encoding","33","Crab.jpg","3",".","36","0","594"
"4","4","encoding","encoding","34","Acorn.jpg","3",".","36","0","529"
"4","4","encoding","encoding","35","Statue_Man.jpg","1",".","37","0","800"
"4","4","encoding","encoding","36","Bark.jpg","1",".","36","0","654"
"4","4","encoding","encoding","37","PocketKnife.jpg","3",".","36","0","949"
"4","4","encoding","encoding","38","House_Wooden.jpg","1",".","0","0","1000"
"4","4","encoding","encoding","39","Heelpad.jpg","3",".","37","0","806"
"4","4","encoding","encoding","40","Cable_JumpStart.jpg","1",".","37","0","601"
"4","4","encoding","encoding","41","Cannon.jpg","1",".","37","0","516"
"4","4","encoding","encoding","42","Compact_Mirror.jpg","3",".","37","0","742"
"4","4","encoding","encoding","43","PulleyWooden.jpg","3",".","37","0","504"
"4","4","encoding","encoding","44","Table_Saw.jpg","3",".","37","0","495"
"4","4","encoding","encoding","45","Backpack_Suitcase.jpg","1",".","36","0","721"
"4","4","encoding","encoding","46","Crab.jpg","3",".","36","0","536"
"4","4","encoding","encoding","47","CodeDoorLock.jpg","1",".","37","0","879"
"4","4","encoding","encoding","48","SolderingIron.jpg","1",".","37","0","613"
"4","4","encoding","encoding","49","Sign_Construction.jpg","3",".","37","0","436"
"4","4","encoding","encoding","50","Briefcase_Silver.jpg","3",".","37","0","555"
"4","4","encoding","encoding","51","Earring_Hoop.jpg","3",".","37","0","485"
"4","4","encoding","encoding","52","Lantern_Chinese.jpg","3",".","37","0","452"
"4","4","encoding","encoding","53","Candy_Lozenge.jpg","3",".","37","0","730"
"4","4","encoding","encoding","54","Bread_Carrot.jpg","1",".","36","0","564"
"4","4","encoding","encoding","55","Bread_Melon.jpg","3",".","36","0","919"
"4","4","encoding","encoding","56","Lighter_Black.jpg","3",".","0","0","1000"
"4","4","encoding","encoding","57","Light_Studio.jpg","3",".","37","0","524"
"4","4","encoding","encoding","58","Canister_Oil.jpg","3",".","37","0","671"
"4","4","encoding","encoding","59","Ship_Cruise.jpg","3",".","37","0","490"
"4","4","encoding","encoding","60","Platter_Vegetables.jpg","3",".","37","0","828"
"4","4","encoding","encoding","61","Wontons.jpg","3",".","0","0","1000"
"4","4","encoding","encoding","62","MetalDetector.jpg","3",".","37","0","558"
"4","4","encoding","encoding","63","Wire_ElectricalSingle.jpg","1",".","37","0","599"
"4","4","encoding","encoding","64","CarSuspension.jpg","3",".","37","0","462"
"4","4","encoding","encoding","65","Lantern_Chinese.jpg","3",".","37","0","461"
"4","4","encoding","encoding","67","RAMchip.jpg","1",".","37","0","576"
"4","4","encoding","encoding","68","Hat_Colonial.jpg","3",".","37","0","491"
"4","4","encoding","encoding","69","Gecko.jpg","1",".","36","0","566"
"4","4","encoding","encoding","70","HoseNozzle.jpg","3",".","37","0","540"
"4","4","encoding","encoding","71","TailLight.jpg","3",".","37","0","479"
"4","4","encoding","encoding","72","Case_Pencil.jpg","3",".","37","0","513"
"4","4","encoding","encoding","73","Bus_School.jpg","3",".","37","0","431"
"4","4","encoding","encoding","74","SatelliteDish.jpg","3",".","37","0","482"
"4","4","encoding","encoding","75","Ladybug.jpg","1",".","36","0","505"
"4","4","encoding","encoding","76","Heelpad.jpg","3",".","37","0","571"
"4","4","encoding","encoding","77","Cart_Janitor.jpg","3",".","37","0","430"
"4","4","encoding","encoding","78","Helmet_Motorcycle.jpg","3",".","37","0","517"
"4","4","encoding","encoding","79","Acorn.jpg","3",".","36","0","527"
"4","4","encoding","encoding","80","GasStation.jpg","3",".","37","0","618"
"4","4","encoding","encoding","81","HoseNozzle.jpg","3",".","37","0","457"
"4","4","encoding","encoding","82","Toy_Lizard.jpg","1",".","36","0","510"
"4","4","encoding","encoding","83","Bag_Diaper.jpg","1",".","37","0","405"
"4","4","encoding","encoding","84","CarSuspension.jpg","3",".","37","0","384"
"4","4","encoding","encoding","85","Hockey_Puck.jpg","3",".","37","0","366"
"4","4","encoding","encoding","86","GasStation.jpg","3",".","37","0","413"
"4","4","encoding","encoding","87","Amp.jpg","3",".","37","0","372"
"4","4","encoding","encoding","88","PulleyWooden.jpg","3",".","37","0","510"
"4","4","encoding","encoding","89","LicensePlate.jpg","3",".","37","0","425"
"4","4","encoding","encoding","90","Taco.jpg","1",".","37","0","836"
"4","4","encoding","encoding","91","PagodaModel.jpg","3",".","37","0","586"
"4","4","encoding","encoding","92","Barometer_Wood.jpg","1",".","37","0","376"
"4","4","encoding","encoding","93","Flags_CheckeredRacing.jpg","3",".","37","0","391"
"4","4","encoding","encoding","94","Microwave.jpg","3",".","37","0","353"
"4","4","encoding","encoding","95","SatelliteDish.jpg","3",".","37","0","392"
"4","4","encoding","encoding","96","Glass_Beer.jpg","3",".","37","0","671"
"4","4","encoding","encoding","97","Bread_Melon.jpg","3",".","37","0","685"
"4","4","encoding","encoding","98","Mailbox_Antique.jpg","1",".","37","0","476"
"4","4","encoding","encoding","99","MousepadAndMouse.jpg","3",".","37","0","395"
"4","4","encoding","encoding","100","PocketKnife.jpg","3",".","37","0","505"
"4","4","encoding","encoding","101","MemoPaperSpike.jpg","3",".","37","0","652"
"4","4","encoding","encoding","102","Box_FirstAid.jpg","3",".","37","0","706"
"4","4","encoding","encoding","103","Binder.jpg","1",".","37","0","436"
"4","4","encoding","encoding","104","Spatula.jpg","1",".","37","0","531"
"4","4","encoding","encoding","105","Cup_Bathroom.jpg","3",".","37","0","446"
"4","4","encoding","encoding","106","Wontons.jpg","3",".","37","0","716"
"4","4","encoding","encoding","107","Brush_Light.jpg","3",".","37","0","415"
"4","4","encoding","encoding","108","MechanicalSpring.jpg","1",".","37","0","482"
"4","4","encoding","encoding","109","WaterWell.jpg","1",".","37","0","868"
"4","4","encoding","encoding","110","Trash_Medical.jpg","3",".","37","0","539"
"4","4","encoding","encoding","111","Handbag.jpg","3",".","37","0","382"
"4","4","encoding","encoding","112","Canister_Oil.jpg","3",".","37","0","507"
"4","4","encoding","encoding","113","HairCurler.jpg","3",".","37","0","878"
"4","4","encoding","encoding","114","Milkshake_Strawberry.jpg","3",".","0","0","1000"
"4","4","encoding","encoding","115","Barbecue_Charcoal.jpg","3",".","37","0","919"
"4","4","encoding","encoding","116","Light_Fixtures.jpg","1",".","37","0","566"
"4","4","encoding","encoding","117","Compact_Mirror.jpg","3",".","37","0","449"
"4","4","encoding","encoding","118","SolderingWire.jpg","3",".","37","0","759"
"4","4","encoding","encoding","119","Hat_Colonial.jpg","3",".","37","0","514"
"4","4","encoding","encoding","120","Box_FirstAid.jpg","3",".","37","0","537"
"4","4","encoding","encoding","121","AirPump.jpg","3",".","37","0","943"
"4","4","encoding","encoding","122","Bread_Roll.jpg","3",".","37","0","801"
"4","4","encoding","encoding","123","Stove_WithOven.jpg","1",".","37","0","488"
"4","4","encoding","encoding","124","DartBoard.jpg","1",".","37","0","402"
"4","4","encoding","encoding","125","HairCurler.jpg","3",".","37","0","493"
"4","4","encoding","encoding","126","LicensePlate.jpg","3",".","37","0","400"
"4","4","encoding","encoding","127","Jar_Honey.jpg","3",".","37","0","666"
"4","4","encoding","encoding","128","Barbecue_Charcoal.jpg","3",".","0","0","1000"
"4","4","encoding","encoding","129","Trash_Medical.jpg","3",".","37","0","564"
"4","4","encoding","encoding","130","Stone_AncientWriting.jpg","3",".","36","0","966"
"4","4","encoding","encoding","131","Mailbox_Community.jpg","1",".","37","0","685"
"4","4","encoding","encoding","133","Bible.jpg","1",".","0","0","1000"
"4","4","encoding","encoding","134","Bottle_Beer.jpg","3",".","37","0","613"
"4","4","encoding","encoding","135","Garlic_Whole.jpg","1",".","37","0","807"
"4","4","encoding","encoding","136","SelfieStick.jpg","1",".","37","0","570"
"4","4","encoding","encoding","137","Cake_Cheese.jpg","3",".","0","0","1000"
"4","4","encoding","encoding","138","Statue_Horse.jpg","3",".","37","0","635"
"4","4","encoding","encoding","139","SewingPin_Cushion.jpg","1",".","37","0","742"
"4","4","encoding","encoding","140","Bat_Cricket.jpg","3",".","37","0","601"
"4","4","encoding","encoding","141","LifeJacket_Orangejpg.jpg","1",".","37","0","519"
"4","4","encoding","encoding","142","Hanger.jpg","3",".","37","0","414"
"4","4","encoding","encoding","143","Makeup_Compact.jpg","1",".","37","0","577"
"4","4","encoding","encoding","144","Carousel.jpg","3",".","37","0","686"
"4","4","encoding","encoding","145","Carousel.jpg","3",".","37","0","417"
"4","4","encoding","encoding","146","Radish.jpg","3",".","36","0","632"
"4","4","encoding","encoding","147","Carabiner_Orange.jpg","1",".","37","0","862"
"4","4","encoding","encoding","148","Jar_Honey.jpg","3",".","36","0","653"
"4","4","encoding","encoding","149","sign_traffic.jpg","1",".","37","0","672"
"4","4","encoding","encoding","150","Milkshake_Strawberry.jpg","3",".","37","0","814"
"4","4","encoding","encoding","151","Bread_Roll.jpg","3",".","37","0","569"
"4","4","encoding","encoding","152","Tube_Glue.jpg","3",".","37","0","436"
"4","4","encoding","encoding","153","Canister_Oil.jpg","3",".","37","0","522"
"4","4","encoding","encoding","154","Acorn.jpg","3",".","36","0","816"
"4","4","encoding","encoding","155","Fork_Regular.jpg","3",".","37","0","775"
"4","4","encoding","encoding","156","Thermometer_Room.jpg","1",".","37","0","421"
"4","4","encoding","encoding","157","Toy_PandaPlushie.jpg","3",".","37","0","588"
"4","4","encoding","encoding","158","LicensePlate.jpg","3",".","37","0","519"
"4","4","encoding","encoding","159","Carousel.jpg","3",".","37","0","589"
"4","4","encoding","encoding","160","Lighter_Black.jpg","3",".","37","0","524"
"4","4","encoding","encoding","161","HoseNozzle.jpg","3",".","37","0","435"
"4","4","encoding","encoding","162","Cup_Bathroom.jpg","3",".","37","0","613"
"4","4","encoding","encoding","163","SatelliteDish.jpg","3",".","37","0","404"
"4","4","encoding","encoding","164","Tube_Glue.jpg","3",".","37","0","430"
"4","4","encoding","encoding","165","Cake_Cheese.jpg","3",".","37","0","616"
"4","4","encoding","encoding","166","PencilCase.jpg","3",".","37","0","671"
"4","4","encoding","encoding","167","DogSled.jpg","3",".","0","0","1000"
"4","4","encoding","encoding","168","Television.jpg","1",".","37","0","532"
"4","4","encoding","encoding","169","Helmet_Motorcycle.jpg","3",".","37","0","491"
"4","4","encoding","encoding","170","CoffeeLid.jpg","3",".","37","0","498"
"4","4","encoding","encoding","171","Handbag.jpg","3",".","37","0","336"
"4","4","encoding","encoding","172","PumiceStone.jpg","3",".","36","0","798"
"4","4","encoding","encoding","173","Briefcase_Silver.jpg","3",".","37","0","517"
"4","4","encoding","encoding","174","Helmet_Football.jpg","1",".","37","0","447"
"4","4","encoding","encoding","175","Earring_Hoop.jpg","3",".","37","0","437"
"4","4","encoding","encoding","176","Toy_Truck.jpg","1",".","37","0","352"
"4","4","encoding","encoding","177","Candy_Toffee.jpg","3",".","36","0","558"
"4","4","encoding","encoding","178","Cymbals.jpg","1",".","37","0","557"
"4","4","encoding","encoding","179","IceCream_Popsicle.jpg","3",".","37","0","448"
"4","4","encoding","encoding","180","Toy_MerryGoRound.jpg","1",".","37","0","451"
"4","4","encoding","encoding","181","Radish.jpg","3",".","36","0","529"
"4","4","encoding","encoding","182","Compact_Mirror.jpg","3",".","37","0","424"
"4","4","encoding","encoding","183","Briefcase_Silver.jpg","3",".","37","0","427"
"4","4","encoding","encoding","184","Platter_Vegetables.jpg","3",".","36","0","772"
"4","4","encoding","encoding","185","Hat_Colonial.jpg","3",".","37","0","435"
"4","4","encoding","encoding","186","Radish.jpg","3",".","36","0","634"
"4","4","encoding","encoding","187","AirCompressor.jpg","1",".","37","0","528"
"4","4","encoding","encoding","188","Platter_Vegetables.jpg","3",".","36","0","635"
"4","4","encoding","encoding","189","Envelope_Manila.jpg","1",".","37","0","554"
"4","4","encoding","encoding","190","Crab.jpg","3",".","36","0","560"
"4","4","encoding","encoding","191","HairCurler.jpg","3",".","37","0","535"
"4","4","encoding","encoding","192","SofaAntique.jpg","1",".","37","0","550"
"4","4","encoding","encoding","193","Hockey_Puck.jpg","3",".","37","0","400"
"4","4","encoding","encoding","194","Tube_Paint.jpg","3",".","37","0","426"
"4","4","encoding","encoding","195","SolderingWire.jpg","3",".","37","0","425"
"4","4","encoding","encoding","196","Bandage_Adhesive.jpg","1",".","36","0","699"
"4","4","encoding","encoding","197","Cinnamonroll.jpg","3",".","0","0","1000"
"4","4","encoding","encoding","199","Bucket_Halloween.jpg","3",".","37","0","587"
"4","4","encoding","encoding","200","ProjectorScreen.jpg","3",".","37","0","397"
"4","4","encoding","encoding","201","Bus_School.jpg","3",".","37","0","512"
"4","4","encoding","encoding","202","Bone.jpg","3",".","36","0","542"
"4","4","encoding","encoding","203","Can_Oblong.jpg","3",".","37","0","525"
"4","4","encoding","encoding","204","Earring_Hoop.jpg","3",".","37","0","416"
"4","4","encoding","encoding","205","Toy_PandaPlushie.jpg","3",".","37","0","494"
"4","4","encoding","encoding","206","AirPump.jpg","3",".","37","0","389"
"4","4","encoding","encoding","207","Brush_Light.jpg","3",".","37","0","376"
"4","4","encoding","encoding","208","Spear.jpg","1",".","37","0","426"
"4","4","encoding","encoding","209","TortillaChip.jpg","1",".","37","0","965"
"4","4","encoding","encoding","210","Bread_Loaf.jpg","3",".","37","0","787"
"4","4","encoding","encoding","211","DogSled.jpg","3",".","37","0","641"
"4","4","encoding","encoding","212","Brush_Light.jpg","3",".","37","0","504"
"4","4","encoding","encoding","213","Barometer.jpg","3",".","37","0","427"
"4","4","encoding","encoding","214","Light_Studio.jpg","3",".","37","0","397"
"4","4","encoding","encoding","215","Sign_Construction.jpg","3",".","37","0","436"
"4","4","encoding","encoding","216","Candy_Lozenge.jpg","3",".","37","0","639"
"4","4","encoding","encoding","217","DoubleBass.jpg","3",".","37","0","405"
"4","4","encoding","encoding","218","Mask_HockeyGoalie.jpg","1",".","37","0","520"
"4","4","encoding","encoding","219","MousepadAndMouse.jpg","3",".","37","0","547"
"4","4","encoding","encoding","220","DogSled.jpg","3",".","37","0","684"
"4","4","encoding","encoding","221","PagodaModel.jpg","3",".","37","0","547"
"4","4","encoding","encoding","222","Barometer.jpg","3",".","37","0","374"
"4","4","encoding","encoding","223","Desk_White.jpg","1",".","37","0","400"
"4","4","encoding","encoding","224","ProjectorScreen.jpg","3",".","37","0","451"
"4","4","encoding","encoding","225","PagodaModel.jpg","3",".","37","0","370"
"4","4","encoding","encoding","226","PencilCase.jpg","3",".","37","0","192"
"4","4","encoding","encoding","227","ManholeCover.jpg","1",".","37","0","255"
"4","4","encoding","encoding","228","Bread_Loaf.jpg","3",".","37","0","226"
"4","4","encoding","encoding","229","SolderingWire.jpg","3",".","37","0","420"
"4","4","encoding","encoding","230","Case_Pencil.jpg","3",".","37","0","398"
"4","4","encoding","encoding","231","Table_Saw.jpg","3",".","37","0","365"
"4","4","encoding","encoding","232","PumiceStone.jpg","3",".","36","0","731"
"4","4","encoding","encoding","233","MemoPaperSpike.jpg","3",".","37","0","574"
"4","4","encoding","encoding","234","Weathervane.jpg","1",".","37","0","873"
"4","4","encoding","encoding","235","Castle_Sand.jpg","1",".","0","0","1000"
"4","4","encoding","encoding","236","Van.jpg","1",".","37","0","814"
"4","4","encoding","encoding","237","Nuts_Pecan.jpg","1",".","37","0","809"
"4","4","encoding","encoding","238","MetalDetector.jpg","3",".","37","0","515"
"4","4","encoding","encoding","239","Mask_Ski.jpg","3",".","37","0","818"
"4","4","encoding","encoding","240","PencilCase.jpg","3",".","37","0","852"
"4","4","encoding","encoding","241","Oars.jpg","1",".","37","0","510"
"4","4","encoding","encoding","242","Helmet_Motorcycle.jpg","3",".","37","0","465"
"4","4","encoding","encoding","243","Lollipop_Rainbow.jpg","1",".","37","0","336"
"4","4","encoding","encoding","244","Hubcap.jpg","3",".","37","0","262"
"4","4","encoding","encoding","245","Cart_Janitor.jpg","3",".","37","0","385"
"4","4","encoding","encoding","246","Scythe.jpg","1",".","37","0","512"
"4","4","encoding","encoding","247","Hubcap.jpg","3",".","37","0","290"
"4","4","encoding","encoding","248","Jar_Honey.jpg","3",".","36","0","657"
"4","4","encoding","encoding","249","PyramidWooden.jpg","1",".","37","0","744"
"4","4","encoding","encoding","250","Amp.jpg","3",".","37","0","437"
"4","4","encoding","encoding","251","Bat_Cricket.jpg","3",".","37","0","488"
"4","4","encoding","encoding","252","Cinnamonroll.jpg","3",".","37","0","663"
"4","4","encoding","encoding","253","MemoPaperSpike.jpg","3",".","37","0","461"
"4","4","encoding","encoding","254","Bat_Cricket.jpg","3",".","37","0","372"
"4","4","encoding","encoding","255","Arch_Triomphe.jpg","1",".","37","0","339"
"4","4","encoding","encoding","256","Bread_Loaf.jpg","3",".","37","0","489"
"4","4","encoding","encoding","257","Lens_Camera.jpg","1",".","37","0","208"
"4","4","encoding","encoding","258","Branch.jpg","1",".","0","0","1000"
"4","4","encoding","encoding","259","Mug_Travel.jpg","1",".","0","0","1000"
"4","4","encoding","encoding","260","Hockey_Puck.jpg","3",".","37","0","547"
"4","4","encoding","encoding","261","FireAlarm.jpg","1",".","37","0","422"
"4","4","encoding","encoding","262","Bread_Roll.jpg","3",".","37","0","600"
"4","4","encoding","encoding","263","ProjectorScreen.jpg","3",".","37","0","371"
"4","4","encoding","encoding","265","AirPump.jpg","3",".","37","0","692"
"4","4","encoding","encoding","266","Tube_Glue.jpg","3",".","37","0","459"
"4","4","encoding","encoding","267","Corkboard.jpg","1",".","37","0","694"
"4","4","encoding","encoding","268","Light_Halogen.jpg","1",".","37","0","519"
"4","4","encoding","encoding","269","Wontons.jpg","3",".","37","0","770"
"4","4","encoding","encoding","270","DoubleBass.jpg","3",".","37","0","441"
"4","4","encoding","encoding","271","Cinnamonroll.jpg","3",".","37","0","627"
"4","4","encoding","encoding","272","Milkshake_Strawberry.jpg","3",".","37","0","414"
"4","4","encoding","encoding","273","Case_Pencil.jpg","3",".","37","0","425"
"4","4","encoding","encoding","274","MousepadAndMouse.jpg","3",".","37","0","483"
"4","4","encoding","encoding","275","Mask_Ski.jpg","3",".","37","0","430"
"4","4","encoding","encoding","276","Stone_AncientWriting.jpg","3",".","36","0","661"
"4","4","encoding","encoding","277","Bird_Duck.jpg","1",".","36","0","819"
"4","4","encoding","encoding","278","Chair_Office.jpg","1",".","37","0","797"
"4","4","encoding","encoding","279","Bowl_Glass.jpg","1",".","37","0","760"
"4","4","encoding","encoding","280","Glass_Beer.jpg","3",".","0","0","1000"
"4","4","encoding","encoding","281","IceCream_Popsicle.jpg","3",".","37","0","909"
"4","4","encoding","encoding","282","Cassette_Video.jpg","1",".","37","0","724"
"4","4","encoding","encoding","283","PocketKnife.jpg","3",".","37","0","818"
"4","4","encoding","encoding","284","MetalDetector.jpg","3",".","37","0","593"
"4","4","encoding","encoding","285","Candy_Toffee.jpg","3",".","36","0","524"
"4","4","encoding","encoding","286","CoffeeLid.jpg","3",".","37","0","774"
"4","4","encoding","encoding","287","Clave.jpg","3",".","37","0","657"
"4","4","encoding","encoding","288","Cup_Bathroom.jpg","3",".","37","0","423"
"4","4","encoding","encoding","289","Stone_AncientWriting.jpg","3",".","36","0","585"
"4","4","encoding","encoding","290","Ship_Cruise.jpg","3",".","37","0","736"
"4","4","encoding","encoding","291","Statue_Horse.jpg","3",".","37","0","503"
"4","4","encoding","encoding","292","Hubcap.jpg","3",".","37","0","381"
"4","4","encoding","encoding","293","Lighter_Black.jpg","3",".","37","0","496"
"4","4","encoding","encoding","294","Toy_PandaPlushie.jpg","3",".","37","0","411"
"4","4","encoding","encoding","295","Candy_Lozenge.jpg","3",".","37","0","673"
"4","4","encoding","encoding","296","Bread_Melon.jpg","3",".","37","0","520"
"4","4","encoding","encoding","297","Box_FirstAid.jpg","3",".","37","0","411"
"4","4","encoding","encoding","298","Cake_Cheese.jpg","3",".","37","0","752"
"4","4","encoding","encoding","299","Table_Saw.jpg","3",".","37","0","431"
"4","4","encoding","encoding","300","Amp.jpg","3",".","37","0","238"
"4","4","encoding","encoding","301","PumiceStone.jpg","3",".","36","0","564"
"4","4","encoding","encoding","302","Cart_Janitor.jpg","3",".","37","0","415"
"4","4","encoding","encoding","303","DoubleBass.jpg","3",".","37","0","270"
"4","4","encoding","encoding","304","Flags_CheckeredRacing.jpg","3",".","37","0","224"
"4","4","encoding","encoding","305","Bone.jpg","3",".","36","0","539"
"4","4","encoding","encoding","306","Bottle_Beer.jpg","3",".","37","0","254"
"4","4","encoding","encoding","307","Trash_Medical.jpg","3",".","37","0","388"
"4","4","encoding","encoding","308","Clave.jpg","3",".","37","0","513"
"4","4","encoding","encoding","309","Bleachers.jpg","1",".","37","0","236"
"4","4","encoding","encoding","310","IceCream_Popsicle.jpg","3",".","37","0","243"
"4","4","encoding","encoding","311","CoffeeLid.jpg","3",".","37","0","405"
"4","4","encoding","encoding","312","Microwave.jpg","3",".","37","0","268"
"4","4","encoding","encoding","313","Bus_School.jpg","3",".","37","0","331"
"4","4","encoding","encoding","314","Can_Oblong.jpg","3",".","37","0","405"
"4","4","encoding","encoding","315","PulleyWooden.jpg","3",".","37","0","432"
"4","4","encoding","encoding","316","Bucket_Halloween.jpg","3",".","37","0","359"
"4","4","encoding","encoding","317","Mask_Ski.jpg","3",".","37","0","445"
"4","4","encoding","encoding","318","Can_Oblong.jpg","3",".","37","0","255"
"4","4","encoding","encoding","319","Microwave.jpg","3",".","37","0","378"
"4","4","encoding","encoding","320","Glass_Beer.jpg","3",".","37","0","240"
"4","4","encoding","encoding","321","Stool_Metal.jpg","1",".","37","0","227"
"4","4","encoding","encoding","322","Walker_Blue.jpg","1",".","37","0","382"
"4","4","encoding","encoding","323","Hanger.jpg","3",".","37","0","352"
"4","4","encoding","encoding","324","Umbrella_Classic.jpg","1",".","37","0","435"
"4","4","encoding","encoding","325","Tube_Paint.jpg","",".","37","0","286"
"4","4","retrieval","old_object","1","Brush_Light.jpg",".","3","36","1","756"
"4","4","retrieval","new_object","2","Helicopter.jpg",".",".","36","0","1231"
"4","4","retrieval","new_object","3","Dropper.jpg",".",".","37","1","870"
"4","4","retrieval","new_object","4","Car_Buggy.jpg",".",".","37","1","976"
"4","4","retrieval","new_object","5","Stick_IceHockey.jpg",".",".","37","1","858"
"4","4","retrieval","new_object","6","Blueberry.jpg",".",".","37","1","837"
"4","4","retrieval","old_object","7","Mask_Ski.jpg",".","3","36","1","687"
"4","4","retrieval","old_object","8","Bread_Carrot.jpg",".","1","36","1","862"
"4","4","retrieval","old_object","9","MousepadAndMouse.jpg",".","3","36","1","629"
"4","4","retrieval","new_object","10","Pretzel_Sticks.jpg",".",".","37","1","723"
"4","4","retrieval","new_object","11","TowelRack_Brown.jpg",".",".","37","1","657"
"4","4","retrieval","old_object","12","Cake_Cheese.jpg",".","3","36","1","660"
"4","4","retrieval","old_object","13","Mailbox_Antique.jpg",".","1","36","1","1234"
"4","4","retrieval","new_object","14","Broccoli.jpg",".",".","37","1","669"
"4","4","retrieval","new_object","15","ClothesDryingRack.jpg",".",".","37","1","796"
"4","4","retrieval","old_object","16","DogSled.jpg",".","3","36","1","689"
"4","4","retrieval","new_object","17","GrillRack.jpg",".",".","37","1","1224"
"4","4","retrieval","new_object","18","Toy_Rooster.jpg",".",".","37","1","775"
"4","4","retrieval","new_object","19","Sign_SlipperyRoad.jpg",".",".","36","0","1205"
"4","4","retrieval","old_object","20","Hedgehog.jpg",".","1","36","1","704"
"4","4","retrieval","old_object","21","Binder.jpg",".","1","36","1","774"
"4","4","retrieval","old_object","22","Light_Studio.jpg",".","3","36","1","697"
"4","4","retrieval","new_object","23","PowderProtein.jpg",".",".","37","1","942"
"4","4","retrieval","new_object","24","Bag_Toiletry.jpg",".",".","37","1","869"
"4","4","retrieval","new_object","25","Pear_Green.jpg",".",".","37","1","764"
"4","4","retrieval","old_object","26","Bible.jpg",".","1","37","0","1091"
"4","4","retrieval","new_object","27","Coral.jpg",".",".","37","1","905"
"4","4","retrieval","old_object","28","Candy_Toffee.jpg",".","3","36","1","688"
"4","4","retrieval","new_object","29","Paddle_Ball.jpg",".",".","36","0","1109"
"4","4","retrieval","old_object","30","Tube_Glue.jpg",".","3","36","1","916"
"4","4","retrieval","new_object","31","Sandwich_Ham.jpg",".",".","37","1","782"
"4","4","retrieval","new_object","32","Ginger.jpg",".",".","37","1","814"
"4","4","retrieval","old_object","33","SatelliteDish.jpg",".","3","36","1","741"
"4","4","retrieval","new_object","34","Tape_Dispenser.jpg",".",".","37","1","870"
"4","4","retrieval","old_object","35","Cup_Bathroom.jpg",".","3","37","0","1017"
"4","4","retrieval","new_object","36","Bagpipes.jpg",".",".","37","1","863"
"4","4","retrieval","old_object","37","AirCompressor.jpg",".","1","37","0","741"
"4","4","retrieval","old_object","38","TailLight.jpg",".","3","36","1","769"
"4","4","retrieval","new_object","39","Squash_Butternut.jpg",".",".","37","1","784"
"4","4","retrieval","new_object","40","Glove_Baseball.jpg",".",".","37","1","822"
"4","4","retrieval","old_object","41","Case_Pencil.jpg",".","3","36","1","715"
"4","4","retrieval","new_object","42","Carrot.jpg",".",".","37","1","707"
"4","4","retrieval","old_object","43","Helmet_Football.jpg",".","1","36","1","965"
"4","4","retrieval","new_object","44","Snowpea.jpg",".",".","37","1","663"
"4","4","retrieval","new_object","45","ShoeLace_Flat.jpg",".",".","37","1","694"
"4","4","retrieval","old_object","46","Bleachers.jpg",".","1","37","0","932"
"4","4","retrieval","new_object","47","Ostrich.jpg",".",".","37","1","734"
"4","4","retrieval","new_object","48","Otoscope.jpg",".",".","37","1","1218"
"4","4","retrieval","new_object","49","Coin.jpg",".",".","37","1","816"
"4","4","retrieval","new_object","50","Dog_Bulldog.jpg",".",".","37","1","794"
"4","4","retrieval","new_object","51","Puzzle_Animal.jpg",".",".","37","1","921"
"4","4","retrieval","old_object","52","Flags_CheckeredRacing.jpg",".","3","36","1","616"
"4","4","retrieval","old_object","53","Taco.jpg",".","1","36","1","653"
"4","4","retrieval","old_object","54","Ship_Cruise.jpg",".","3","36","1","724"
"4","4","retrieval","new_object","55","Backhoe.jpg",".",".","37","1","1123"
"4","4","retrieval","new_object","56","Golf_Club.jpg",".",".","37","1","954"
"4","4","retrieval","old_object","57","Stool_Metal.jpg",".","1","36","1","769"
"4","4","retrieval","new_object","58","Dragonfly.jpg",".",".","37","1","771"
"4","4","retrieval","old_object","59","Cart_Janitor.jpg",".","3","37","0","924"
"4","4","retrieval","old_object","60","Bread_Roll.jpg",".","3","36","1","1036"
"4","4","retrieval","new_object","61","MatchBook.jpg",".",".","37","1","834"
"4","4","retrieval","old_object","62","Box_FirstAid.jpg",".","3","36","1","777"
"4","4","retrieval","new_object","63","PaperCutter.jpg",".",".","37","1","1152"
"4","4","retrieval","new_object","64","Tray_Metal.jpg",".",".","37","1","919"
"4","4","retrieval","old_object","65","Statue_Man.jpg",".","1","0","0","2000"
"4","4","retrieval","new_object","67","Hat_Feather.jpg",".",".","37","1","729"
"4","4","retrieval","old_object","68","Glass_Beer.jpg",".","3","36","1","724"
"4","4","retrieval","old_object","69","Toy_PandaPlushie.jpg",".","3","36","1","607"
"4","4","retrieval","old_object","70","Bucket_Halloween.jpg",".","3","36","1","601"
"4","4","retrieval","new_object","71","Boar.jpg",".",".","37","1","964"
"4","4","retrieval","new_object","72","PaperTowel_Brown.jpg",".",".","37","1","955"
"4","4","retrieval","new_object","73","Ruler_Wooden.jpg",".",".","37","1","693"
"4","4","retrieval","new_object","74","Canister_Tea.jpg",".",".","37","1","871"
"4","4","retrieval","new_object","75","FlintIgniter.jpg",".",".","37","1","1126"
"4","4","retrieval","new_object","76","ComputerKey_Escape.jpg",".",".","37","1","840"
"4","4","retrieval","old_object","77","Spatula.jpg",".","1","36","1","746"
"4","4","retrieval","old_object","78","Van.jpg",".","1","37","0","981"
"4","4","retrieval","new_object","79","Seeder.jpg",".",".","36","0","1191"
"4","4","retrieval","old_object","80","Bandage_Adhesive.jpg",".","1","36","1","930"
"4","4","retrieval","old_object","81","LicensePlate.jpg",".","3","36","1","777"
"4","4","retrieval","new_object","82","Stone_Spa.jpg",".",".","37","1","627"
"4","4","retrieval","new_object","83","Bus_DoubleDecker.jpg",".",".","37","1","997"
"4","4","retrieval","old_object","84","Gecko.jpg",".","1","36","1","840"
"4","4","retrieval","new_object","85","WalkieTalkie_Yellow.jpg",".",".","37","1","826"
"4","4","retrieval","new_object","86","Sink_Kitchen.jpg",".",".","37","1","1293"
"4","4","retrieval","old_object","87","Tube_Paint.jpg",".","3","36","1","1368"
"4","4","retrieval","old_object","88","Handbag.jpg",".","3","36","1","694"
"4","4","retrieval","old_object","89","ManholeCover.jpg",".","1","37","0","921"
"4","4","retrieval","new_object","90","PumpBreast.jpg",".",".","37","1","663"
"4","4","retrieval","old_object","91","PocketKnife.jpg",".","3","36","1","769"
"4","4","retrieval","old_object","92","Oars.jpg",".","1","37","0","1432"
"4","4","retrieval","old_object","93","Helmet_Motorcycle.jpg",".","3","36","1","663"
"4","4","retrieval","old_object","94","Canister_Oil.jpg",".","3","36","1","621"
"4","4","retrieval","new_object","95","IceCubes.jpg",".",".","37","1","753"
"4","4","retrieval","old_object","96","Bus_School.jpg",".","3","36","1","734"
"4","4","retrieval","old_object","97","Statue_Horse.jpg",".","3","36","1","624"
"4","4","retrieval","old_object","98","IceCream_Popsicle.jpg",".","3","36","1","595"
"4","4","retrieval","old_object","99","BumperCar.jpg",".","1","37","0","1226"
"4","4","retrieval","old_object","100","Hanger.jpg",".","3","36","1","569"
"4","4","retrieval","old_object","101","HairCurler.jpg",".","3","36","1","787"
"4","4","retrieval","new_object","102","Heater_Outdoor.jpg",".",".","37","1","997"
"4","4","retrieval","old_object","103","Mailbox_Community.jpg",".","1","36","1","923"
"4","4","retrieval","new_object","104","Lynx.jpg",".",".","37","1","926"
"4","4","retrieval","old_object","105","Cinnamonroll.jpg",".","3","36","1","689"
"4","4","retrieval","old_object","106","Briefcase_Silver.jpg",".","3","36","1","603"
"4","4","retrieval","new_object","107","Makeup_Bag.jpg",".",".","37","1","818"
"4","4","retrieval","new_object","108","Candleholder_LampShaped.jpg",".",".","37","1","972"
"4","4","retrieval","old_object","109","Barometer_Wood.jpg",".","1","36","1","1282"
"4","4","retrieval","old_object","110","Umbrella_Classic.jpg",".","1","36","1","1097"
"4","4","retrieval","new_object","111","Shoes_Mould.jpg",".",".","37","1","1156"
"4","4","retrieval","old_object","112","CodeDoorLock.jpg",".","1","36","1","850"
"4","4","retrieval","new_object","113","MortarPestle_WhiteMarble.jpg",".",".","37","1","869"
"4","4","retrieval","new_object","114","BowlingPin.jpg",".",".","37","1","659"
"4","4","retrieval","old_object","115","Candy_Lozenge.jpg",".","3","36","1","645"
"4","4","retrieval","old_object","116","Bag_Diaper.jpg",".","1","37","0","1232"
"4","4","retrieval","old_object","117","Backpack_Suitcase.jpg",".","1","37","0","1179"
"4","4","retrieval","old_object","118","MetalDetector.jpg",".","3","36","1","853"
"4","4","retrieval","old_object","119","SolderingWire.jpg",".","3","36","1","680"
"4","4","retrieval","old_object","120","Radish.jpg",".","3","36","1","611"
"4","4","retrieval","new_object","121","ShinPads.jpg",".",".","37","1","1196"
"4","4","retrieval","new_object","122","Compressor.jpg",".",".","36","0","884"
"4","4","retrieval","old_object","123","Clave.jpg",".","3","36","1","646"
"4","4","retrieval","new_object","124","Boat_Colourful.jpg",".",".","37","1","1117"
"4","4","retrieval","old_object","125","Branch.jpg",".","1","36","1","915"
"4","4","retrieval","old_object","126","Bread_Loaf.jpg",".","3","36","1","1021"
"4","4","retrieval","old_object","127","Stove_WithOven.jpg",".","1","36","1","1056"
"4","4","retrieval","old_object","128","TortillaChip.jpg",".","1","36","1","838"
"4","4","retrieval","new_object","129","Nail.jpg",".",".","37","1","877"
"4","4","retrieval","old_object","130","Carabiner_Orange.jpg",".","1","36","1","751"
"4","4","retrieval","new_object","131","SoapDish.jpg",".",".","37","1","1242"
"4","4","retrieval","old_object","133","Barometer.jpg",".","3","37","0","967"
"4","4","retrieval","new_object","134","Toy_Firetruck.jpg",".",".","37","1","1058"
"4","4","retrieval","old_object","135","Ladybug.jpg",".","1","36","1","588"
"4","4","retrieval","old_object","136","Bread_Melon.jpg",".","3","36","1","655"
"4","4","retrieval","old_object","137","GasStation.jpg",".","3","36","1","738"
"4","4","retrieval","new_object","138","Fan_Straw.jpg",".",".","37","1","1339"
"4","4","retrieval","old_object","139","Bat_Cricket.jpg",".","3","36","1","1002"
"4","4","retrieval","new_object","140","TowelRack_Metal.jpg",".",".","37","1","1325"
"4","4","retrieval","new_object","141","Neckrest.jpg",".",".","37","1","787"
"4","4","retrieval","new_object","142","Cheeseburger.jpg",".",".","37","1","706"
"4","4","retrieval","old_object","143","Desk_White.jpg",".","1","36","1","1245"
"4","4","retrieval","new_object","144","Dice.jpg",".",".","37","1","622"
"4","4","retrieval","old_object","145","Scythe.jpg",".","1","36","1","1137"
"4","4","retrieval","old_object","146","Mask_HockeyGoalie.jpg",".","1","36","1","808"
"4","4","retrieval","new_object","147","Cloud.jpg",".",".","37","1","778"
"4","4","retrieval","new_object","148","DonaldDuck_Toy.jpg",".",".","37","1","1033"
"4","4","retrieval","old_object","149","Aquarium.jpg",".","1","36","1","916"
"4","4","retrieval","new_object","150","Stick_Stirring.jpg",".",".","37","1","653"
"4","4","retrieval","old_object","151","Cannon.jpg",".","1","36","1","832"
"4","4","retrieval","old_object","152","Weathervane.jpg",".","1","36","1","703"
"4","4","retrieval","old_object","153","Wontons.jpg",".","3","36","1","826"
"4","4","retrieval","old_object","154","Cassette_Video.jpg",".","1","36","1","748"
"4","4","retrieval","old_object","155","SolderingIron.jpg",".","1","37","0","1411"
"4","4","retrieval","new_object","156","Flashlight.jpg",".",".","37","1","1208"
"4","4","retrieval","old_object","157","House_Wooden.jpg",".","1","37","0","1287"
"4","4","retrieval","old_object","158","Hat_Colonial.jpg",".","3","36","1","686"
"4","4","retrieval","new_object","159","HairBand.jpg",".",".","37","1","812"
"4","4","retrieval","old_object","160","Amp.jpg",".","3","36","1","867"
"4","4","retrieval","new_object","161","Heater_ElectricUpright.jpg",".",".","37","1","1526"
"4","4","retrieval","new_object","162","WaterHeater.jpg",".",".","36","0","1923"
"4","4","retrieval","old_object","163","PulleyWooden.jpg",".","3","36","1","666"
"4","4","retrieval","old_object","164","sign_traffic.jpg",".","1","36","1","618"
"4","4","retrieval","old_object","165","DartBoard.jpg",".","1","37","0","907"
"4","4","retrieval","new_object","166","EyeChart.jpg",".",".","37","1","1074"
"4","4","retrieval","new_object","167","Box_WoodCrate.jpg",".",".","37","1","1041"
"4","4","retrieval","new_object","168","Barrel_Wine.jpg",".",".","37","1","954"
"4","4","retrieval","new_object","169","Notepad.jpg",".",".","37","1","909"
"4","4","retrieval","old_object","170","Cymbals.jpg",".","1","36","1","1416"
"4","4","retrieval","old_object","171","CoffeeLid.jpg",".","3","36","1","1494"
"4","4","retrieval","new_object","172","Lobster.jpg",".",".","36","0","581"
"4","4","retrieval","new_object","173","OperaGlasses.jpg",".",".","37","1","1528"
"4","4","retrieval","new_object","174","Balcony.jpg",".",".","37","1","773"
"4","4","retrieval","old_object","175","Toy_Truck.jpg",".","1","37","0","868"
"4","4","retrieval","old_object","176","Sign_Construction.jpg",".","3","36","1","823"
"4","4","retrieval","new_object","177","Shovel_Garden.jpg",".",".","37","1","1697"
"4","4","retrieval","old_object","178","Walker_Blue.jpg",".","1","37","0","1728"
"4","4","retrieval","old_object","179","Heelpad.jpg",".","3","36","1","915"
"4","4","retrieval","new_object","180","Camera_Video.jpg",".",".","37","1","792"
"4","4","retrieval","new_object","181","Bowl_Chopsticks.jpg",".",".","37","1","1043"
"4","4","retrieval","new_object","182","Toy_Ladybug.jpg",".",".","37","1","1374"
"4","4","retrieval","old_object","183","Can_Oblong.jpg",".","3","36","1","1416"
"4","4","retrieval","old_object","184","PyramidWooden.jpg",".","1","36","1","715"
"4","4","retrieval","new_object","185","Level.jpg",".",".","37","1","1710"
"4","4","retrieval","old_object","186","Crab.jpg",".","3","36","1","647"
"4","4","retrieval","old_object","187","Hubcap.jpg",".","3","37","0","1590"
"4","4","retrieval","new_object","188","Glasses_Sun.jpg",".",".","37","1","1145"
"4","4","retrieval","new_object","189","CDstack.jpg",".",".","37","1","1691"
"4","4","retrieval","new_object","190","Mitt_Blue.jpg",".",".","37","1","1118"
"4","4","retrieval","new_object","191","Toy_Dog.jpg",".",".","37","1","933"
"4","4","retrieval","new_object","192","LintRemover.jpg",".",".","37","1","1686"
"4","4","retrieval","old_object","193","LifeJacket_Orangejpg.jpg",".","1","36","1","977"
"4","4","retrieval","new_object","194","Card_TwoSpade.jpg",".",".","37","1","1544"
"4","4","retrieval","new_object","195","PersonWooden.jpg",".",".","37","1","874"
"4","4","retrieval","old_object","196","Bone.jpg",".","3","36","1","553"
"4","4","retrieval","new_object","197","Piano_Upright.jpg",".",".","37","1","1240"
"4","4","retrieval","new_object","199","Suitcase.jpg",".",".","37","1","992"
"4","4","retrieval","old_object","200","RAMchip.jpg",".","1","36","1","1027"
"4","4","retrieval","new_object","201","Cologne.jpg",".",".","36","0","1709"
"4","4","retrieval","old_object","202","Stone_AncientWriting.jpg",".","3","36","1","676"
"4","4","retrieval","old_object","203","Barbecue_Charcoal.jpg",".","3","36","1","711"
"4","4","retrieval","new_object","204","Stool_Camping.jpg",".",".","37","1","1644"
"4","4","retrieval","new_object","205","Card_Deck.jpg",".",".","37","1","1407"
"4","4","retrieval","old_object","206","Wire_ElectricalSingle.jpg",".","1","37","0","1658"
"4","4","retrieval","old_object","207","Bowl_Glass.jpg",".","1","36","1","728"
"4","4","retrieval","new_object","208","Computer_ExpansionCard.jpg",".",".","37","1","1839"
"4","4","retrieval","old_object","209","Toy_MerryGoRound.jpg",".","1","37","0","1721"
"4","4","retrieval","old_object","210","Toy_LambPlushie.jpg",".","1","36","1","1547"
"4","4","retrieval","old_object","211","WateringCan_Antique.jpg",".","1","36","1","1210"
"4","4","retrieval","old_object","212","Toy_Lizard.jpg",".","1","36","1","613"
"4","4","retrieval","new_object","213","Pyramid.jpg",".",".","37","1","939"
"4","4","retrieval","old_object","214","Microwave.jpg",".","3","36","1","1630"
"4","4","retrieval","old_object","215","Carousel.jpg",".","3","36","1","769"
"4","4","retrieval","old_object","216","Toolbox_BlackOpen.jpg",".","1","36","1","762"
"4","4","retrieval","old_object","217","Makeup_Compact.jpg",".","1","36","1","637"
"4","4","retrieval","old_object","218","Platter_Vegetables.jpg",".","3","36","1","656"
"4","4","retrieval","old_object","219","Envelope_Manila.jpg",".","1","36","1","662"
"4","4","retrieval","old_object","220","Bottle_Beer.jpg",".","3","36","1","817"
"4","4","retrieval","old_object","221","Jar_Honey.jpg",".","3","36","1","816"
"4","4","retrieval","old_object","222","WaterWell.jpg",".","1","36","1","1081"
"4","4","retrieval","new_object","223","Garlic_Clove.jpg",".",".","37","1","1344"
"4","4","retrieval","new_object","224","TreeStump.jpg",".",".","37","1","1535"
"4","4","retrieval","new_object","225","Clamp_Screw.jpg",".",".","37","1","1353"
"4","4","retrieval","old_object","226","PencilCase.jpg",".","3","36","1","848"
"4","4","retrieval","new_object","227","LeafBlower.jpg",".",".","0","0","2000"
"4","4","retrieval","old_object","228","SofaAntique.jpg",".","1","36","1","1092"
"4","4","retrieval","old_object","229","Clock_Interior.jpg",".","1","36","1","1323"
"4","4","retrieval","old_object","230","Light_Halogen.jpg",".","1","36","1","1066"
"4","4","retrieval","new_object","231","Sphinx.jpg",".",".","37","1","780"
"4","4","retrieval","old_object","232","Bark.jpg",".","1","36","1","887"
"4","4","retrieval","old_object","233","Thermometer_Room.jpg",".","1","36","1","1258"
"4","4","retrieval","new_object","234","Snorkle.jpg",".",".","37","1","1183"
"4","4","retrieval","old_object","235","Television.jpg",".","1","37","0","1010"
"4","4","retrieval","new_object","236","Puffin.jpg",".",".","37","1","1353"
"4","4","retrieval","new_object","237","Paddle_Canoe.jpg",".",".","36","0","1267"
"4","4","retrieval","new_object","238","Toy_TrailerAirport.jpg",".",".","37","1","1506"
"4","4","retrieval","old_object","239","Mug_Travel.jpg",".","1","36","1","1157"
"4","4","retrieval","new_object","240","Toy_Taxi.jpg",".",".","37","1","1002"
"4","4","retrieval","new_object","241","Desk_Office.jpg",".",".","37","1","1217"
"4","4","retrieval","new_object","242","Match.jpg",".",".","37","1","1212"
"4","4","retrieval","old_object","243","Table_Saw.jpg",".","3","36","1","1218"
"4","4","retrieval","new_object","244","Mask_VenetianCat.jpg",".",".","37","1","977"
"4","4","retrieval","new_object","245","Shrimp.jpg",".",".","37","1","860"
"4","4","retrieval","old_object","246","CarSuspension.jpg",".","3","37","0","889"
"4","4","retrieval","old_object","247","Lighter_Black.jpg",".","3","36","1","792"
"4","4","retrieval","old_object","248","HoseNozzle.jpg",".","3","36","1","831"
"4","4","retrieval","new_object","249","Toy_Bat.jpg",".",".","37","1","721"
"4","4","retrieval","old_object","250","Lens_Camera.jpg",".","1","37","0","1576"
"4","4","retrieval","new_object","251","SaladCaesar.jpg",".",".","37","1","1119"
"4","4","retrieval","old_object","252","FireAlarm.jpg",".","1","37","0","1308"
"4","4","retrieval","new_object","253","Decoration_ChristmasWhite.jpg",".",".","37","1","931"
"4","4","retrieval","new_object","254","Case_CD.jpg",".",".","37","1","1118"
"4","4","retrieval","old_object","255","Castle_Sand.jpg",".","1","36","1","876"
"4","4","retrieval","new_object","256","Walkman.jpg",".",".","36","0","935"
"4","4","retrieval","new_object","257","Tray_Medical.jpg",".",".","36","0","902"
"4","4","retrieval","new_object","258","CarLighter.jpg",".",".","37","1","1859"
"4","4","retrieval","new_object","259","SnowmanDecor.jpg",".",".","37","1","1586"
"4","4","retrieval","new_object","260","HairClipper.jpg",".",".","37","1","1113"
"4","4","retrieval","new_object","261","Pasta_Fettuccine.jpg",".",".","37","1","1107"
"4","4","retrieval","new_object","262","Bicycle_Kids.jpg",".",".","37","1","602"
"4","4","retrieval","new_object","263","Toy_BeadMaze.jpg",".",".","37","1","697"
"4","4","retrieval","old_object","265","MemoPaperSpike.jpg",".","3","36","1","1148"
"4","4","retrieval","old_object","266","MechanicalSpring.jpg",".","1","37","0","1219"
"4","4","retrieval","old_object","267","SelfieStick.jpg",".","1","37","0","1246"
"4","4","retrieval","new_object","268","Airplane_Small.jpg",".",".","37","1","824"
"4","4","retrieval","old_object","269","Bird_Duck.jpg",".","1","36","1","854"
"4","4","retrieval","old_object","270","Nuts_Pecan.jpg",".","1","36","1","1709"
"4","4","retrieval","new_object","271","FuzzyDice.jpg",".",".","37","1","911"
"4","4","retrieval","old_object","272","SewingPin_Cushion.jpg",".","1","36","1","1454"
"4","4","retrieval","new_object","273","Toy_DonkeyFur.jpg",".",".","37","1","1293"
"4","4","retrieval","old_object","274","Lollipop_Rainbow.jpg",".","1","37","0","1015"
"4","4","retrieval","new_object","275","TelescopeSpacecraft.jpg",".",".","37","1","1201"
"4","4","retrieval","new_object","276","Speakers_Theatre.jpg",".",".","37","1","828"
"4","4","retrieval","old_object","277","Cable_JumpStart.jpg",".","1","36","1","1174"
"4","4","retrieval","new_object","278","Suit_Women.jpg",".",".","37","1","929"
"4","4","retrieval","new_object","279","Shirt_Tshirt.jpg",".",".","37","1","708"
"4","4","retrieval","old_object","280","Tree_Fir.jpg",".","1","36","1","682"
"4","4","retrieval","new_object","281","Toy_Wooden rings.jpg",".",".","36","0","1244"
"4","4","retrieval","old_object","282","AirPump.jpg",".","3","36","1","723"
"4","4","retrieval","old_object","283","PagodaModel.jpg",".","3","37","0","533"
"4","4","retrieval","old_object","284","Light_Fixtures.jpg",".","1","37","0","812"
"4","4","retrieval","new_object","285","BrainSagittal.jpg",".",".","37","1","947"
"4","4","retrieval","new_object","286","DeepFryer.jpg",".",".","37","1","1037"
"4","4","retrieval","new_object","287","VinylRecord.jpg",".",".","37","1","748"
"4","4","retrieval","old_object","288","Acorn.jpg",".","3","36","1","618"
"4","4","retrieval","new_object","289","Box_Cutlery.jpg",".",".","36","0","704"
"4","4","retrieval","old_object","290","Trash_Medical.jpg",".","3","37","0","783"
"4","4","retrieval","new_object","291","Jars_PetFood.jpg",".",".","37","1","890"
"4","4","retrieval","new_object","292","Pouch_Red.jpg",".",".","37","1","824"
"4","4","retrieval","new_object","293","Mat_Bamboo.jpg",".",".","37","1","987"
"4","4","retrieval","new_object","294","Protractor.jpg",".",".","37","1","881"
"4","4","retrieval","new_object","295","VacuumHose.jpg",".",".","37","1","895"
"4","4","retrieval","new_object","296","IroningBoard.jpg",".",".","37","1","887"
"4","4","retrieval","old_object","297","Arch_Triomphe.jpg",".","1","37","0","1005"
"4","4","retrieval","old_object","298","Earring_Hoop.jpg",".","3","36","1","599"
"4","4","retrieval","new_object","299","Drum_Ramadan.jpg",".",".","37","1","858"
"4","4","retrieval","old_object","300","ProjectorScreen.jpg",".","3","36","1","1004"
"4","4","retrieval","new_object","301","Hat_Police.jpg",".",".","37","1","1406"
"4","4","retrieval","new_object","302","Celery.jpg",".",".","37","1","813"
"4","4","retrieval","old_object","303","Milkshake_Strawberry.jpg",".","3","36","1","864"
"4","4","retrieval","old_object","304","Spear.jpg",".","1","36","1","794"
"4","4","retrieval","new_object","305","RecorderInstrument.jpg",".",".","37","1","686"
"4","4","retrieval","new_object","306","ColoringSet.jpg",".",".","36","0","1007"
"4","4","retrieval","new_object","307","Bucket_WoodenLight.jpg",".",".","37","1","1045"
"4","4","retrieval","new_object","308","RadioactiveContainer.jpg",".",".","37","1","1304"
"4","4","retrieval","old_object","309","Chair_Office.jpg",".","1","37","0","875"
"4","4","retrieval","new_object","310","Scorpion.jpg",".",".","37","1","765"
"4","4","retrieval","new_object","311","WaterCooler.jpg",".",".","37","1","972"
"4","4","retrieval","old_object","312","Compact_Mirror.jpg",".","3","36","1","710"
"4","4","retrieval","old_object","313","Corkboard.jpg",".","1","36","1","804"
"4","4","retrieval","old_object","314","Fork_Regular.jpg",".","3","36","1","879"
"4","4","retrieval","old_object","315","PumiceStone.jpg",".","3","36","1","658"
"4","4","retrieval","new_object","316","NailFiles.jpg",".",".","37","1","1292"
"4","4","retrieval","old_object","317","DoubleBass.jpg",".","3","36","1","1143"
"4","4","retrieval","new_object","318","Clippers_Glass.jpg",".",".","37","1","1321"
"4","4","retrieval","new_object","319","Toy_BearBrownPlushie.jpg",".",".","36","0","1303"
"4","4","retrieval","old_object","320","Garlic_Whole.jpg",".","1","37","0","1510"
"4","4","retrieval","new_object","321","Toy_Christmastree.jpg",".",".","37","1","1189"
"4","4","retrieval","old_object","322","Lantern_Chinese.jpg",".","3","36","1","1023"
"4","4","retrieval","new_object","323","Lips_Wax.jpg",".",".","37","1","686"
"4","4","retrieval","new_object","324","Blueberry.jpg",".",".","36","0","824"
"4","4","retrieval","old_object","325","Hockey_Puck.jpg",".","3","37","0","630"
"4","4","demographics_block","gender","1",".",".",".","Male","1","193659"
"4","4","demographics_block","age","1",".",".",".","33","1","193659"
"4","4","demographics_block","education","1",".",".",".","16","1","193659"
"4","4","demographics_block","left_right_handed","2",".",".",".","Right","1","29970"
"4","4","demographics_block","raceoption1","2",".",".",".","","1","29970"
"4","4","demographics_block","raceoption2","2",".",".",".","","1","29970"
"4","4","demographics_block","raceoption3","2",".",".",".","","1","29970"
"4","4","demographics_block","raceoption4","2",".",".",".","","1","29970"
"4","4","demographics_block","raceoption5","2",".",".",".","","1","29970"
"4","4","demographics_block","raceoption6","2",".",".",".","","1","29970"
"4","4","demographics_block","raceoption7","2",".",".",".","","1","29970"
"4","4","demographics_block","raceoption8","2",".",".",".","7","1","29970"
"4","4","demographics_block","raceoption9","2",".",".",".","","1","29970"
"4","4","demographics_block","raceother","2",".",".",".","","1","29970"
"4","4","demographics_block","raceother","2",".",".",".","","1","29970"
"4","4","demographics_block","english_language","2",".",".",".","Yes","1","29970"
"4","4","demographics_block","other","2",".",".",".","","1","29970"
"4","4","demographics_block","eyesight","3",".",".",".","Yes","1","5261"
"4","4","demographics_block","colorblind","3",".",".",".","No","1","5261"
"7","7","encoding","encoding","1","Tube_Paint.jpg","3",".","0","0","1000"
"7","7","encoding","encoding","2","CarSuspension.jpg","3",".","37","0","905"
"7","7","encoding","encoding","3","GasStation.jpg","3",".","37","0","987"
"7","7","encoding","encoding","4","Barbecue_Charcoal.jpg","3",".","0","0","1000"
"7","7","encoding","encoding","5","TailLight.jpg","3",".","0","0","1000"
"7","7","encoding","encoding","6","Ship_Cruise.jpg","3",".","37","0","806"
"7","7","encoding","encoding","7","TailLight.jpg","3",".","37","0","685"
"7","7","encoding","encoding","8","Sign_Construction.jpg","3",".","37","0","845"
"7","7","encoding","encoding","9","Clock_Interior.jpg","1",".","37","0","568"
"7","7","encoding","encoding","10","Fork_Regular.jpg","3",".","37","0","714"
"7","7","encoding","encoding","11","WateringCan_Antique.jpg","1",".","37","0","444"
"7","7","encoding","encoding","12","Barometer.jpg","3",".","37","0","495"
"7","7","encoding","encoding","13","Bone.jpg","3",".","0","0","1000"
"7","7","encoding","encoding","14","Flags_CheckeredRacing.jpg","3",".","37","0","612"
"7","7","encoding","encoding","15","Toolbox_BlackOpen.jpg","1",".","37","0","479"
"7","7","encoding","encoding","16","Tube_Paint.jpg","3",".","37","0","642"
"7","7","encoding","encoding","17","Toy_LambPlushie.jpg","1",".","37","0","815"
"7","7","encoding","encoding","18","Aquarium.jpg","1",".","37","0","800"
"7","7","encoding","encoding","19","Statue_Horse.jpg","3",".","37","0","622"
"7","7","encoding","encoding","20","Handbag.jpg","3",".","37","0","541"
"7","7","encoding","encoding","21","Hedgehog.jpg","1",".","36","0","823"
"7","7","encoding","encoding","22","Candy_Toffee.jpg","3",".","0","0","1000"
"7","7","encoding","encoding","23","Hanger.jpg","3",".","37","0","598"
"7","7","encoding","encoding","24","Clave.jpg","3",".","37","0","560"
"7","7","encoding","encoding","25","Light_Studio.jpg","3",".","37","0","532"
"7","7","encoding","encoding","26","Lantern_Chinese.jpg","3",".","37","0","427"
"7","7","encoding","encoding","27","Tree_Fir.jpg","1",".","36","0","814"
"7","7","encoding","encoding","28","Bottle_Beer.jpg","3",".","37","0","685"
"7","7","encoding","encoding","29","Bucket_Halloween.jpg","3",".","37","0","698"
"7","7","encoding","encoding","30","BumperCar.jpg","1",".","37","0","586"
"7","7","encoding","encoding","31","Fork_Regular.jpg","3",".","37","0","422"
"7","7","encoding","encoding","32","Heelpad.jpg","3",".","37","0","852"
"7","7","encoding","encoding","33","Crab.jpg","3",".","36","0","700"
"7","7","encoding","encoding","34","Acorn.jpg","3",".","36","0","697"
"7","7","encoding","encoding","35","Statue_Man.jpg","1",".","37","0","488"
"7","7","encoding","encoding","36","Bark.jpg","1",".","36","0","828"
"7","7","encoding","encoding","37","PocketKnife.jpg","3",".","37","0","879"
"7","7","encoding","encoding","38","House_Wooden.jpg","1",".","37","0","439"
"7","7","encoding","encoding","39","Heelpad.jpg","3",".","37","0","856"
"7","7","encoding","encoding","40","Cable_JumpStart.jpg","1",".","37","0","583"
"7","7","encoding","encoding","41","Cannon.jpg","1",".","37","0","444"
"7","7","encoding","encoding","42","Compact_Mirror.jpg","3",".","37","0","573"
"7","7","encoding","encoding","43","PulleyWooden.jpg","3",".","37","0","571"
"7","7","encoding","encoding","44","Table_Saw.jpg","3",".","37","0","489"
"7","7","encoding","encoding","45","Backpack_Suitcase.jpg","1",".","37","0","592"
"7","7","encoding","encoding","46","Crab.jpg","3",".","36","0","672"
"7","7","encoding","encoding","47","CodeDoorLock.jpg","1",".","37","0","391"
"7","7","encoding","encoding","48","SolderingIron.jpg","1",".","37","0","615"
"7","7","encoding","encoding","49","Sign_Construction.jpg","3",".","37","0","592"
"7","7","encoding","encoding","50","Briefcase_Silver.jpg","3",".","37","0","469"
"7","7","encoding","encoding","51","Earring_Hoop.jpg","3",".","37","0","774"
"7","7","encoding","encoding","52","Lantern_Chinese.jpg","3",".","37","0","490"
"7","7","encoding","encoding","53","Candy_Lozenge.jpg","3",".","37","0","896"
"7","7","encoding","encoding","54","Bread_Carrot.jpg","1",".","37","0","513"
"7","7","encoding","encoding","55","Bread_Melon.jpg","3",".","37","0","613"
"7","7","encoding","encoding","56","Lighter_Black.jpg","3",".","37","0","698"
"7","7","encoding","encoding","57","Light_Studio.jpg","3",".","37","0","502"
"7","7","encoding","encoding","58","Canister_Oil.jpg","3",".","37","0","497"
"7","7","encoding","encoding","59","Ship_Cruise.jpg","3",".","37","0","701"
"7","7","encoding","encoding","60","Platter_Vegetables.jpg","3",".","0","0","1000"
"7","7","encoding","encoding","61","Wontons.jpg","3",".","0","0","1000"
"7","7","encoding","encoding","62","MetalDetector.jpg","3",".","37","0","643"
"7","7","encoding","encoding","63","Wire_ElectricalSingle.jpg","1",".","37","0","430"
"7","7","encoding","encoding","64","CarSuspension.jpg","3",".","37","0","507"
"7","7","encoding","encoding","65","Lantern_Chinese.jpg","3",".","37","0","491"
"7","7","encoding","encoding","67","RAMchip.jpg","1",".","37","0","537"
"7","7","encoding","encoding","68","Hat_Colonial.jpg","3",".","37","0","644"
"7","7","encoding","encoding","69","Gecko.jpg","1",".","36","0","665"
"7","7","encoding","encoding","70","HoseNozzle.jpg","3",".","37","0","421"
"7","7","encoding","encoding","71","TailLight.jpg","3",".","37","0","492"
"7","7","encoding","encoding","72","Case_Pencil.jpg","3",".","37","0","605"
"7","7","encoding","encoding","73","Bus_School.jpg","3",".","37","0","439"
"7","7","encoding","encoding","74","SatelliteDish.jpg","3",".","37","0","432"
"7","7","encoding","encoding","75","Ladybug.jpg","1",".","36","0","638"
"7","7","encoding","encoding","76","Heelpad.jpg","3",".","37","0","473"
"7","7","encoding","encoding","77","Cart_Janitor.jpg","3",".","37","0","464"
"7","7","encoding","encoding","78","Helmet_Motorcycle.jpg","3",".","37","0","479"
"7","7","encoding","encoding","79","Acorn.jpg","3",".","36","0","601"
"7","7","encoding","encoding","80","GasStation.jpg","3",".","37","0","445"
"7","7","encoding","encoding","81","HoseNozzle.jpg","3",".","37","0","400"
"7","7","encoding","encoding","82","Toy_Lizard.jpg","1",".","36","0","541"
"7","7","encoding","encoding","83","Bag_Diaper.jpg","1",".","37","0","448"
"7","7","encoding","encoding","84","CarSuspension.jpg","3",".","37","0","490"
"7","7","encoding","encoding","85","Hockey_Puck.jpg","3",".","37","0","868"
"7","7","encoding","encoding","86","GasStation.jpg","3",".","37","0","465"
"7","7","encoding","encoding","87","Amp.jpg","3",".","37","0","498"
"7","7","encoding","encoding","88","PulleyWooden.jpg","3",".","37","0","640"
"7","7","encoding","encoding","89","LicensePlate.jpg","3",".","37","0","612"
"7","7","encoding","encoding","90","Taco.jpg","1",".","37","0","711"
"7","7","encoding","encoding","91","PagodaModel.jpg","3",".","37","0","488"
"7","7","encoding","encoding","92","Barometer_Wood.jpg","1",".","37","0","413"
"7","7","encoding","encoding","93","Flags_CheckeredRacing.jpg","3",".","37","0","423"
"7","7","encoding","encoding","94","Microwave.jpg","3",".","37","0","684"
"7","7","encoding","encoding","95","SatelliteDish.jpg","3",".","37","0","658"
"7","7","encoding","encoding","96","Glass_Beer.jpg","3",".","37","0","781"
"7","7","encoding","encoding","97","Bread_Melon.jpg","3",".","37","0","873"
"7","7","encoding","encoding","98","Mailbox_Antique.jpg","1",".","37","0","563"
"7","7","encoding","encoding","99","MousepadAndMouse.jpg","3",".","37","0","675"
"7","7","encoding","encoding","100","PocketKnife.jpg","3",".","37","0","513"
"7","7","encoding","encoding","101","MemoPaperSpike.jpg","3",".","37","0","711"
"7","7","encoding","encoding","102","Box_FirstAid.jpg","3",".","37","0","456"
"7","7","encoding","encoding","103","Binder.jpg","1",".","37","0","654"
"7","7","encoding","encoding","104","Spatula.jpg","1",".","37","0","449"
"7","7","encoding","encoding","105","Cup_Bathroom.jpg","3",".","37","0","560"
"7","7","encoding","encoding","106","Wontons.jpg","3",".","37","0","651"
"7","7","encoding","encoding","107","Brush_Light.jpg","3",".","37","0","619"
"7","7","encoding","encoding","108","MechanicalSpring.jpg","1",".","37","0","540"
"7","7","encoding","encoding","109","WaterWell.jpg","1",".","37","0","471"
"7","7","encoding","encoding","110","Trash_Medical.jpg","3",".","37","0","643"
"7","7","encoding","encoding","111","Handbag.jpg","3",".","37","0","535"
"7","7","encoding","encoding","112","Canister_Oil.jpg","3",".","37","0","472"
"7","7","encoding","encoding","113","HairCurler.jpg","3",".","37","0","580"
"7","7","encoding","encoding","114","Milkshake_Strawberry.jpg","3",".","37","0","677"
"7","7","encoding","encoding","115","Barbecue_Charcoal.jpg","3",".","37","0","496"
"7","7","encoding","encoding","116","Light_Fixtures.jpg","1",".","37","0","621"
"7","7","encoding","encoding","117","Compact_Mirror.jpg","3",".","37","0","623"
"7","7","encoding","encoding","118","SolderingWire.jpg","3",".","37","0","446"
"7","7","encoding","encoding","119","Hat_Colonial.jpg","3",".","37","0","581"
"7","7","encoding","encoding","120","Box_FirstAid.jpg","3",".","37","0","480"
"7","7","encoding","encoding","121","AirPump.jpg","3",".","37","0","483"
"7","7","encoding","encoding","122","Bread_Roll.jpg","3",".","37","0","584"
"7","7","encoding","encoding","123","Stove_WithOven.jpg","1",".","37","0","434"
"7","7","encoding","encoding","124","DartBoard.jpg","1",".","37","0","524"
"7","7","encoding","encoding","125","HairCurler.jpg","3",".","37","0","587"
"7","7","encoding","encoding","126","LicensePlate.jpg","3",".","37","0","591"
"7","7","encoding","encoding","127","Jar_Honey.jpg","3",".","37","0","757"
"7","7","encoding","encoding","128","Barbecue_Charcoal.jpg","3",".","37","0","834"
"7","7","encoding","encoding","129","Trash_Medical.jpg","3",".","37","0","606"
"7","7","encoding","encoding","130","Stone_AncientWriting.jpg","3",".","37","0","899"
"7","7","encoding","encoding","131","Mailbox_Community.jpg","1",".","37","0","797"
"7","7","encoding","encoding","133","Bible.jpg","1",".","37","0","607"
"7","7","encoding","encoding","134","Bottle_Beer.jpg","3",".","37","0","717"
"7","7","encoding","encoding","135","Garlic_Whole.jpg","1",".","36","0","610"
"7","7","encoding","encoding","136","SelfieStick.jpg","1",".","37","0","508"
"7","7","encoding","encoding","137","Cake_Cheese.jpg","3",".","37","0","884"
"7","7","encoding","encoding","138","Statue_Horse.jpg","3",".","37","0","515"
"7","7","encoding","encoding","139","SewingPin_Cushion.jpg","1",".","37","0","510"
"7","7","encoding","encoding","140","Bat_Cricket.jpg","3",".","37","0","471"
"7","7","encoding","encoding","141","LifeJacket_Orangejpg.jpg","1",".","37","0","586"
"7","7","encoding","encoding","142","Hanger.jpg","3",".","37","0","436"
"7","7","encoding","encoding","143","Makeup_Compact.jpg","1",".","37","0","451"
"7","7","encoding","encoding","144","Carousel.jpg","3",".","37","0","508"
"7","7","encoding","encoding","145","Carousel.jpg","3",".","37","0","419"
"7","7","encoding","encoding","146","Radish.jpg","3",".","36","0","583"
"7","7","encoding","encoding","147","Carabiner_Orange.jpg","1",".","37","0","429"
"7","7","encoding","encoding","148","Jar_Honey.jpg","3",".","36","0","934"
"7","7","encoding","encoding","149","sign_traffic.jpg","1",".","37","0","680"
"7","7","encoding","encoding","150","Milkshake_Strawberry.jpg","3",".","37","0","595"
"7","7","encoding","encoding","151","Bread_Roll.jpg","3",".","37","0","705"
"7","7","encoding","encoding","152","Tube_Glue.jpg","3",".","37","0","558"
"7","7","encoding","encoding","153","Canister_Oil.jpg","3",".","37","0","483"
"7","7","encoding","encoding","154","Acorn.jpg","3",".","36","0","617"
"7","7","encoding","encoding","155","Fork_Regular.jpg","3",".","37","0","457"
"7","7","encoding","encoding","156","Thermometer_Room.jpg","1",".","0","0","1000"
"7","7","encoding","encoding","157","Toy_PandaPlushie.jpg","3",".","37","0","660"
"7","7","encoding","encoding","158","LicensePlate.jpg","3",".","37","0","538"
"7","7","encoding","encoding","159","Carousel.jpg","3",".","37","0","466"
"7","7","encoding","encoding","160","Lighter_Black.jpg","3",".","37","0","495"
"7","7","encoding","encoding","161","HoseNozzle.jpg","3",".","37","0","481"
"7","7","encoding","encoding","162","Cup_Bathroom.jpg","3",".","37","0","519"
"7","7","encoding","encoding","163","SatelliteDish.jpg","3",".","37","0","473"
"7","7","encoding","encoding","164","Tube_Glue.jpg","3",".","37","0","472"
"7","7","encoding","encoding","165","Cake_Cheese.jpg","3",".","37","0","669"
"7","7","encoding","encoding","166","PencilCase.jpg","3",".","37","0","468"
"7","7","encoding","encoding","167","DogSled.jpg","3",".","37","0","580"
"7","7","encoding","encoding","168","Television.jpg","1",".","37","0","525"
"7","7","encoding","encoding","169","Helmet_Motorcycle.jpg","3",".","37","0","466"
"7","7","encoding","encoding","170","CoffeeLid.jpg","3",".","37","0","516"
"7","7","encoding","encoding","171","Handbag.jpg","3",".","37","0","400"
"7","7","encoding","encoding","172","PumiceStone.jpg","3",".","36","0","884"
"7","7","encoding","encoding","173","Briefcase_Silver.jpg","3",".","37","0","485"
"7","7","encoding","encoding","174","Helmet_Football.jpg","1",".","37","0","393"
"7","7","encoding","encoding","175","Earring_Hoop.jpg","3",".","37","0","385"
"7","7","encoding","encoding","176","Toy_Truck.jpg","1",".","37","0","416"
"7","7","encoding","encoding","177","Candy_Toffee.jpg","3",".","37","0","787"
"7","7","encoding","encoding","178","Cymbals.jpg","1",".","37","0","502"
"7","7","encoding","encoding","179","IceCream_Popsicle.jpg","3",".","37","0","735"
"7","7","encoding","encoding","180","Toy_MerryGoRound.jpg","1",".","37","0","434"
"7","7","encoding","encoding","181","Radish.jpg","3",".","36","0","631"
"7","7","encoding","encoding","182","Compact_Mirror.jpg","3",".","37","0","470"
"7","7","encoding","encoding","183","Briefcase_Silver.jpg","3",".","37","0","849"
"7","7","encoding","encoding","184","Platter_Vegetables.jpg","3",".","37","0","721"
"7","7","encoding","encoding","185","Hat_Colonial.jpg","3",".","37","0","660"
"7","7","encoding","encoding","186","Radish.jpg","3",".","36","0","731"
"7","7","encoding","encoding","187","AirCompressor.jpg","1",".","37","0","501"
"7","7","encoding","encoding","188","Platter_Vegetables.jpg","3",".","36","0","693"
"7","7","encoding","encoding","189","Envelope_Manila.jpg","1",".","37","0","536"
"7","7","encoding","encoding","190","Crab.jpg","3",".","36","0","635"
"7","7","encoding","encoding","191","HairCurler.jpg","3",".","37","0","462"
"7","7","encoding","encoding","192","SofaAntique.jpg","1",".","37","0","406"
"7","7","encoding","encoding","193","Hockey_Puck.jpg","3",".","37","0","423"
"7","7","encoding","encoding","194","Tube_Paint.jpg","3",".","37","0","459"
"7","7","encoding","encoding","195","SolderingWire.jpg","3",".","37","0","420"
"7","7","encoding","encoding","196","Bandage_Adhesive.jpg","1",".","37","0","473"
"7","7","encoding","encoding","197","Cinnamonroll.jpg","3",".","37","0","610"
"7","7","encoding","encoding","199","Bucket_Halloween.jpg","3",".","37","0","556"
"7","7","encoding","encoding","200","ProjectorScreen.jpg","3",".","37","0","547"
"7","7","encoding","encoding","201","Bus_School.jpg","3",".","37","0","413"
"7","7","encoding","encoding","202","Bone.jpg","3",".","37","0","607"
"7","7","encoding","encoding","203","Can_Oblong.jpg","3",".","37","0","714"
"7","7","encoding","encoding","204","Earring_Hoop.jpg","3",".","37","0","493"
"7","7","encoding","encoding","205","Toy_PandaPlushie.jpg","3",".","37","0","600"
"7","7","encoding","encoding","206","AirPump.jpg","3",".","37","0","445"
"7","7","encoding","encoding","207","Brush_Light.jpg","3",".","37","0","565"
"7","7","encoding","encoding","208","Spear.jpg","1",".","37","0","569"
"7","7","encoding","encoding","209","TortillaChip.jpg","1",".","37","0","864"
"7","7","encoding","encoding","210","Bread_Loaf.jpg","3",".","37","0","524"
"7","7","encoding","encoding","211","DogSled.jpg","3",".","37","0","428"
"7","7","encoding","encoding","212","Brush_Light.jpg","3",".","37","0","409"
"7","7","encoding","encoding","213","Barometer.jpg","3",".","37","0","405"
"7","7","encoding","encoding","214","Light_Studio.jpg","3",".","37","0","367"
"7","7","encoding","encoding","215","Sign_Construction.jpg","3",".","37","0","391"
"7","7","encoding","encoding","216","Candy_Lozenge.jpg","3",".","37","0","649"
"7","7","encoding","encoding","217","DoubleBass.jpg","3",".","37","0","419"
"7","7","encoding","encoding","218","Mask_HockeyGoalie.jpg","1",".","37","0","445"
"7","7","encoding","encoding","219","MousepadAndMouse.jpg","3",".","37","0","487"
"7","7","encoding","encoding","220","DogSled.jpg","3",".","37","0","489"
"7","7","encoding","encoding","221","PagodaModel.jpg","3",".","37","0","384"
"7","7","encoding","encoding","222","Barometer.jpg","3",".","37","0","354"
"7","7","encoding","encoding","223","Desk_White.jpg","1",".","37","0","413"
"7","7","encoding","encoding","224","ProjectorScreen.jpg","3",".","37","0","426"
"7","7","encoding","encoding","225","PagodaModel.jpg","3",".","37","0","456"
"7","7","encoding","encoding","226","PencilCase.jpg","3",".","37","0","421"
"7","7","encoding","encoding","227","ManholeCover.jpg","1",".","37","0","408"
"7","7","encoding","encoding","228","Bread_Loaf.jpg","3",".","37","0","538"
"7","7","encoding","encoding","229","SolderingWire.jpg","3",".","37","0","403"
"7","7","encoding","encoding","230","Case_Pencil.jpg","3",".","37","0","496"
"7","7","encoding","encoding","231","Table_Saw.jpg","3",".","37","0","471"
"7","7","encoding","encoding","232","PumiceStone.jpg","3",".","36","0","881"
"7","7","encoding","encoding","233","MemoPaperSpike.jpg","3",".","37","0","465"
"7","7","encoding","encoding","234","Weathervane.jpg","1",".","37","0","537"
"7","7","encoding","encoding","235","Castle_Sand.jpg","1",".","0","0","1000"
"7","7","encoding","encoding","236","Van.jpg","1",".","37","0","473"
"7","7","encoding","encoding","237","Nuts_Pecan.jpg","1",".","37","0","593"
"7","7","encoding","encoding","238","MetalDetector.jpg","3",".","37","0","515"
"7","7","encoding","encoding","239","Mask_Ski.jpg","3",".","37","0","580"
"7","7","encoding","encoding","240","PencilCase.jpg","3",".","37","0","462"
"7","7","encoding","encoding","241","Oars.jpg","1",".","37","0","451"
"7","7","encoding","encoding","242","Helmet_Motorcycle.jpg","3",".","37","0","480"
"7","7","encoding","encoding","243","Lollipop_Rainbow.jpg","1",".","37","0","784"
"7","7","encoding","encoding","244","Hubcap.jpg","3",".","37","0","440"
"7","7","encoding","encoding","245","Cart_Janitor.jpg","3",".","37","0","392"
"7","7","encoding","encoding","246","Scythe.jpg","1",".","37","0","461"
"7","7","encoding","encoding","247","Hubcap.jpg","3",".","37","0","390"
"7","7","encoding","encoding","248","Jar_Honey.jpg","3",".","36","0","765"
"7","7","encoding","encoding","249","PyramidWooden.jpg","1",".","37","0","455"
"7","7","encoding","encoding","250","Amp.jpg","3",".","37","0","470"
"7","7","encoding","encoding","251","Bat_Cricket.jpg","3",".","37","0","425"
"7","7","encoding","encoding","252","Cinnamonroll.jpg","3",".","37","0","656"
"7","7","encoding","encoding","253","MemoPaperSpike.jpg","3",".","37","0","465"
"7","7","encoding","encoding","254","Bat_Cricket.jpg","3",".","37","0","419"
"7","7","encoding","encoding","255","Arch_Triomphe.jpg","1",".","37","0","434"
"7","7","encoding","encoding","256","Bread_Loaf.jpg","3",".","37","0","561"
"7","7","encoding","encoding","257","Lens_Camera.jpg","1",".","37","0","411"
"7","7","encoding","encoding","258","Branch.jpg","1",".","37","0","437"
"7","7","encoding","encoding","259","Mug_Travel.jpg","1",".","37","0","556"
"7","7","encoding","encoding","260","Hockey_Puck.jpg","3",".","37","0","562"
"7","7","encoding","encoding","261","FireAlarm.jpg","1",".","37","0","553"
"7","7","encoding","encoding","262","Bread_Roll.jpg","3",".","37","0","601"
"7","7","encoding","encoding","263","ProjectorScreen.jpg","3",".","37","0","483"
"7","7","encoding","encoding","265","AirPump.jpg","3",".","37","0","450"
"7","7","encoding","encoding","266","Tube_Glue.jpg","3",".","37","0","423"
"7","7","encoding","encoding","267","Corkboard.jpg","1",".","37","0","588"
"7","7","encoding","encoding","268","Light_Halogen.jpg","1",".","37","0","435"
"7","7","encoding","encoding","269","Wontons.jpg","3",".","37","0","688"
"7","7","encoding","encoding","270","DoubleBass.jpg","3",".","37","0","419"
"7","7","encoding","encoding","271","Cinnamonroll.jpg","3",".","37","0","548"
"7","7","encoding","encoding","272","Milkshake_Strawberry.jpg","3",".","37","0","731"
"7","7","encoding","encoding","273","Case_Pencil.jpg","3",".","37","0","490"
"7","7","encoding","encoding","274","MousepadAndMouse.jpg","3",".","37","0","490"
"7","7","encoding","encoding","275","Mask_Ski.jpg","3",".","37","0","531"
"7","7","encoding","encoding","276","Stone_AncientWriting.jpg","3",".","36","0","907"
"7","7","encoding","encoding","277","Bird_Duck.jpg","1",".","37","0","458"
"7","7","encoding","encoding","278","Chair_Office.jpg","1",".","37","0","588"
"7","7","encoding","encoding","279","Bowl_Glass.jpg","1",".","37","0","477"
"7","7","encoding","encoding","280","Glass_Beer.jpg","3",".","37","0","978"
"7","7","encoding","encoding","281","IceCream_Popsicle.jpg","3",".","37","0","620"
"7","7","encoding","encoding","282","Cassette_Video.jpg","1",".","37","0","509"
"7","7","encoding","encoding","283","PocketKnife.jpg","3",".","37","0","775"
"7","7","encoding","encoding","284","MetalDetector.jpg","3",".","37","0","617"
"7","7","encoding","encoding","285","Candy_Toffee.jpg","3",".","37","0","672"
"7","7","encoding","encoding","286","CoffeeLid.jpg","3",".","37","0","585"
"7","7","encoding","encoding","287","Clave.jpg","3",".","37","0","590"
"7","7","encoding","encoding","288","Cup_Bathroom.jpg","3",".","37","0","593"
"7","7","encoding","encoding","289","Stone_AncientWriting.jpg","3",".","36","0","913"
"7","7","encoding","encoding","290","Ship_Cruise.jpg","3",".","37","0","535"
"7","7","encoding","encoding","291","Statue_Horse.jpg","3",".","37","0","454"
"7","7","encoding","encoding","292","Hubcap.jpg","3",".","37","0","398"
"7","7","encoding","encoding","293","Lighter_Black.jpg","3",".","37","0","484"
"7","7","encoding","encoding","294","Toy_PandaPlushie.jpg","3",".","37","0","620"
"7","7","encoding","encoding","295","Candy_Lozenge.jpg","3",".","37","0","567"
"7","7","encoding","encoding","296","Bread_Melon.jpg","3",".","37","0","595"
"7","7","encoding","encoding","297","Box_FirstAid.jpg","3",".","37","0","571"
"7","7","encoding","encoding","298","Cake_Cheese.jpg","3",".","37","0","645"
"7","7","encoding","encoding","299","Table_Saw.jpg","3",".","37","0","460"
"7","7","encoding","encoding","300","Amp.jpg","3",".","37","0","388"
"7","7","encoding","encoding","301","PumiceStone.jpg","3",".","36","0","676"
"7","7","encoding","encoding","302","Cart_Janitor.jpg","3",".","37","0","445"
"7","7","encoding","encoding","303","DoubleBass.jpg","3",".","37","0","436"
"7","7","encoding","encoding","304","Flags_CheckeredRacing.jpg","3",".","37","0","441"
"7","7","encoding","encoding","305","Bone.jpg","3",".","36","0","611"
"7","7","encoding","encoding","306","Bottle_Beer.jpg","3",".","37","0","474"
"7","7","encoding","encoding","307","Trash_Medical.jpg","3",".","37","0","491"
"7","7","encoding","encoding","308","Clave.jpg","3",".","37","0","470"
"7","7","encoding","encoding","309","Bleachers.jpg","1",".","37","0","486"
"7","7","encoding","encoding","310","IceCream_Popsicle.jpg","3",".","37","0","553"
"7","7","encoding","encoding","311","CoffeeLid.jpg","3",".","37","0","466"
"7","7","encoding","encoding","312","Microwave.jpg","3",".","37","0","522"
"7","7","encoding","encoding","313","Bus_School.jpg","3",".","37","0","470"
"7","7","encoding","encoding","314","Can_Oblong.jpg","3",".","37","0","520"
"7","7","encoding","encoding","315","PulleyWooden.jpg","3",".","37","0","491"
"7","7","encoding","encoding","316","Bucket_Halloween.jpg","3",".","37","0","530"
"7","7","encoding","encoding","317","Mask_Ski.jpg","3",".","37","0","516"
"7","7","encoding","encoding","318","Can_Oblong.jpg","3",".","37","0","503"
"7","7","encoding","encoding","319","Microwave.jpg","3",".","37","0","478"
"7","7","encoding","encoding","320","Glass_Beer.jpg","3",".","37","0","584"
"7","7","encoding","encoding","321","Stool_Metal.jpg","1",".","37","0","695"
"7","7","encoding","encoding","322","Walker_Blue.jpg","1",".","37","0","560"
"7","7","encoding","encoding","323","Hanger.jpg","3",".","37","0","445"
"7","7","encoding","encoding","324","Umbrella_Classic.jpg","1",".","37","0","487"
"7","7","encoding","encoding","325","Tube_Paint.jpg","",".","37","0","438"
"7","7","retrieval","old_object","1","Brush_Light.jpg",".","3","37","0","1047"
"7","7","retrieval","new_object","2","Garlic_Clove.jpg",".",".","36","0","1133"
"7","7","retrieval","new_object","3","PersonWooden.jpg",".",".","37","1","973"
"7","7","retrieval","new_object","4","Seeder.jpg",".",".","37","1","1233"
"7","7","retrieval","new_object","5","Card_TwoSpade.jpg",".",".","37","1","766"
"7","7","retrieval","new_object","6","Sphinx.jpg",".",".","37","1","653"
"7","7","retrieval","new_object","7","Squash_Butternut.jpg",".",".","37","1","973"
"7","7","retrieval","new_object","8","Stone_Spa.jpg",".",".","37","1","948"
"7","7","retrieval","old_object","9","Mask_Ski.jpg",".","3","36","1","866"
"7","7","retrieval","old_object","10","Bread_Carrot.jpg",".","1","37","0","713"
"7","7","retrieval","old_object","11","MousepadAndMouse.jpg",".","3","36","1","750"
"7","7","retrieval","new_object","12","Tape_Dispenser.jpg",".",".","36","0","1499"
"7","7","retrieval","old_object","13","Cake_Cheese.jpg",".","3","36","1","928"
"7","7","retrieval","new_object","14","Decoration_ChristmasWhite.jpg",".",".","37","1","595"
"7","7","retrieval","new_object","15","Puzzle_Animal.jpg",".",".","37","1","780"
"7","7","retrieval","old_object","16","Mailbox_Antique.jpg",".","1","37","0","1241"
"7","7","retrieval","new_object","17","Shirt_Tshirt.jpg",".",".","37","1","752"
"7","7","retrieval","new_object","18","Car_Buggy.jpg",".",".","37","1","1048"
"7","7","retrieval","old_object","19","DogSled.jpg",".","3","36","1","1028"
"7","7","retrieval","new_object","20","WaterCooler.jpg",".",".","37","1","789"
"7","7","retrieval","old_object","21","Hedgehog.jpg",".","1","36","1","1225"
"7","7","retrieval","new_object","22","Nail.jpg",".",".","37","1","898"
"7","7","retrieval","new_object","23","Puffin.jpg",".",".","37","1","1052"
"7","7","retrieval","old_object","24","Binder.jpg",".","1","36","1","1126"
"7","7","retrieval","old_object","25","Light_Studio.jpg",".","3","36","1","959"
"7","7","retrieval","new_object","26","PaperCutter.jpg",".",".","37","1","665"
"7","7","retrieval","new_object","27","Mitt_Blue.jpg",".",".","37","1","874"
"7","7","retrieval","old_object","28","Bible.jpg",".","1","36","1","1094"
"7","7","retrieval","old_object","29","Candy_Toffee.jpg",".","3","36","1","890"
"7","7","retrieval","new_object","30","Bowl_Chopsticks.jpg",".",".","37","1","559"
"7","7","retrieval","old_object","31","Tube_Glue.jpg",".","3","37","0","616"
"7","7","retrieval","old_object","32","SatelliteDish.jpg",".","3","37","0","1528"
"7","7","retrieval","new_object","33","WalkieTalkie_Yellow.jpg",".",".","37","1","736"
"7","7","retrieval","new_object","34","VinylRecord.jpg",".",".","37","1","532"
"7","7","retrieval","new_object","35","GrillRack.jpg",".",".","37","1","539"
"7","7","retrieval","old_object","36","Cup_Bathroom.jpg",".","3","36","1","883"
"7","7","retrieval","new_object","37","Makeup_Bag.jpg",".",".","37","1","800"
"7","7","retrieval","old_object","38","AirCompressor.jpg",".","1","37","0","738"
"7","7","retrieval","old_object","39","TailLight.jpg",".","3","36","1","936"
"7","7","retrieval","old_object","40","Case_Pencil.jpg",".","3","36","1","753"
"7","7","retrieval","new_object","41","Coral.jpg",".",".","37","1","943"
"7","7","retrieval","new_object","42","Snowpea.jpg",".",".","37","1","763"
"7","7","retrieval","old_object","43","Helmet_Football.jpg",".","1","36","1","1356"
"7","7","retrieval","new_object","44","Dragonfly.jpg",".",".","37","1","997"
"7","7","retrieval","old_object","45","Bleachers.jpg",".","1","36","1","993"
"7","7","retrieval","old_object","46","Flags_CheckeredRacing.jpg",".","3","36","1","873"
"7","7","retrieval","old_object","47","Taco.jpg",".","1","37","0","815"
"7","7","retrieval","old_object","48","Ship_Cruise.jpg",".","3","36","1","1050"
"7","7","retrieval","new_object","49","TowelRack_Metal.jpg",".",".","37","1","888"
"7","7","retrieval","new_object","50","VacuumHose.jpg",".",".","37","1","826"
"7","7","retrieval","old_object","51","Stool_Metal.jpg",".","1","36","1","877"
"7","7","retrieval","old_object","52","Cart_Janitor.jpg",".","3","36","1","1064"
"7","7","retrieval","new_object","53","Stick_Stirring.jpg",".",".","37","1","690"
"7","7","retrieval","new_object","54","Sandwich_Ham.jpg",".",".","37","1","699"
"7","7","retrieval","old_object","55","Bread_Roll.jpg",".","3","36","1","842"
"7","7","retrieval","old_object","56","Box_FirstAid.jpg",".","3","36","1","1036"
"7","7","retrieval","old_object","57","Statue_Man.jpg",".","1","36","1","1009"
"7","7","retrieval","old_object","58","Glass_Beer.jpg",".","3","36","1","753"
"7","7","retrieval","new_object","59","Celery.jpg",".",".","37","1","660"
"7","7","retrieval","old_object","60","Toy_PandaPlushie.jpg",".","3","36","1","900"
"7","7","retrieval","new_object","61","Toy_Wooden rings.jpg",".",".","37","1","647"
"7","7","retrieval","old_object","62","Bucket_Halloween.jpg",".","3","36","1","724"
"7","7","retrieval","new_object","63","Dropper.jpg",".",".","37","1","847"
"7","7","retrieval","new_object","64","RecorderInstrument.jpg",".",".","37","1","822"
"7","7","retrieval","new_object","65","BowlingPin.jpg",".",".","37","1","899"
"7","7","retrieval","new_object","67","Ruler_Wooden.jpg",".",".","36","0","1120"
"7","7","retrieval","old_object","68","Spatula.jpg",".","1","36","1","752"
"7","7","retrieval","new_object","69","Lobster.jpg",".",".","36","0","814"
"7","7","retrieval","new_object","70","LeafBlower.jpg",".",".","36","0","1183"
"7","7","retrieval","new_object","71","SoapDish.jpg",".",".","36","0","879"
"7","7","retrieval","old_object","72","Van.jpg",".","1","37","0","1004"
"7","7","retrieval","new_object","73","Fan_Straw.jpg",".",".","37","1","741"
"7","7","retrieval","new_object","74","Lips_Wax.jpg",".",".","37","1","678"
"7","7","retrieval","new_object","75","Pretzel_Sticks.jpg",".",".","37","1","848"
"7","7","retrieval","new_object","76","PumpBreast.jpg",".",".","37","1","611"
"7","7","retrieval","new_object","77","Heater_ElectricUpright.jpg",".",".","37","1","826"
"7","7","retrieval","old_object","78","Bandage_Adhesive.jpg",".","1","36","1","815"
"7","7","retrieval","old_object","79","LicensePlate.jpg",".","3","36","1","748"
"7","7","retrieval","old_object","80","Gecko.jpg",".","1","37","0","960"
"7","7","retrieval","old_object","81","Tube_Paint.jpg",".","3","36","1","796"
"7","7","retrieval","old_object","82","Handbag.jpg",".","3","36","1","794"
"7","7","retrieval","old_object","83","ManholeCover.jpg",".","1","36","1","1047"
"7","7","retrieval","old_object","84","PocketKnife.jpg",".","3","36","1","614"
"7","7","retrieval","old_object","85","Oars.jpg",".","1","36","1","784"
"7","7","retrieval","new_object","86","Dog_Bulldog.jpg",".",".","37","1","605"
"7","7","retrieval","old_object","87","Helmet_Motorcycle.jpg",".","3","36","1","731"
"7","7","retrieval","new_object","88","Toy_Christmastree.jpg",".",".","37","1","678"
"7","7","retrieval","new_object","89","Toy_BeadMaze.jpg",".",".","37","1","1169"
"7","7","retrieval","old_object","90","Canister_Oil.jpg",".","3","36","1","735"
"7","7","retrieval","old_object","91","Bus_School.jpg",".","3","36","1","815"
"7","7","retrieval","new_object","92","NailFiles.jpg",".",".","37","1","728"
"7","7","retrieval","old_object","93","Statue_Horse.jpg",".","3","36","1","847"
"7","7","retrieval","old_object","94","IceCream_Popsicle.jpg",".","3","36","1","686"
"7","7","retrieval","new_object","95","Suit_Women.jpg",".",".","37","1","628"
"7","7","retrieval","old_object","96","BumperCar.jpg",".","1","37","0","877"
"7","7","retrieval","new_object","97","Airplane_Small.jpg",".",".","37","1","848"
"7","7","retrieval","old_object","98","Hanger.jpg",".","3","36","1","714"
"7","7","retrieval","new_object","99","Jars_PetFood.jpg",".",".","37","1","640"
"7","7","retrieval","old_object","100","HairCurler.jpg",".","3","36","1","763"
"7","7","retrieval","new_object","101","Mask_VenetianCat.jpg",".",".","37","1","654"
"7","7","retrieval","new_object","102","Stick_IceHockey.jpg",".",".","37","1","647"
"7","7","retrieval","new_object","103","Level.jpg",".",".","37","1","894"
"7","7","retrieval","new_object","104","SnowmanDecor.jpg",".",".","37","1","755"
"7","7","retrieval","new_object","105","Snorkle.jpg",".",".","37","1","792"
"7","7","retrieval","new_object","106","Drum_Ramadan.jpg",".",".","37","1","782"
"7","7","retrieval","old_object","107","Mailbox_Community.jpg",".","1","37","0","888"
"7","7","retrieval","new_object","108","ShoeLace_Flat.jpg",".",".","37","1","680"
"7","7","retrieval","new_object","109","Ginger.jpg",".",".","37","1","796"
"7","7","retrieval","old_object","110","Cinnamonroll.jpg",".","3","36","1","789"
"7","7","retrieval","new_object","111","Mat_Bamboo.jpg",".",".","37","1","664"
"7","7","retrieval","new_object","112","Card_Deck.jpg",".",".","37","1","901"
"7","7","retrieval","new_object","113","Candleholder_LampShaped.jpg",".",".","37","1","813"
"7","7","retrieval","new_object","114","Paddle_Ball.jpg",".",".","37","1","897"
"7","7","retrieval","new_object","115","Bucket_WoodenLight.jpg",".",".","37","1","609"
"7","7","retrieval","old_object","116","Briefcase_Silver.jpg",".","3","37","0","547"
"7","7","retrieval","new_object","117","Piano_Upright.jpg",".",".","37","1","901"
"7","7","retrieval","new_object","118","Canister_Tea.jpg",".",".","37","1","758"
"7","7","retrieval","old_object","119","Barometer_Wood.jpg",".","1","36","1","1225"
"7","7","retrieval","old_object","120","Umbrella_Classic.jpg",".","1","37","0","868"
"7","7","retrieval","old_object","121","CodeDoorLock.jpg",".","1","36","1","1060"
"7","7","retrieval","new_object","122","Cheeseburger.jpg",".",".","37","1","890"
"7","7","retrieval","old_object","123","Candy_Lozenge.jpg",".","3","36","1","801"
"7","7","retrieval","new_object","124","EyeChart.jpg",".",".","37","1","612"
"7","7","retrieval","new_object","125","Toy_TrailerAirport.jpg",".",".","37","1","859"
"7","7","retrieval","old_object","126","Bag_Diaper.jpg",".","1","37","0","762"
"7","7","retrieval","new_object","127","Boat_Colourful.jpg",".",".","37","1","846"
"7","7","retrieval","old_object","128","Backpack_Suitcase.jpg",".","1","37","0","941"
"7","7","retrieval","old_object","129","MetalDetector.jpg",".","3","37","0","1911"
"7","7","retrieval","old_object","130","SolderingWire.jpg",".","3","36","1","880"
"7","7","retrieval","new_object","131","HairClipper.jpg",".",".","37","1","958"
"7","7","retrieval","old_object","133","Radish.jpg",".","3","36","1","692"
"7","7","retrieval","new_object","134","Bicycle_Kids.jpg",".",".","37","1","528"
"7","7","retrieval","new_object","135","Tray_Metal.jpg",".",".","37","1","722"
"7","7","retrieval","old_object","136","Clave.jpg",".","3","36","1","728"
"7","7","retrieval","new_object","137","SaladCaesar.jpg",".",".","37","1","700"
"7","7","retrieval","new_object","138","Heater_Outdoor.jpg",".",".","37","1","1047"
"7","7","retrieval","new_object","139","Pouch_Red.jpg",".",".","37","1","782"
"7","7","retrieval","new_object","140","MortarPestle_WhiteMarble.jpg",".",".","37","1","752"
"7","7","retrieval","new_object","141","FlintIgniter.jpg",".",".","37","1","1034"
"7","7","retrieval","old_object","142","Branch.jpg",".","1","37","0","1432"
"7","7","retrieval","new_object","143","Walkman.jpg",".",".","37","1","980"
"7","7","retrieval","new_object","144","Golf_Club.jpg",".",".","37","1","754"
"7","7","retrieval","old_object","145","Bread_Loaf.jpg",".","3","36","1","754"
"7","7","retrieval","new_object","146","IceCubes.jpg",".",".","37","1","773"
"7","7","retrieval","new_object","147","WaterHeater.jpg",".",".","37","1","654"
"7","7","retrieval","new_object","148","Computer_ExpansionCard.jpg",".",".","36","0","1183"
"7","7","retrieval","old_object","149","Stove_WithOven.jpg",".","1","37","0","1683"
"7","7","retrieval","old_object","150","TortillaChip.jpg",".","1","36","1","784"
"7","7","retrieval","new_object","151","Ostrich.jpg",".",".","37","1","731"
"7","7","retrieval","old_object","152","Carabiner_Orange.jpg",".","1","36","1","964"
"7","7","retrieval","new_object","153","Carrot.jpg",".",".","37","1","817"
"7","7","retrieval","old_object","154","Barometer.jpg",".","3","36","1","869"
"7","7","retrieval","old_object","155","Ladybug.jpg",".","1","37","0","722"
"7","7","retrieval","new_object","156","IroningBoard.jpg",".",".","37","1","709"
"7","7","retrieval","old_object","157","Bread_Melon.jpg",".","3","36","1","630"
"7","7","retrieval","new_object","158","Glove_Baseball.jpg",".",".","37","1","565"
"7","7","retrieval","new_object","159","Bagpipes.jpg",".",".","37","1","653"
"7","7","retrieval","old_object","160","GasStation.jpg",".","3","36","1","981"
"7","7","retrieval","old_object","161","Bat_Cricket.jpg",".","3","36","1","793"
"7","7","retrieval","old_object","162","Desk_White.jpg",".","1","36","1","773"
"7","7","retrieval","new_object","163","OperaGlasses.jpg",".",".","37","1","1133"
"7","7","retrieval","old_object","164","Scythe.jpg",".","1","37","0","879"
"7","7","retrieval","new_object","165","Notepad.jpg",".",".","37","1","893"
"7","7","retrieval","new_object","166","FuzzyDice.jpg",".",".","37","1","709"
"7","7","retrieval","new_object","167","CarLighter.jpg",".",".","37","1","1194"
"7","7","retrieval","old_object","168","Mask_HockeyGoalie.jpg",".","1","36","1","1160"
"7","7","retrieval","new_object","169","Pyramid.jpg",".",".","37","1","1108"
"7","7","retrieval","old_object","170","Aquarium.jpg",".","1","36","1","849"
"7","7","retrieval","old_object","171","Cannon.jpg",".","1","37","0","881"
"7","7","retrieval","old_object","172","Weathervane.jpg",".","1","37","0","752"
"7","7","retrieval","old_object","173","Wontons.jpg",".","3","36","1","754"
"7","7","retrieval","new_object","174","ComputerKey_Escape.jpg",".",".","37","1","760"
"7","7","retrieval","old_object","175","Cassette_Video.jpg",".","1","36","1","755"
"7","7","retrieval","old_object","176","SolderingIron.jpg",".","1","37","0","930"
"7","7","retrieval","old_object","177","House_Wooden.jpg",".","1","36","1","1044"
"7","7","retrieval","new_object","178","Hat_Feather.jpg",".",".","37","1","908"
"7","7","retrieval","new_object","179","Broccoli.jpg",".",".","37","1","815"
"7","7","retrieval","new_object","180","Paddle_Canoe.jpg",".",".","36","0","918"
"7","7","retrieval","old_object","181","Hat_Colonial.jpg",".","3","36","1","714"
"7","7","retrieval","new_object","182","Hat_Police.jpg",".",".","37","1","819"
"7","7","retrieval","new_object","183","TowelRack_Brown.jpg",".",".","36","0","1291"
"7","7","retrieval","old_object","184","Amp.jpg",".","3","36","1","758"
"7","7","retrieval","new_object","185","Glasses_Sun.jpg",".",".","37","1","1133"
"7","7","retrieval","new_object","186","Camera_Video.jpg",".",".","37","1","946"
"7","7","retrieval","new_object","187","Blueberry.jpg",".",".","37","1","760"
"7","7","retrieval","old_object","188","PulleyWooden.jpg",".","3","36","1","1247"
"7","7","retrieval","new_object","189","Balcony.jpg",".",".","37","1","1172"
"7","7","retrieval","old_object","190","sign_traffic.jpg",".","1","37","0","711"
"7","7","retrieval","old_object","191","DartBoard.jpg",".","1","36","1","1053"
"7","7","retrieval","old_object","192","Cymbals.jpg",".","1","37","0","846"
"7","7","retrieval","new_object","193","LintRemover.jpg",".",".","37","1","868"
"7","7","retrieval","new_object","194","Pear_Green.jpg",".",".","37","1","690"
"7","7","retrieval","new_object","195","HairBand.jpg",".",".","37","1","686"
"7","7","retrieval","new_object","196","Helicopter.jpg",".",".","37","1","1051"
"7","7","retrieval","old_object","197","CoffeeLid.jpg",".","3","36","1","945"
"7","7","retrieval","old_object","199","Toy_Truck.jpg",".","1","36","1","998"
"7","7","retrieval","old_object","200","Sign_Construction.jpg",".","3","36","1","669"
"7","7","retrieval","old_object","201","Walker_Blue.jpg",".","1","36","1","1121"
"7","7","retrieval","old_object","202","Heelpad.jpg",".","3","36","1","775"
"7","7","retrieval","new_object","203","Shovel_Garden.jpg",".",".","37","1","732"
"7","7","retrieval","old_object","204","Can_Oblong.jpg",".","3","36","1","805"
"7","7","retrieval","old_object","205","PyramidWooden.jpg",".","1","36","1","1425"
"7","7","retrieval","new_object","206","Toy_Taxi.jpg",".",".","37","1","698"
"7","7","retrieval","old_object","207","Crab.jpg",".","3","36","1","612"
"7","7","retrieval","old_object","208","Hubcap.jpg",".","3","36","1","903"
"7","7","retrieval","old_object","209","LifeJacket_Orangejpg.jpg",".","1","36","1","871"
"7","7","retrieval","new_object","210","DonaldDuck_Toy.jpg",".",".","37","1","582"
"7","7","retrieval","old_object","211","Bone.jpg",".","3","36","1","690"
"7","7","retrieval","old_object","212","RAMchip.jpg",".","1","36","1","780"
"7","7","retrieval","old_object","213","Stone_AncientWriting.jpg",".","3","36","1","894"
"7","7","retrieval","new_object","214","Pasta_Fettuccine.jpg",".",".","37","1","640"
"7","7","retrieval","old_object","215","Barbecue_Charcoal.jpg",".","3","37","0","1165"
"7","7","retrieval","old_object","216","Wire_ElectricalSingle.jpg",".","1","37","0","769"
"7","7","retrieval","old_object","217","Bowl_Glass.jpg",".","1","37","0","1046"
"7","7","retrieval","new_object","218","Bag_Toiletry.jpg",".",".","37","1","664"
"7","7","retrieval","old_object","219","Toy_MerryGoRound.jpg",".","1","37","0","869"
"7","7","retrieval","new_object","220","ColoringSet.jpg",".",".","37","1","785"
"7","7","retrieval","old_object","221","Toy_LambPlushie.jpg",".","1","37","0","858"
"7","7","retrieval","old_object","222","WateringCan_Antique.jpg",".","1","37","0","892"
"7","7","retrieval","new_object","223","Neckrest.jpg",".",".","37","1","731"
"7","7","retrieval","old_object","224","Toy_Lizard.jpg",".","1","36","1","1078"
"7","7","retrieval","new_object","225","Cologne.jpg",".",".","37","1","683"
"7","7","retrieval","new_object","226","RadioactiveContainer.jpg",".",".","37","1","828"
"7","7","retrieval","old_object","227","Microwave.jpg",".","3","36","1","1011"
"7","7","retrieval","old_object","228","Carousel.jpg",".","3","37","0","1014"
"7","7","retrieval","old_object","229","Toolbox_BlackOpen.jpg",".","1","36","1","1014"
"7","7","retrieval","new_object","230","Tray_Medical.jpg",".",".","37","1","680"
"7","7","retrieval","new_object","231","Box_Cutlery.jpg",".",".","37","1","655"
"7","7","retrieval","new_object","232","Toy_Bat.jpg",".",".","37","1","601"
"7","7","retrieval","old_object","233","Makeup_Compact.jpg",".","1","36","1","1116"
"7","7","retrieval","old_object","234","Platter_Vegetables.jpg",".","3","36","1","694"
"7","7","retrieval","old_object","235","Envelope_Manila.jpg",".","1","37","0","1066"
"7","7","retrieval","new_object","236","Shrimp.jpg",".",".","37","1","863"
"7","7","retrieval","old_object","237","Bottle_Beer.jpg",".","3","36","1","793"
"7","7","retrieval","old_object","238","Jar_Honey.jpg",".","3","36","1","696"
"7","7","retrieval","new_object","239","Coin.jpg",".",".","37","1","678"
"7","7","retrieval","old_object","240","WaterWell.jpg",".","1","37","0","992"
"7","7","retrieval","old_object","241","PencilCase.jpg",".","3","37","0","595"
"7","7","retrieval","new_object","242","Case_CD.jpg",".",".","37","1","607"
"7","7","retrieval","new_object","243","ClothesDryingRack.jpg",".",".","37","1","811"
"7","7","retrieval","old_object","244","SofaAntique.jpg",".","1","37","0","742"
"7","7","retrieval","new_object","245","BrainSagittal.jpg",".",".","37","1","733"
"7","7","retrieval","old_object","246","Clock_Interior.jpg",".","1","37","0","876"
"7","7","retrieval","old_object","247","Light_Halogen.jpg",".","1","37","0","648"
"7","7","retrieval","new_object","248","Suitcase.jpg",".",".","37","1","764"
"7","7","retrieval","old_object","249","Bark.jpg",".","1","36","1","1206"
"7","7","retrieval","new_object","250","Speakers_Theatre.jpg",".",".","37","1","686"
"7","7","retrieval","new_object","251","Backhoe.jpg",".",".","37","1","623"
"7","7","retrieval","old_object","252","Thermometer_Room.jpg",".","1","37","0","745"
"7","7","retrieval","new_object","253","Cloud.jpg",".",".","37","1","722"
"7","7","retrieval","old_object","254","Television.jpg",".","1","37","0","806"
"7","7","retrieval","new_object","255","Scorpion.jpg",".",".","37","1","770"
"7","7","retrieval","old_object","256","Mug_Travel.jpg",".","1","37","0","773"
"7","7","retrieval","new_object","257","MatchBook.jpg",".",".","37","1","769"
"7","7","retrieval","old_object","258","Table_Saw.jpg",".","3","37","0","738"
"7","7","retrieval","old_object","259","CarSuspension.jpg",".","3","37","0","774"
"7","7","retrieval","new_object","260","Clamp_Screw.jpg",".",".","37","1","760"
"7","7","retrieval","old_object","261","Lighter_Black.jpg",".","3","37","0","955"
"7","7","retrieval","new_object","262","Protractor.jpg",".",".","37","1","631"
"7","7","retrieval","old_object","263","HoseNozzle.jpg",".","3","37","0","525"
"7","7","retrieval","new_object","265","Lynx.jpg",".",".","37","1","833"
"7","7","retrieval","old_object","266","Lens_Camera.jpg",".","1","37","0","670"
"7","7","retrieval","old_object","267","FireAlarm.jpg",".","1","36","1","1031"
"7","7","retrieval","old_object","268","Castle_Sand.jpg",".","1","36","1","942"
"7","7","retrieval","new_object","269","Compressor.jpg",".",".","37","1","703"
"7","7","retrieval","new_object","270","TelescopeSpacecraft.jpg",".",".","37","1","783"
"7","7","retrieval","new_object","271","Desk_Office.jpg",".",".","37","1","812"
"7","7","retrieval","old_object","272","MemoPaperSpike.jpg",".","3","36","1","1173"
"7","7","retrieval","old_object","273","MechanicalSpring.jpg",".","1","36","1","917"
"7","7","retrieval","new_object","274","Match.jpg",".",".","37","1","771"
"7","7","retrieval","new_object","275","PaperTowel_Brown.jpg",".",".","37","1","830"
"7","7","retrieval","old_object","276","SelfieStick.jpg",".","1","37","0","1183"
"7","7","retrieval","new_object","277","Sink_Kitchen.jpg",".",".","37","1","773"
"7","7","retrieval","old_object","278","Bird_Duck.jpg",".","1","37","0","821"
"7","7","retrieval","new_object","279","Bus_DoubleDecker.jpg",".",".","37","1","697"
