"group","subject","blockcode","trialcode","trialnum","stimulus","encoding_condition","old_object_condition","response","correct","latency"
"7","7","encoding","encoding","1","C51.jpg","3",".","36","0","356"
"7","7","encoding","encoding","2","C10.jpg","3",".","36","0","21"
"7","7","encoding","encoding","3","C54.jpg","3",".","36","0","156"
"7","7","encoding","encoding","4","D49.jpg","1",".","36","0","186"
"7","7","encoding","encoding","5","C60.jpg","3",".","0","0","1000"
"7","7","encoding","encoding","6","C24.jpg","3",".","37","0","520"
"7","7","encoding","encoding","7","C25.jpg","3",".","0","0","1000"
"7","7","encoding","encoding","8","C25.jpg","3",".","36","0","252"
"7","7","encoding","encoding","9","C63.jpg","3",".","37","0","330"
"7","7","encoding","encoding","10","C48.jpg","3",".","37","0","136"
"7","7","encoding","encoding","11","C56.jpg","3",".","37","0","237"
"7","7","encoding","encoding","12","C28.jpg","3",".","37","0","468"
"7","7","encoding","encoding","13","C73.jpg","3",".","37","0","346"
"7","7","encoding","encoding","14","C40.jpg","3",".","37","0","730"
"7","7","encoding","encoding","15","C42.jpg","3",".","37","0","607"
"7","7","encoding","encoding","16","C63.jpg","3",".","37","0","607"
"7","7","encoding","encoding","17","D17.jpg","1",".","36","0","734"
"7","7","encoding","encoding","18","C35.jpg","3",".","37","0","581"
"7","7","encoding","encoding","19","D73.jpg","1",".","37","0","611"
"7","7","encoding","encoding","20","C42.jpg","3",".","37","0","643"
"7","7","encoding","encoding","21","C36.jpg","3",".","37","0","466"
"7","7","encoding","encoding","22","C19.jpg","3",".","37","0","878"
"7","7","encoding","encoding","23","D77.jpg","1",".","37","0","949"
"7","7","encoding","encoding","24","C48.jpg","3",".","37","0","470"
"7","7","encoding","encoding","25","C28.jpg","3",".","37","0","21"
"7","7","encoding","encoding","26","C23.jpg","3",".","0","0","1000"
"7","7","encoding","encoding","27","C47.jpg","3",".","37","0","432"
"7","7","encoding","encoding","28","C73.jpg","3",".","36","0","769"
"7","7","encoding","encoding","29","C46.jpg","3",".","37","0","401"
"7","7","encoding","encoding","30","C56.jpg","3",".","0","0","1000"
"7","7","encoding","encoding","31","C10.jpg","3",".","37","0","569"
"7","7","encoding","encoding","32","C79.jpg","3",".","37","0","739"
"7","7","encoding","encoding","33","D13.jpg","1",".","36","0","330"
"7","7","encoding","encoding","34","D53.jpg","1",".","36","0","153"
"7","7","encoding","encoding","35","C37.jpg","3",".","37","0","594"
"7","7","encoding","encoding","36","C73.jpg","3",".","36","0","298"
"7","7","encoding","encoding","37","C59.jpg","3",".","36","0","519"
"7","7","encoding","encoding","38","C0.jpg","3",".","36","0","299"
"7","7","encoding","encoding","39","C7.jpg","3",".","37","0","50"
"7","7","encoding","encoding","40","C4.jpg","3",".","37","0","299"
"7","7","encoding","encoding","41","C62.jpg","3",".","36","0","252"
"7","7","encoding","encoding","42","C2.jpg","3",".","36","0","278"
"7","7","encoding","encoding","43","D11.jpg","1",".","36","0","536"
"7","7","encoding","encoding","44","C61.jpg","3",".","37","0","51"
"7","7","encoding","encoding","45","C53.jpg","3",".","36","0","257"
"7","7","encoding","encoding","46","C13.jpg","3",".","36","0","291"
"7","7","encoding","encoding","47","C17.jpg","3",".","36","0","55"
"7","7","encoding","encoding","48","C45.jpg","3",".","37","0","235"
"7","7","encoding","encoding","49","D21.jpg","1",".","36","0","292"
"7","7","encoding","encoding","50","C12.jpg","3",".","36","0","265"
"7","7","encoding","encoding","51","D29.jpg","1",".","36","0","33"
"7","7","encoding","encoding","52","C12.jpg","3",".","37","0","942"
"7","7","encoding","encoding","53","C20.jpg","3",".","37","0","55"
"7","7","encoding","encoding","54","C32.jpg","3",".","37","0","75"
"7","7","encoding","encoding","55","C51.jpg","3",".","37","0","578"
"7","7","encoding","encoding","56","C34.jpg","3",".","37","0","250"
"7","7","encoding","encoding","57","C8.jpg","3",".","37","0","297"
"7","7","encoding","encoding","58","C21.jpg","3",".","36","0","619"
"7","7","encoding","encoding","59","C27.jpg","3",".","36","0","361"
"7","7","encoding","encoding","60","C49.jpg","3",".","37","0","67"
"7","7","encoding","encoding","61","C4.jpg","3",".","37","0","468"
"7","7","encoding","encoding","62","C39.jpg","3",".","37","0","195"
"7","7","encoding","encoding","63","C10.jpg","3",".","36","0","303"
"7","7","encoding","encoding","64","C58.jpg","3",".","37","0","123"
"7","7","encoding","encoding","65","C0.jpg","3",".","36","0","656"
"7","7","encoding","encoding","67","C41.jpg","3",".","0","0","1000"
"7","7","encoding","encoding","68","C67.jpg","3",".","36","0","635"
"7","7","encoding","encoding","69","C79.jpg","3",".","36","0","505"
"7","7","encoding","encoding","70","C78.jpg","3",".","36","0","467"
"7","7","encoding","encoding","71","C66.jpg","3",".","37","0","369"
"7","7","encoding","encoding","72","C48.jpg","3",".","0","0","1000"
"7","7","encoding","encoding","73","C45.jpg","3",".","0","0","1000"
"7","7","encoding","encoding","74","C43.jpg","3",".","37","0","934"
"7","7","encoding","encoding","75","C4.jpg","3",".","36","0","835"
"7","7","encoding","encoding","76","D75.jpg","1",".","0","0","1000"
"7","7","encoding","encoding","77","C39.jpg","3",".","0","0","1000"
"7","7","encoding","encoding","78","D67.jpg","1",".","0","0","1000"
"7","7","encoding","encoding","79","C18.jpg","3",".","0","0","1000"
"7","7","encoding","encoding","80","D43.jpg","1",".","0","0","1000"
"7","7","encoding","encoding","81","D70.jpg","1",".","0","0","1000"
"7","7","encoding","encoding","82","C65.jpg","3",".","36","0","293"
"7","7","encoding","encoding","83","C15.jpg","3",".","36","0","701"
"7","7","encoding","encoding","84","C56.jpg","3",".","36","0","158"
"7","7","encoding","encoding","85","D8.jpg","1",".","36","0","680"
"7","7","encoding","encoding","86","C41.jpg","3",".","37","0","101"
"7","7","encoding","encoding","87","C6.jpg","3",".","36","0","663"
"7","7","encoding","encoding","88","C70.jpg","3",".","37","0","243"
"7","7","encoding","encoding","89","C75.jpg","3",".","36","0","613"
"7","7","encoding","encoding","90","C55.jpg","3",".","37","0","19"
"7","7","encoding","encoding","91","C74.jpg","3",".","36","0","461"
"7","7","encoding","encoding","92","C55.jpg","3",".","37","0","902"
"7","7","encoding","encoding","93","C77.jpg","3",".","37","0","355"
"7","7","encoding","encoding","94","C16.jpg","3",".","37","0","508"
"7","7","encoding","encoding","95","D63.jpg","1",".","0","0","1000"
"7","7","encoding","encoding","96","C19.jpg","3",".","0","0","1000"
"7","7","encoding","encoding","97","C29.jpg","3",".","37","0","14"
"7","7","encoding","encoding","98","D39.jpg","1",".","36","0","772"
"7","7","encoding","encoding","99","D36.jpg","1",".","36","0","883"
"7","7","encoding","encoding","100","C69.jpg","3",".","0","0","1000"
"7","7","encoding","encoding","101","C55.jpg","3",".","37","0","342"
"7","7","encoding","encoding","102","C11.jpg","3",".","0","0","1000"
"7","7","encoding","encoding","103","C43.jpg","3",".","36","0","238"
"7","7","encoding","encoding","104","D45.jpg","1",".","36","0","635"
"7","7","encoding","encoding","105","C20.jpg","3",".","36","0","616"
"7","7","encoding","encoding","106","D68.jpg","1",".","36","0","916"
"7","7","encoding","encoding","107","C64.jpg","3",".","37","0","800"
"7","7","encoding","encoding","108","C9.jpg","3",".","37","0","288"
"7","7","encoding","encoding","109","D7.jpg","1",".","0","0","1000"
"7","7","encoding","encoding","110","C21.jpg","3",".","37","0","363"
"7","7","encoding","encoding","111","C26.jpg","3",".","37","0","266"
"7","7","encoding","encoding","112","D71.jpg","1",".","37","0","116"
"7","7","encoding","encoding","113","D2.jpg","1",".","37","0","430"
"7","7","encoding","encoding","114","D3.jpg","1",".","37","0","480"
"7","7","encoding","encoding","115","C23.jpg","3",".","36","0","335"
"7","7","encoding","encoding","116","C32.jpg","3",".","37","0","379"
"7","7","encoding","encoding","117","C34.jpg","3",".","37","0","378"
"7","7","encoding","encoding","118","C72.jpg","3",".","36","0","285"
"7","7","encoding","encoding","119","C16.jpg","3",".","37","0","302"
"7","7","encoding","encoding","120","C37.jpg","3",".","37","0","267"
"7","7","encoding","encoding","121","D6.jpg","1",".","36","0","253"
"7","7","encoding","encoding","122","C36.jpg","3",".","37","0","121"
"7","7","encoding","encoding","123","C31.jpg","3",".","37","0","159"
"7","7","encoding","encoding","124","C70.jpg","3",".","37","0","130"
"7","7","encoding","encoding","125","C11.jpg","3",".","37","0","676"
"7","7","encoding","encoding","126","C18.jpg","3",".","36","0","75"
"7","7","encoding","encoding","127","D74.jpg","1",".","37","0","120"
"7","7","encoding","encoding","128","C22.jpg","3",".","37","0","15"
"7","7","encoding","encoding","129","D64.jpg","1",".","37","0","123"
"7","7","encoding","encoding","130","C27.jpg","3",".","37","0","533"
"7","7","encoding","encoding","131","C68.jpg","3",".","36","0","413"
"7","7","encoding","encoding","133","D0.jpg","1",".","0","0","1000"
"7","7","encoding","encoding","134","C60.jpg","3",".","0","0","1000"
"7","7","encoding","encoding","135","C74.jpg","3",".","0","0","1000"
"7","7","encoding","encoding","136","C62.jpg","3",".","0","0","1000"
"7","7","encoding","encoding","137","C28.jpg","3",".","0","0","1000"
"7","7","encoding","encoding","138","C27.jpg","3",".","0","0","1000"
"7","7","encoding","encoding","139","D35.jpg","1",".","37","0","630"
"7","7","encoding","encoding","140","D50.jpg","1",".","37","0","117"
"7","7","encoding","encoding","141","D79.jpg","1",".","36","0","493"
"7","7","encoding","encoding","142","C2.jpg","3",".","0","0","1000"
"7","7","encoding","encoding","143","D10.jpg","1",".","36","0","351"
"7","7","encoding","encoding","144","C76.jpg","3",".","37","0","565"
"7","7","encoding","encoding","145","C59.jpg","3",".","37","0","641"
"7","7","encoding","encoding","146","C69.jpg","3",".","37","0","863"
"7","7","encoding","encoding","147","C1.jpg","3",".","37","0","261"
"7","7","encoding","encoding","148","C24.jpg","3",".","37","0","417"
"7","7","encoding","encoding","149","D1.jpg","1",".","36","0","864"
"7","7","encoding","encoding","150","C39.jpg","3",".","37","0","89"
"7","7","encoding","encoding","151","D57.jpg","1",".","37","0","242"
"7","7","encoding","encoding","152","C38.jpg","3",".","37","0","663"
"7","7","encoding","encoding","153","D4.jpg","1",".","36","0","895"
"7","7","encoding","encoding","154","D52.jpg","1",".","36","0","63"
"7","7","encoding","encoding","155","D16.jpg","1",".","37","0","216"
"7","7","encoding","encoding","156","C43.jpg","3",".","36","0","444"
"7","7","encoding","encoding","157","C9.jpg","3",".","36","0","714"
"7","7","encoding","encoding","158","C38.jpg","3",".","37","0","27"
"7","7","encoding","encoding","159","C52.jpg","3",".","36","0","78"
"7","7","encoding","encoding","160","C76.jpg","3",".","37","0","441"
"7","7","encoding","encoding","161","C9.jpg","3",".","36","0","603"
"7","7","encoding","encoding","162","C77.jpg","3",".","37","0","802"
"7","7","encoding","encoding","163","C15.jpg","3",".","36","0","135"
"7","7","encoding","encoding","164","C33.jpg","3",".","37","0","408"
"7","7","encoding","encoding","165","C38.jpg","3",".","36","0","708"
"7","7","encoding","encoding","166","D59.jpg","1",".","36","0","118"
"7","7","encoding","encoding","167","D40.jpg","1",".","0","0","1000"
"7","7","encoding","encoding","168","C71.jpg","3",".","37","0","518"
"7","7","encoding","encoding","169","C8.jpg","3",".","37","0","655"
"7","7","encoding","encoding","170","D58.jpg","1",".","37","0","1"
"7","7","encoding","encoding","171","C75.jpg","3",".","36","0","146"
"7","7","encoding","encoding","172","C37.jpg","3",".","37","0","315"
"7","7","encoding","encoding","173","C16.jpg","3",".","36","0","551"
"7","7","encoding","encoding","174","C13.jpg","3",".","36","0","1"
"7","7","encoding","encoding","175","C57.jpg","3",".","36","0","171"
"7","7","encoding","encoding","176","C6.jpg","3",".","36","0","376"
"7","7","encoding","encoding","177","D24.jpg","1",".","36","0","427"
"7","7","encoding","encoding","178","C67.jpg","3",".","36","0","688"
"7","7","encoding","encoding","179","D19.jpg","1",".","37","0","283"
"7","7","encoding","encoding","180","C3.jpg","3",".","36","0","714"
"7","7","encoding","encoding","181","C15.jpg","3",".","36","0","240"
"7","7","encoding","encoding","182","C50.jpg","3",".","0","0","1000"
"7","7","encoding","encoding","183","C52.jpg","3",".","36","0","747"
"7","7","encoding","encoding","184","C7.jpg","3",".","36","0","555"
"7","7","encoding","encoding","185","C70.jpg","3",".","36","0","529"
"7","7","encoding","encoding","186","D37.jpg","1",".","36","0","298"
"7","7","encoding","encoding","187","C44.jpg","3",".","37","0","297"
"7","7","encoding","encoding","188","D26.jpg","1",".","36","0","577"
"7","7","encoding","encoding","189","C41.jpg","3",".","36","0","225"
"7","7","encoding","encoding","190","C7.jpg","3",".","36","0","756"
"7","7","encoding","encoding","191","C68.jpg","3",".","37","0","128"
"7","7","encoding","encoding","192","D66.jpg","1",".","0","0","1000"
"7","7","encoding","encoding","193","C79.jpg","3",".","37","0","706"
"7","7","encoding","encoding","194","C46.jpg","3",".","37","0","321"
"7","7","encoding","encoding","195","D51.jpg","1",".","0","0","1000"
"7","7","encoding","encoding","196","C13.jpg","3",".","0","0","1000"
"7","7","encoding","encoding","197","C29.jpg","3",".","37","0","533"
"7","7","encoding","encoding","199","C19.jpg","3",".","0","0","1000"
"7","7","encoding","encoding","200","D62.jpg","1",".","36","0","389"
"7","7","encoding","encoding","201","C44.jpg","3",".","37","0","645"
"7","7","encoding","encoding","202","C26.jpg","3",".","37","0","155"
"7","7","encoding","encoding","203","C64.jpg","3",".","36","0","372"
"7","7","encoding","encoding","204","D42.jpg","1",".","36","0","562"
"7","7","encoding","encoding","205","D31.jpg","1",".","37","0","829"
"7","7","encoding","encoding","206","C76.jpg","3",".","37","0","361"
"7","7","encoding","encoding","207","C30.jpg","3",".","37","0","854"
"7","7","encoding","encoding","208","C58.jpg","3",".","37","0","39"
"7","7","encoding","encoding","209","C69.jpg","3",".","37","0","191"
"7","7","encoding","encoding","210","C49.jpg","3",".","37","0","512"
"7","7","encoding","encoding","211","C50.jpg","3",".","0","0","1000"
"7","7","encoding","encoding","212","C22.jpg","3",".","36","0","478"
"7","7","encoding","encoding","213","D65.jpg","1",".","37","0","92"
"7","7","encoding","encoding","214","C44.jpg","3",".","37","0","296"
"7","7","encoding","encoding","215","D20.jpg","1",".","0","0","1000"
"7","7","encoding","encoding","216","C31.jpg","3",".","0","0","1000"
"7","7","encoding","encoding","217","D69.jpg","1",".","37","0","179"
"7","7","encoding","encoding","218","C17.jpg","3",".","37","0","56"
"7","7","encoding","encoding","219","C14.jpg","3",".","37","0","208"
"7","7","encoding","encoding","220","D33.jpg","1",".","36","0","912"
"7","7","encoding","encoding","221","C14.jpg","3",".","37","0","164"
"7","7","encoding","encoding","222","D12.jpg","1",".","37","0","640"
"7","7","encoding","encoding","223","C57.jpg","3",".","37","0","338"
"7","7","encoding","encoding","224","C78.jpg","3",".","36","0","754"
"7","7","encoding","encoding","225","C35.jpg","3",".","36","0","2"
"7","7","encoding","encoding","226","C71.jpg","3",".","37","0","256"
"7","7","encoding","encoding","227","C54.jpg","3",".","0","0","1000"
"7","7","encoding","encoding","228","C31.jpg","3",".","37","0","238"
"7","7","encoding","encoding","229","C57.jpg","3",".","0","0","1000"
"7","7","encoding","encoding","230","D72.jpg","1",".","37","0","554"
"7","7","encoding","encoding","231","C1.jpg","3",".","0","0","1000"
"7","7","encoding","encoding","232","C49.jpg","3",".","37","0","651"
"7","7","encoding","encoding","233","D54.jpg","1",".","36","0","532"
"7","7","encoding","encoding","234","C32.jpg","3",".","37","0","630"
"7","7","encoding","encoding","235","C78.jpg","3",".","37","0","821"
"7","7","encoding","encoding","236","D23.jpg","1",".","37","0","740"
"7","7","encoding","encoding","237","C33.jpg","3",".","37","0","440"
"7","7","encoding","encoding","238","C66.jpg","3",".","37","0","454"
"7","7","encoding","encoding","239","D32.jpg","1",".","37","0","735"
"7","7","encoding","encoding","240","C47.jpg","3",".","37","0","323"
"7","7","encoding","encoding","241","C26.jpg","3",".","36","0","945"
"7","7","encoding","encoding","242","D60.jpg","1",".","37","0","63"
"7","7","encoding","encoding","243","C12.jpg","3",".","0","0","1000"
"7","7","encoding","encoding","244","C1.jpg","3",".","37","0","609"
"7","7","encoding","encoding","245","C59.jpg","3",".","37","0","378"
"7","7","encoding","encoding","246","D38.jpg","1",".","37","0","643"
"7","7","encoding","encoding","247","C61.jpg","3",".","37","0","375"
"7","7","encoding","encoding","248","D9.jpg","1",".","0","0","1000"
"7","7","encoding","encoding","249","D34.jpg","1",".","36","0","563"
"7","7","encoding","encoding","250","C17.jpg","3",".","37","0","275"
"7","7","encoding","encoding","251","D18.jpg","1",".","0","0","1000"
"7","7","encoding","encoding","252","C62.jpg","3",".","37","0","995"
"7","7","encoding","encoding","253","D28.jpg","1",".","37","0","215"
"7","7","encoding","encoding","254","C65.jpg","3",".","36","0","114"
"7","7","encoding","encoding","255","C52.jpg","3",".","37","0","9"
"7","7","encoding","encoding","256","C24.jpg","3",".","37","0","466"
"7","7","encoding","encoding","257","C46.jpg","3",".","37","0","206"
"7","7","encoding","encoding","258","D48.jpg","1",".","37","0","48"
"7","7","encoding","encoding","259","C34.jpg","3",".","37","0","843"
"7","7","encoding","encoding","260","C47.jpg","3",".","37","0","645"
"7","7","encoding","encoding","261","C25.jpg","3",".","37","0","791"
"7","7","encoding","encoding","262","C65.jpg","3",".","37","0","887"
"7","7","encoding","encoding","263","C20.jpg","3",".","37","0","641"
"7","7","encoding","encoding","265","C60.jpg","3",".","37","0","775"
"7","7","encoding","encoding","266","C67.jpg","3",".","36","0","664"
"7","7","encoding","encoding","267","C2.jpg","3",".","37","0","683"
"7","7","encoding","encoding","268","C77.jpg","3",".","36","0","658"
"7","7","encoding","encoding","269","C51.jpg","3",".","0","0","1000"
"7","7","encoding","encoding","270","C11.jpg","3",".","37","0","626"
"7","7","encoding","encoding","271","C71.jpg","3",".","36","0","283"
"7","7","encoding","encoding","272","C6.jpg","3",".","37","0","113"
"7","7","encoding","encoding","273","C3.jpg","3",".","0","0","1000"
"7","7","encoding","encoding","274","C0.jpg","3",".","37","0","692"
"7","7","encoding","encoding","275","C5.jpg","3",".","36","0","515"
"7","7","encoding","encoding","276","C61.jpg","3",".","37","0","220"
"7","7","encoding","encoding","277","C42.jpg","3",".","37","0","763"
"7","7","encoding","encoding","278","C21.jpg","3",".","36","0","208"
"7","7","encoding","encoding","279","C53.jpg","3",".","36","0","242"
"7","7","encoding","encoding","280","D61.jpg","1",".","36","0","843"
"7","7","encoding","encoding","281","C18.jpg","3",".","37","0","320"
"7","7","encoding","encoding","282","C5.jpg","3",".","37","0","686"
"7","7","encoding","encoding","283","D47.jpg","1",".","36","0","351"
"7","7","encoding","encoding","284","C64.jpg","3",".","36","0","857"
"7","7","encoding","encoding","285","C58.jpg","3",".","37","0","566"
"7","7","encoding","encoding","286","C63.jpg","3",".","36","0","554"
"7","7","encoding","encoding","287","C66.jpg","3",".","37","0","383"
"7","7","encoding","encoding","288","D5.jpg","1",".","36","0","299"
"7","7","encoding","encoding","289","C74.jpg","3",".","37","0","541"
"7","7","encoding","encoding","290","C3.jpg","3",".","37","0","591"
"7","7","encoding","encoding","291","C45.jpg","3",".","37","0","813"
"7","7","encoding","encoding","292","D78.jpg","1",".","37","0","992"
"7","7","encoding","encoding","293","C30.jpg","3",".","37","0","797"
"7","7","encoding","encoding","294","D27.jpg","1",".","37","0","417"
"7","7","encoding","encoding","295","C54.jpg","3",".","37","0","171"
"7","7","encoding","encoding","296","C33.jpg","3",".","0","0","1000"
"7","7","encoding","encoding","297","D14.jpg","1",".","37","0","760"
"7","7","encoding","encoding","298","D55.jpg","1",".","37","0","516"
"7","7","encoding","encoding","299","C75.jpg","3",".","37","0","278"
"7","7","encoding","encoding","300","C40.jpg","3",".","37","0","26"
"7","7","encoding","encoding","301","C8.jpg","3",".","0","0","1000"
"7","7","encoding","encoding","302","D44.jpg","1",".","37","0","503"
"7","7","encoding","encoding","303","D41.jpg","1",".","37","0","519"
"7","7","encoding","encoding","304","C53.jpg","3",".","37","0","493"
"7","7","encoding","encoding","305","D22.jpg","1",".","37","0","724"
"7","7","encoding","encoding","306","D46.jpg","1",".","37","0","619"
"7","7","encoding","encoding","307","C36.jpg","3",".","37","0","495"
"7","7","encoding","encoding","308","C30.jpg","3",".","0","0","1000"
"7","7","encoding","encoding","309","C5.jpg","3",".","0","0","1000"
"7","7","encoding","encoding","310","C14.jpg","3",".","37","0","781"
"7","7","encoding","encoding","311","C22.jpg","3",".","37","0","608"
"7","7","encoding","encoding","312","C23.jpg","3",".","37","0","690"
"7","7","encoding","encoding","313","D30.jpg","1",".","37","0","521"
"7","7","encoding","encoding","314","C29.jpg","3",".","37","0","430"
"7","7","encoding","encoding","315","C68.jpg","3",".","37","0","575"
"7","7","encoding","encoding","316","C72.jpg","3",".","37","0","488"
"7","7","encoding","encoding","317","D56.jpg","1",".","37","0","476"
"7","7","encoding","encoding","318","D76.jpg","1",".","37","0","451"
"7","7","encoding","encoding","319","D25.jpg","1",".","37","0","195"
"7","7","encoding","encoding","320","C35.jpg","3",".","37","0","513"
"7","7","encoding","encoding","321","C72.jpg","3",".","37","0","448"
"7","7","encoding","encoding","322","C40.jpg","3",".","37","0","358"
"7","7","encoding","encoding","323","D15.jpg","1",".","37","0","306"
"7","7","encoding","encoding","324","C50.jpg","3",".","37","0","371"
"7","7","encoding","encoding","325","C51.jpg","",".","37","0","514"
"7","7","retrieval","new_object","1","A67.jpg",".",".","37","1","1098"
"7","7","retrieval","old_object","2","D70.jpg",".","1","36","1","421"
"7","7","retrieval","old_object","3","C25.jpg",".","3","37","0","588"
"7","7","retrieval","new_object","4","A60.jpg",".",".","36","0","249"
"7","7","retrieval","old_object","5","C34.jpg",".","3","36","1","636"
"7","7","retrieval","old_object","6","D75.jpg",".","1","36","1","980"
"7","7","retrieval","new_object","7","A9.jpg",".",".","0","0","2000"
"7","7","retrieval","old_object","8","C79.jpg",".","3","36","1","1841"
"7","7","retrieval","new_object","9","B74.jpg",".",".","37","1","979"
"7","7","retrieval","old_object","10","C33.jpg",".","3","36","1","1316"
"7","7","retrieval","old_object","11","D67.jpg",".","1","37","0","1513"
"7","7","retrieval","old_object","12","C50.jpg",".","3","37","0","1905"
"7","7","retrieval","new_object","13","A29.jpg",".",".","37","1","1472"
"7","7","retrieval","new_object","14","B18.jpg",".",".","36","0","685"
"7","7","retrieval","new_object","15","A72.jpg",".",".","0","0","2000"
"7","7","retrieval","new_object","16","A34.jpg",".",".","37","1","543"
"7","7","retrieval","old_object","17","D46.jpg",".","1","37","0","1049"
"7","7","retrieval","old_object","18","C77.jpg",".","3","37","0","34"
"7","7","retrieval","new_object","19","A19.jpg",".",".","37","1","233"
"7","7","retrieval","old_object","20","D33.jpg",".","1","37","0","1561"
"7","7","retrieval","new_object","21","A16.jpg",".",".","37","1","411"
"7","7","retrieval","old_object","22","C61.jpg",".","3","0","0","2000"
"7","7","retrieval","new_object","23","A15.jpg",".",".","37","1","1559"
"7","7","retrieval","old_object","24","C36.jpg",".","3","0","0","2000"
"7","7","retrieval","new_object","25","B56.jpg",".",".","37","1","420"
"7","7","retrieval","old_object","26","D59.jpg",".","1","37","0","1244"
"7","7","retrieval","new_object","27","A25.jpg",".",".","37","1","848"
"7","7","retrieval","new_object","28","A76.jpg",".",".","37","1","53"
"7","7","retrieval","new_object","29","A37.jpg",".",".","0","0","2000"
"7","7","retrieval","old_object","30","D16.jpg",".","1","37","0","829"
"7","7","retrieval","old_object","31","D12.jpg",".","1","37","0","4"
"7","7","retrieval","old_object","32","C52.jpg",".","3","37","0","296"
"7","7","retrieval","new_object","33","A28.jpg",".",".","37","1","1089"
"7","7","retrieval","old_object","34","C76.jpg",".","3","37","0","502"
"7","7","retrieval","old_object","35","D78.jpg",".","1","37","0","418"
"7","7","retrieval","new_object","36","B9.jpg",".",".","37","1","158"
"7","7","retrieval","old_object","37","C68.jpg",".","3","37","0","500"
"7","7","retrieval","new_object","38","A54.jpg",".",".","37","1","345"
"7","7","retrieval","new_object","39","B70.jpg",".",".","36","0","123"
"7","7","retrieval","new_object","40","A68.jpg",".",".","37","1","1032"
"7","7","retrieval","new_object","41","A32.jpg",".",".","37","1","484"
"7","7","retrieval","new_object","42","A64.jpg",".",".","37","1","1516"
"7","7","retrieval","old_object","43","C42.jpg",".","3","37","0","698"
"7","7","retrieval","old_object","44","C58.jpg",".","3","0","0","2000"
"7","7","retrieval","new_object","45","B61.jpg",".",".","37","1","133"
"7","7","retrieval","new_object","46","A49.jpg",".",".","0","0","2000"
"7","7","retrieval","old_object","47","C27.jpg",".","3","0","0","2000"
"7","7","retrieval","old_object","48","D21.jpg",".","1","37","0","107"
"7","7","retrieval","new_object","49","B22.jpg",".",".","37","1","1239"
"7","7","retrieval","old_object","50","D25.jpg",".","1","37","0","1531"
"7","7","retrieval","new_object","51","A3.jpg",".",".","36","0","524"
"7","7","retrieval","old_object","52","C10.jpg",".","3","36","1","1268"
"7","7","retrieval","new_object","53","A52.jpg",".",".","36","0","447"
"7","7","retrieval","old_object","54","D55.jpg",".","1","37","0","654"
"7","7","retrieval","new_object","55","B14.jpg",".",".","36","0","1430"
"7","7","retrieval","old_object","56","D15.jpg",".","1","37","0","678"
"7","7","retrieval","old_object","57","D7.jpg",".","1","37","0","1786"
"7","7","retrieval","old_object","58","C72.jpg",".","3","37","0","1287"
"7","7","retrieval","new_object","59","B34.jpg",".",".","37","1","1062"
"7","7","retrieval","old_object","60","C30.jpg",".","3","37","0","263"
"7","7","retrieval","new_object","61","B64.jpg",".",".","0","0","2000"
"7","7","retrieval","old_object","62","D71.jpg",".","1","37","0","1248"
"7","7","retrieval","old_object","63","D65.jpg",".","1","0","0","2000"
"7","7","retrieval","old_object","64","C47.jpg",".","3","37","0","88"
"7","7","retrieval","new_object","65","A0.jpg",".",".","37","1","1942"
"7","7","retrieval","new_object","67","A46.jpg",".",".","0","0","2000"
"7","7","retrieval","new_object","68","A7.jpg",".",".","36","0","807"
"7","7","retrieval","old_object","69","C14.jpg",".","3","36","1","1160"
"7","7","retrieval","new_object","70","A50.jpg",".",".","37","1","630"
"7","7","retrieval","new_object","71","B71.jpg",".",".","37","1","514"
"7","7","retrieval","new_object","72","A26.jpg",".",".","36","0","546"
"7","7","retrieval","old_object","73","C28.jpg",".","3","37","0","844"
"7","7","retrieval","old_object","74","C45.jpg",".","3","36","1","227"
"7","7","retrieval","old_object","75","C19.jpg",".","3","36","1","1831"
"7","7","retrieval","new_object","76","B73.jpg",".",".","0","0","2000"
"7","7","retrieval","new_object","77","A38.jpg",".",".","37","1","1335"
"7","7","retrieval","old_object","78","C75.jpg",".","3","36","1","527"
"7","7","retrieval","new_object","79","B77.jpg",".",".","37","1","185"
"7","7","retrieval","old_object","80","D34.jpg",".","1","36","1","714"
"7","7","retrieval","old_object","81","C67.jpg",".","3","36","1","445"
"7","7","retrieval","new_object","82","B51.jpg",".",".","36","0","964"
"7","7","retrieval","old_object","83","C8.jpg",".","3","36","1","1087"
"7","7","retrieval","new_object","84","B3.jpg",".",".","36","0","1367"
"7","7","retrieval","new_object","85","B36.jpg",".",".","37","1","1569"
"7","7","retrieval","old_object","86","D8.jpg",".","1","36","1","135"
"7","7","retrieval","old_object","87","C22.jpg",".","3","37","0","1005"
"7","7","retrieval","new_object","88","B68.jpg",".",".","36","0","1661"
"7","7","retrieval","old_object","89","C12.jpg",".","3","37","0","403"
"7","7","retrieval","old_object","90","D13.jpg",".","1","37","0","1327"
"7","7","retrieval","new_object","91","B44.jpg",".",".","36","0","109"
"7","7","retrieval","old_object","92","C0.jpg",".","3","36","1","1086"
"7","7","retrieval","new_object","93","A69.jpg",".",".","37","1","517"
"7","7","retrieval","new_object","94","B19.jpg",".",".","0","0","2000"
"7","7","retrieval","old_object","95","D3.jpg",".","1","36","1","1890"
"7","7","retrieval","new_object","96","A61.jpg",".",".","0","0","2000"
"7","7","retrieval","new_object","97","A57.jpg",".",".","36","0","263"
"7","7","retrieval","new_object","98","A41.jpg",".",".","36","0","394"
"7","7","retrieval","old_object","99","D35.jpg",".","1","37","0","801"
"7","7","retrieval","new_object","100","B25.jpg",".",".","37","1","813"
"7","7","retrieval","new_object","101","B29.jpg",".",".","37","1","814"
"7","7","retrieval","new_object","102","A43.jpg",".",".","37","1","153"
"7","7","retrieval","old_object","103","D62.jpg",".","1","37","0","1063"
"7","7","retrieval","old_object","104","D28.jpg",".","1","36","1","1509"
"7","7","retrieval","new_object","105","B7.jpg",".",".","37","1","476"
"7","7","retrieval","new_object","106","A14.jpg",".",".","37","1","1193"
"7","7","retrieval","new_object","107","B38.jpg",".",".","36","0","724"
"7","7","retrieval","new_object","108","A5.jpg",".",".","36","0","1463"
"7","7","retrieval","old_object","109","D42.jpg",".","1","37","0","193"
"7","7","retrieval","old_object","110","C32.jpg",".","3","36","1","103"
"7","7","retrieval","new_object","111","B58.jpg",".",".","37","1","1277"
"7","7","retrieval","old_object","112","D10.jpg",".","1","37","0","5"
"7","7","retrieval","new_object","113","B26.jpg",".",".","37","1","207"
"7","7","retrieval","new_object","114","B49.jpg",".",".","36","0","798"
"7","7","retrieval","new_object","115","B46.jpg",".",".","37","1","1799"
"7","7","retrieval","new_object","116","A12.jpg",".",".","36","0","87"
"7","7","retrieval","old_object","117","C37.jpg",".","3","37","0","1356"
"7","7","retrieval","old_object","118","D79.jpg",".","1","37","0","485"
"7","7","retrieval","new_object","119","B76.jpg",".",".","37","1","781"
"7","7","retrieval","new_object","120","A27.jpg",".",".","36","0","67"
"7","7","retrieval","new_object","121","B52.jpg",".",".","37","1","901"
"7","7","retrieval","old_object","122","C3.jpg",".","3","37","0","759"
"7","7","retrieval","old_object","123","C65.jpg",".","3","37","0","693"
"7","7","retrieval","old_object","124","C20.jpg",".","3","36","1","1368"
"7","7","retrieval","new_object","125","A45.jpg",".",".","36","0","622"
"7","7","retrieval","new_object","126","A74.jpg",".",".","37","1","1022"
"7","7","retrieval","new_object","127","B37.jpg",".",".","37","1","27"
"7","7","retrieval","old_object","128","D56.jpg",".","1","37","0","1235"
"7","7","retrieval","new_object","129","B41.jpg",".",".","36","0","1804"
"7","7","retrieval","old_object","130","D27.jpg",".","1","36","1","1409"
"7","7","retrieval","old_object","131","C26.jpg",".","3","37","0","164"
"7","7","retrieval","new_object","133","A65.jpg",".",".","37","1","747"
"7","7","retrieval","new_object","134","A55.jpg",".",".","36","0","730"
"7","7","retrieval","old_object","135","D76.jpg",".","1","36","1","1092"
"7","7","retrieval","old_object","136","D68.jpg",".","1","37","0","490"
"7","7","retrieval","old_object","137","C4.jpg",".","3","37","0","1135"
"7","7","retrieval","old_object","138","C31.jpg",".","3","37","0","805"
"7","7","retrieval","new_object","139","B35.jpg",".",".","36","0","1813"
"7","7","retrieval","new_object","140","A31.jpg",".",".","36","0","1626"
"7","7","retrieval","new_object","141","B47.jpg",".",".","36","0","562"
"7","7","retrieval","old_object","142","D60.jpg",".","1","0","0","2000"
"7","7","retrieval","old_object","143","D54.jpg",".","1","37","0","355"
"7","7","retrieval","new_object","144","B5.jpg",".",".","36","0","70"
"7","7","retrieval","new_object","145","A42.jpg",".",".","36","0","748"
"7","7","retrieval","old_object","146","C73.jpg",".","3","36","1","840"
"7","7","retrieval","new_object","147","B15.jpg",".",".","36","0","1403"
"7","7","retrieval","old_object","148","C23.jpg",".","3","37","0","265"
"7","7","retrieval","old_object","149","D58.jpg",".","1","36","1","453"
"7","7","retrieval","new_object","150","B39.jpg",".",".","0","0","2000"
"7","7","retrieval","old_object","151","C43.jpg",".","3","37","0","1252"
"7","7","retrieval","old_object","152","D72.jpg",".","1","37","0","137"
"7","7","retrieval","new_object","153","B59.jpg",".",".","36","0","645"
"7","7","retrieval","old_object","154","C49.jpg",".","3","37","0","769"
"7","7","retrieval","old_object","155","C1.jpg",".","3","36","1","1297"
"7","7","retrieval","new_object","156","B24.jpg",".",".","37","1","48"
"7","7","retrieval","new_object","157","A51.jpg",".",".","37","1","1821"
"7","7","retrieval","new_object","158","B40.jpg",".",".","36","0","207"
"7","7","retrieval","old_object","159","C38.jpg",".","3","37","0","198"
"7","7","retrieval","old_object","160","D37.jpg",".","1","37","0","751"
"7","7","retrieval","old_object","161","C41.jpg",".","3","37","0","1255"
"7","7","retrieval","new_object","162","B54.jpg",".",".","0","0","2000"
"7","7","retrieval","new_object","163","B45.jpg",".",".","37","1","191"
"7","7","retrieval","new_object","164","B28.jpg",".",".","37","1","74"
"7","7","retrieval","new_object","165","B57.jpg",".",".","37","1","1163"
"7","7","retrieval","new_object","166","A56.jpg",".",".","37","1","675"
"7","7","retrieval","old_object","167","D40.jpg",".","1","37","0","1269"
"7","7","retrieval","new_object","168","B53.jpg",".",".","37","1","119"
"7","7","retrieval","old_object","169","C24.jpg",".","3","37","0","325"
"7","7","retrieval","new_object","170","B30.jpg",".",".","37","1","458"
"7","7","retrieval","new_object","171","A44.jpg",".",".","37","1","468"
"7","7","retrieval","new_object","172","B23.jpg",".",".","36","0","608"
"7","7","retrieval","old_object","173","D77.jpg",".","1","37","0","1012"
"7","7","retrieval","old_object","174","D63.jpg",".","1","36","1","345"
"7","7","retrieval","old_object","175","D19.jpg",".","1","37","0","2"
"7","7","retrieval","old_object","176","D14.jpg",".","1","36","1","1687"
"7","7","retrieval","old_object","177","D39.jpg",".","1","0","0","2000"
"7","7","retrieval","new_object","178","A22.jpg",".",".","0","0","2000"
"7","7","retrieval","old_object","179","D73.jpg",".","1","0","0","2000"
"7","7","retrieval","new_object","180","B27.jpg",".",".","0","0","2000"
"7","7","retrieval","old_object","181","D51.jpg",".","1","36","1","122"
"7","7","retrieval","new_object","182","B16.jpg",".",".","36","0","423"
"7","7","retrieval","old_object","183","C55.jpg",".","3","37","0","526"
"7","7","retrieval","new_object","184","A75.jpg",".",".","37","1","269"
"7","7","retrieval","old_object","185","C35.jpg",".","3","36","1","514"
"7","7","retrieval","new_object","186","B69.jpg",".",".","37","1","141"
"7","7","retrieval","old_object","187","D57.jpg",".","1","36","1","364"
"7","7","retrieval","old_object","188","D31.jpg",".","1","37","0","968"
"7","7","retrieval","new_object","189","B0.jpg",".",".","37","1","341"
"7","7","retrieval","new_object","190","B1.jpg",".",".","37","1","484"
"7","7","retrieval","new_object","191","A20.jpg",".",".","36","0","1308"
"7","7","retrieval","old_object","192","C6.jpg",".","3","37","0","98"
"7","7","retrieval","old_object","193","C11.jpg",".","3","37","0","705"
"7","7","retrieval","new_object","194","A4.jpg",".",".","37","1","873"
"7","7","retrieval","new_object","195","A40.jpg",".",".","37","1","1060"
"7","7","retrieval","old_object","196","C70.jpg",".","3","36","1","254"
"7","7","retrieval","old_object","197","D20.jpg",".","1","37","0","55"
"7","7","retrieval","old_object","199","C63.jpg",".","3","0","0","2000"
"7","7","retrieval","new_object","200","A24.jpg",".",".","36","0","582"
"7","7","retrieval","old_object","201","C17.jpg",".","3","37","0","1356"
"7","7","retrieval","old_object","202","D74.jpg",".","1","37","0","82"
"7","7","retrieval","new_object","203","B32.jpg",".",".","37","1","709"
"7","7","retrieval","new_object","204","A30.jpg",".",".","37","1","963"
"7","7","retrieval","old_object","205","D41.jpg",".","1","36","1","696"
"7","7","retrieval","old_object","206","C39.jpg",".","3","36","1","38"
"7","7","retrieval","old_object","207","C51.jpg",".","3","36","1","1591"
"7","7","retrieval","new_object","208","A33.jpg",".",".","37","1","734"
"7","7","retrieval","old_object","209","C71.jpg",".","3","37","0","563"
"7","7","retrieval","new_object","210","A10.jpg",".",".","36","0","283"
"7","7","retrieval","new_object","211","A36.jpg",".",".","36","0","1320"
"7","7","retrieval","new_object","212","A21.jpg",".",".","37","1","865"
"7","7","retrieval","new_object","213","A71.jpg",".",".","36","0","247"
"7","7","retrieval","old_object","214","D48.jpg",".","1","37","0","69"
"7","7","retrieval","new_object","215","A62.jpg",".",".","36","0","16"
"7","7","retrieval","new_object","216","A23.jpg",".",".","36","0","379"
"7","7","retrieval","old_object","217","C29.jpg",".","3","36","1","299"
"7","7","retrieval","old_object","218","D2.jpg",".","1","36","1","514"
"7","7","retrieval","old_object","219","D5.jpg",".","1","37","0","180"
"7","7","retrieval","new_object","220","A73.jpg",".",".","36","0","547"
"7","7","retrieval","old_object","221","D45.jpg",".","1","36","1","158"
"7","7","retrieval","new_object","222","B43.jpg",".",".","37","1","657"
"7","7","retrieval","new_object","223","B62.jpg",".",".","36","0","76"
"7","7","retrieval","old_object","224","C62.jpg",".","3","37","0","693"
"7","7","retrieval","old_object","225","C60.jpg",".","3","36","1","1399"
"7","7","retrieval","new_object","226","A6.jpg",".",".","37","1","112"
"7","7","retrieval","new_object","227","B50.jpg",".",".","37","1","393"
"7","7","retrieval","new_object","228","B63.jpg",".",".","37","1","557"
"7","7","retrieval","new_object","229","B4.jpg",".",".","37","1","1292"
"7","7","retrieval","new_object","230","A47.jpg",".",".","37","1","663"
"7","7","retrieval","old_object","231","D64.jpg",".","1","36","1","1425"
"7","7","retrieval","new_object","232","A48.jpg",".",".","37","1","201"
"7","7","retrieval","old_object","233","C21.jpg",".","3","37","0","74"
"7","7","retrieval","new_object","234","A63.jpg",".",".","37","1","606"
"7","7","retrieval","new_object","235","A59.jpg",".",".","37","1","178"
"7","7","retrieval","new_object","236","B10.jpg",".",".","37","1","417"
"7","7","retrieval","new_object","237","B2.jpg",".",".","37","1","582"
"7","7","retrieval","old_object","238","C78.jpg",".","3","37","0","1442"
"7","7","retrieval","new_object","239","B13.jpg",".",".","37","1","403"
"7","7","retrieval","new_object","240","A18.jpg",".",".","37","1","288"
"7","7","retrieval","old_object","241","D1.jpg",".","1","37","0","765"
"7","7","retrieval","new_object","242","B72.jpg",".",".","37","1","540"
"7","7","retrieval","old_object","243","C40.jpg",".","3","37","0","598"
"7","7","retrieval","new_object","244","B66.jpg",".",".","37","1","16"
"7","7","retrieval","old_object","245","C66.jpg",".","3","37","0","763"
"7","7","retrieval","old_object","246","D43.jpg",".","1","37","0","776"
"7","7","retrieval","new_object","247","B67.jpg",".",".","37","1","524"
"7","7","retrieval","old_object","248","D52.jpg",".","1","37","0","816"
"7","7","retrieval","old_object","249","D69.jpg",".","1","37","0","467"
"7","7","retrieval","new_object","250","B33.jpg",".",".","0","0","2000"
"7","7","retrieval","old_object","251","D49.jpg",".","1","37","0","647"
"7","7","retrieval","old_object","252","D22.jpg",".","1","37","0","1016"
"7","7","retrieval","old_object","253","D61.jpg",".","1","36","1","307"
"7","7","retrieval","new_object","254","B48.jpg",".",".","36","0","546"
"7","7","retrieval","old_object","255","D17.jpg",".","1","36","1","1365"
"7","7","retrieval","new_object","256","B65.jpg",".",".","36","0","1194"
"7","7","retrieval","new_object","257","B75.jpg",".",".","37","1","1926"
"7","7","retrieval","old_object","258","D11.jpg",".","1","37","0","656"
"7","7","retrieval","old_object","259","C57.jpg",".","3","37","0","1489"
"7","7","retrieval","new_object","260","A53.jpg",".",".","37","1","679"
"7","7","retrieval","new_object","261","A17.jpg",".",".","37","1","107"
"7","7","retrieval","old_object","262","D26.jpg",".","1","37","0","1412"
"7","7","retrieval","old_object","263","C46.jpg",".","3","36","1","933"
"7","7","retrieval","old_object","265","C5.jpg",".","3","36","1","846"
"7","7","retrieval","old_object","266","D38.jpg",".","1","36","1","752"
"7","7","retrieval","old_object","267","C7.jpg",".","3","37","0","850"
"7","7","retrieval","old_object","268","C9.jpg",".","3","36","1","876"
"7","7","retrieval","new_object","269","B17.jpg",".",".","37","1","219"
"7","7","retrieval","new_object","270","B20.jpg",".",".","36","0","339"
"7","7","retrieval","old_object","271","D23.jpg",".","1","37","0","1657"
"7","7","retrieval","new_object","272","B12.jpg",".",".","37","1","655"
"7","7","retrieval","old_object","273","D47.jpg",".","1","36","1","40"
"7","7","retrieval","old_object","274","C13.jpg",".","3","36","1","693"
"7","7","retrieval","old_object","275","D18.jpg",".","1","37","0","760"
"7","7","retrieval","new_object","276","B8.jpg",".",".","37","1","977"
"7","7","retrieval","old_object","277","C15.jpg",".","3","37","0","1599"
"7","7","retrieval","old_object","278","D9.jpg",".","1","37","0","494"
"7","7","retrieval","new_object","279","A39.jpg",".",".","36","0","463"
"7","7","retrieval","old_object","280","D6.jpg",".","1","0","0","2000"
"7","7","retrieval","new_object","281","A35.jpg",".",".","37","1","712"
"7","7","retrieval","new_object","282","B79.jpg",".",".","37","1","489"
"7","7","retrieval","new_object","283","A78.jpg",".",".","37","1","1372"
"7","7","retrieval","old_object","284","D53.jpg",".","1","36","1","47"
"7","7","retrieval","old_object","285","C53.jpg",".","3","37","0","348"
"7","7","retrieval","old_object","286","D36.jpg",".","1","36","1","352"
"7","7","retrieval","old_object","287","D29.jpg",".","1","37","0","1445"
"7","7","retrieval","new_object","288","B55.jpg",".",".","36","0","138"
"7","7","retrieval","new_object","289","A70.jpg",".",".","36","0","483"
"7","7","retrieval","old_object","290","C18.jpg",".","3","37","0","1567"
"7","7","retrieval","old_object","291","D66.jpg",".","1","36","1","1203"
"7","7","retrieval","new_object","292","B31.jpg",".",".","37","1","1137"
"7","7","retrieval","new_object","293","A66.jpg",".",".","36","0","1027"
"7","7","retrieval","new_object","294","A2.jpg",".",".","0","0","2000"
"7","7","retrieval","new_object","295","A77.jpg",".",".","37","1","244"
"7","7","retrieval","old_object","296","D44.jpg",".","1","37","0","1636"
"7","7","retrieval","old_object","297","D30.jpg",".","1","37","0","742"
"7","7","retrieval","new_object","298","B11.jpg",".",".","0","0","2000"
"7","7","retrieval","new_object","299","B42.jpg",".",".","36","0","965"
"7","7","retrieval","old_object","300","C44.jpg",".","3","37","0","65"
"7","7","retrieval","new_object","301","A79.jpg",".",".","37","1","405"
"7","7","retrieval","new_object","302","A1.jpg",".",".","36","0","326"
"7","7","retrieval","old_object","303","D0.jpg",".","1","36","1","443"
"7","7","retrieval","old_object","304","C54.jpg",".","3","37","0","365"
"7","7","retrieval","old_object","305","D32.jpg",".","1","37","0","1514"
"7","7","retrieval","new_object","306","B21.jpg",".",".","0","0","2000"
"7","7","retrieval","new_object","307","B78.jpg",".",".","37","1","1078"
"7","7","retrieval","old_object","308","C16.jpg",".","3","36","1","960"
"7","7","retrieval","old_object","309","C69.jpg",".","3","37","0","1280"
"7","7","retrieval","old_object","310","C64.jpg",".","3","36","1","91"
"7","7","retrieval","old_object","311","D4.jpg",".","1","37","0","841"
"7","7","retrieval","old_object","312","C48.jpg",".","3","36","1","218"
"7","7","retrieval","new_object","313","B6.jpg",".",".","37","1","1300"
"7","7","retrieval","new_object","314","B60.jpg",".",".","37","1","614"
"7","7","retrieval","old_object","315","D24.jpg",".","1","36","1","271"
"7","7","retrieval","new_object","316","A58.jpg",".",".","37","1","985"
"7","7","retrieval","old_object","317","C59.jpg",".","3","36","1","435"
"7","7","retrieval","old_object","318","C2.jpg",".","3","37","0","698"
"7","7","retrieval","old_object","319","C74.jpg",".","3","37","0","492"
"7","7","retrieval","new_object","320","A11.jpg",".",".","36","0","272"
"7","7","retrieval","new_object","321","A13.jpg",".",".","37","1","198"
"7","7","retrieval","old_object","322","C56.jpg",".","3","37","0","403"
"7","7","retrieval","new_object","323","A8.jpg",".",".","37","1","109"
"7","7","retrieval","old_object","324","D50.jpg",".","1","37","0","559"
"7","7","retrieval","old_object","325","D70.jpg",".","","37","0","550"
"7","7","demographics_block","gender","1",".",".",".","female","1","67563"
"7","7","demographics_block","age","1",".",".",".","28","1","67563"
"7","7","demographics_block","education","1",".",".",".","16","1","67563"
"7","7","demographics_block","left_right_handed","2",".",".",".","Right","1","5933"
"7","7","demographics_block","raceoption1","2",".",".",".","0","1","5933"
"7","7","demographics_block","raceoption2","2",".",".",".","","1","5933"
"7","7","demographics_block","raceoption3","2",".",".",".","","1","5933"
"7","7","demographics_block","raceoption4","2",".",".",".","","1","5933"
"7","7","demographics_block","raceoption5","2",".",".",".","","1","5933"
"7","7","demographics_block","raceoption6","2",".",".",".","","1","5933"
"7","7","demographics_block","raceoption7","2",".",".",".","","1","5933"
"7","7","demographics_block","raceoption8","2",".",".",".","","1","5933"
"7","7","demographics_block","raceoption9","2",".",".",".","","1","5933"
"7","7","demographics_block","raceother","2",".",".",".","","1","5933"
"7","7","demographics_block","raceother","2",".",".",".","","1","5933"
"7","7","demographics_block","english_language","2",".",".",".","Yes","1","5933"
"7","7","demographics_block","other","2",".",".",".","","1","5933"
"7","7","demographics_block","eyesight","3",".",".",".","Yes","1","4947"
"7","7","demographics_block","colorblind","3",".",".",".","No","1","4947"
"19","19","encoding","encoding","1","C51.jpg","3",".","37","0","668"
"19","19","encoding","encoding","2","C10.jpg","3",".","37","0","557"
"19","19","encoding","encoding","3","C54.jpg","3",".","37","0","633"
"19","19","encoding","encoding","4","D49.jpg","1",".","37","0","562"
"19","19","encoding","encoding","5","C60.jpg","3",".","37","0","961"
"19","19","encoding","encoding","6","C24.jpg","3",".","37","0","818"
"19","19","encoding","encoding","7","C25.jpg","3",".","37","0","688"
"19","19","encoding","encoding","8","C25.jpg","3",".","37","0","512"
"19","19","encoding","encoding","9","C63.jpg","3",".","37","0","536"
"19","19","encoding","encoding","10","C48.jpg","3",".","37","0","630"
"19","19","encoding","encoding","11","C56.jpg","3",".","37","0","704"
"19","19","encoding","encoding","12","C28.jpg","3",".","37","0","439"
"19","19","encoding","encoding","13","C73.jpg","3",".","36","0","698"
"19","19","encoding","encoding","14","C40.jpg","3",".","37","0","429"
"19","19","encoding","encoding","15","C42.jpg","3",".","37","0","484"
"19","19","encoding","encoding","16","C63.jpg","3",".","37","0","446"
"19","19","encoding","encoding","17","D17.jpg","1",".","37","0","800"
"19","19","encoding","encoding","18","C35.jpg","3",".","37","0","549"
"19","19","encoding","encoding","19","D73.jpg","1",".","37","0","522"
"19","19","encoding","encoding","20","C42.jpg","3",".","37","0","446"
"19","19","encoding","encoding","21","C36.jpg","3",".","37","0","550"
"19","19","encoding","encoding","22","C19.jpg","3",".","37","0","741"
"19","19","encoding","encoding","23","D77.jpg","1",".","37","0","534"
"19","19","encoding","encoding","24","C48.jpg","3",".","37","0","389"
"19","19","encoding","encoding","25","C28.jpg","3",".","37","0","382"
"19","19","encoding","encoding","26","C23.jpg","3",".","37","0","417"
"19","19","encoding","encoding","27","C47.jpg","3",".","37","0","355"
"19","19","encoding","encoding","28","C73.jpg","3",".","36","0","506"
"19","19","encoding","encoding","29","C46.jpg","3",".","37","0","475"
"19","19","encoding","encoding","30","C56.jpg","3",".","37","0","406"
"19","19","encoding","encoding","31","C10.jpg","3",".","37","0","375"
"19","19","encoding","encoding","32","C79.jpg","3",".","37","0","398"
"19","19","encoding","encoding","33","D13.jpg","1",".","37","0","681"
"19","19","encoding","encoding","34","D53.jpg","1",".","37","0","611"
"19","19","encoding","encoding","35","C37.jpg","3",".","37","0","905"
"19","19","encoding","encoding","36","C73.jpg","3",".","36","0","608"
"19","19","encoding","encoding","37","C59.jpg","3",".","37","0","511"
"19","19","encoding","encoding","38","C0.jpg","3",".","36","0","628"
"19","19","encoding","encoding","39","C7.jpg","3",".","36","0","619"
"19","19","encoding","encoding","40","C4.jpg","3",".","37","0","553"
"19","19","encoding","encoding","41","C62.jpg","3",".","37","0","551"
"19","19","encoding","encoding","42","C2.jpg","3",".","37","0","471"
"19","19","encoding","encoding","43","D11.jpg","1",".","37","0","410"
"19","19","encoding","encoding","44","C61.jpg","3",".","37","0","431"
"19","19","encoding","encoding","45","C53.jpg","3",".","37","0","534"
"19","19","encoding","encoding","46","C13.jpg","3",".","37","0","711"
"19","19","encoding","encoding","47","C17.jpg","3",".","37","0","446"
"19","19","encoding","encoding","48","C45.jpg","3",".","37","0","450"
"19","19","encoding","encoding","49","D21.jpg","1",".","37","0","386"
"19","19","encoding","encoding","50","C12.jpg","3",".","37","0","362"
"19","19","encoding","encoding","51","D29.jpg","1",".","36","0","597"
"19","19","encoding","encoding","52","C12.jpg","3",".","37","0","500"
"19","19","encoding","encoding","53","C20.jpg","3",".","37","0","530"
"19","19","encoding","encoding","54","C32.jpg","3",".","37","0","444"
"19","19","encoding","encoding","55","C51.jpg","3",".","37","0","391"
"19","19","encoding","encoding","56","C34.jpg","3",".","37","0","450"
"19","19","encoding","encoding","57","C8.jpg","3",".","37","0","464"
"19","19","encoding","encoding","58","C21.jpg","3",".","37","0","381"
"19","19","encoding","encoding","59","C27.jpg","3",".","37","0","450"
"19","19","encoding","encoding","60","C49.jpg","3",".","37","0","374"
"19","19","encoding","encoding","61","C4.jpg","3",".","37","0","411"
"19","19","encoding","encoding","62","C39.jpg","3",".","37","0","383"
"19","19","encoding","encoding","63","C10.jpg","3",".","37","0","376"
"19","19","encoding","encoding","64","C58.jpg","3",".","37","0","341"
"19","19","encoding","encoding","65","C0.jpg","3",".","37","0","413"
"19","19","encoding","encoding","67","C41.jpg","3",".","37","0","539"
"19","19","encoding","encoding","68","C67.jpg","3",".","36","0","548"
"19","19","encoding","encoding","69","C79.jpg","3",".","36","0","555"
"19","19","encoding","encoding","70","C78.jpg","3",".","37","0","555"
"19","19","encoding","encoding","71","C66.jpg","3",".","37","0","758"
"19","19","encoding","encoding","72","C48.jpg","3",".","37","0","410"
"19","19","encoding","encoding","73","C45.jpg","3",".","37","0","433"
"19","19","encoding","encoding","74","C43.jpg","3",".","37","0","406"
"19","19","encoding","encoding","75","C4.jpg","3",".","37","0","371"
"19","19","encoding","encoding","76","D75.jpg","1",".","36","0","527"
"19","19","encoding","encoding","77","C39.jpg","3",".","37","0","387"
"19","19","encoding","encoding","78","D67.jpg","1",".","37","0","630"
"19","19","encoding","encoding","79","C18.jpg","3",".","37","0","458"
"19","19","encoding","encoding","80","D43.jpg","1",".","37","0","509"
"19","19","encoding","encoding","81","D70.jpg","1",".","37","0","413"
"19","19","encoding","encoding","82","C65.jpg","3",".","37","0","453"
"19","19","encoding","encoding","83","C15.jpg","3",".","37","0","530"
"19","19","encoding","encoding","84","C56.jpg","3",".","37","0","666"
"19","19","encoding","encoding","85","D8.jpg","1",".","37","0","446"
"19","19","encoding","encoding","86","C41.jpg","3",".","37","0","397"
"19","19","encoding","encoding","87","C6.jpg","3",".","37","0","400"
"19","19","encoding","encoding","88","C70.jpg","3",".","37","0","385"
"19","19","encoding","encoding","89","C75.jpg","3",".","37","0","376"
"19","19","encoding","encoding","90","C55.jpg","3",".","37","0","371"
"19","19","encoding","encoding","91","C74.jpg","3",".","37","0","423"
"19","19","encoding","encoding","92","C55.jpg","3",".","37","0","373"
"19","19","encoding","encoding","93","C77.jpg","3",".","36","0","464"
"19","19","encoding","encoding","94","C16.jpg","3",".","37","0","406"
"19","19","encoding","encoding","95","D63.jpg","1",".","37","0","404"
"19","19","encoding","encoding","96","C19.jpg","3",".","36","0","490"
"19","19","encoding","encoding","97","C29.jpg","3",".","37","0","660"
"19","19","encoding","encoding","98","D39.jpg","1",".","37","0","765"
"19","19","encoding","encoding","99","D36.jpg","1",".","37","0","601"
"19","19","encoding","encoding","100","C69.jpg","3",".","37","0","548"
"19","19","encoding","encoding","101","C55.jpg","3",".","37","0","493"
"19","19","encoding","encoding","102","C11.jpg","3",".","37","0","351"
"19","19","encoding","encoding","103","C43.jpg","3",".","37","0","402"
"19","19","encoding","encoding","104","D45.jpg","1",".","37","0","370"
"19","19","encoding","encoding","105","C20.jpg","3",".","37","0","516"
"19","19","encoding","encoding","106","D68.jpg","1",".","37","0","594"
"19","19","encoding","encoding","107","C64.jpg","3",".","37","0","712"
"19","19","encoding","encoding","108","C9.jpg","3",".","37","0","417"
"19","19","encoding","encoding","109","D7.jpg","1",".","37","0","374"
"19","19","encoding","encoding","110","C21.jpg","3",".","37","0","372"
"19","19","encoding","encoding","111","C26.jpg","3",".","37","0","897"
"19","19","encoding","encoding","112","D71.jpg","1",".","37","0","533"
"19","19","encoding","encoding","113","D2.jpg","1",".","37","0","381"
"19","19","encoding","encoding","114","D3.jpg","1",".","37","0","358"
"19","19","encoding","encoding","115","C23.jpg","3",".","37","0","419"
"19","19","encoding","encoding","116","C32.jpg","3",".","37","0","431"
"19","19","encoding","encoding","117","C34.jpg","3",".","37","0","508"
"19","19","encoding","encoding","118","C72.jpg","3",".","37","0","371"
"19","19","encoding","encoding","119","C16.jpg","3",".","37","0","388"
"19","19","encoding","encoding","120","C37.jpg","3",".","37","0","708"
"19","19","encoding","encoding","121","D6.jpg","1",".","37","0","428"
"19","19","encoding","encoding","122","C36.jpg","3",".","37","0","401"
"19","19","encoding","encoding","123","C31.jpg","3",".","37","0","419"
"19","19","encoding","encoding","124","C70.jpg","3",".","37","0","374"
"19","19","encoding","encoding","125","C11.jpg","3",".","37","0","376"
"19","19","encoding","encoding","126","C18.jpg","3",".","37","0","392"
"19","19","encoding","encoding","127","D74.jpg","1",".","37","0","341"
"19","19","encoding","encoding","128","C22.jpg","3",".","37","0","401"
"19","19","encoding","encoding","129","D64.jpg","1",".","37","0","529"
"19","19","encoding","encoding","130","C27.jpg","3",".","37","0","380"
"19","19","encoding","encoding","131","C68.jpg","3",".","37","0","385"
"19","19","encoding","encoding","133","D0.jpg","1",".","37","0","453"
"19","19","encoding","encoding","134","C60.jpg","3",".","37","0","425"
"19","19","encoding","encoding","135","C74.jpg","3",".","37","0","378"
"19","19","encoding","encoding","136","C62.jpg","3",".","37","0","346"
"19","19","encoding","encoding","137","C28.jpg","3",".","37","0","348"
"19","19","encoding","encoding","138","C27.jpg","3",".","37","0","365"
"19","19","encoding","encoding","139","D35.jpg","1",".","37","0","543"
"19","19","encoding","encoding","140","D50.jpg","1",".","37","0","359"
"19","19","encoding","encoding","141","D79.jpg","1",".","37","0","349"
"19","19","encoding","encoding","142","C2.jpg","3",".","37","0","360"
"19","19","encoding","encoding","143","D10.jpg","1",".","37","0","309"
"19","19","encoding","encoding","144","C76.jpg","3",".","37","0","562"
"19","19","encoding","encoding","145","C59.jpg","3",".","37","0","402"
"19","19","encoding","encoding","146","C69.jpg","3",".","37","0","366"
"19","19","encoding","encoding","147","C1.jpg","3",".","37","0","331"
"19","19","encoding","encoding","148","C24.jpg","3",".","37","0","297"
"19","19","encoding","encoding","149","D1.jpg","1",".","37","0","405"
"19","19","encoding","encoding","150","C39.jpg","3",".","37","0","374"
"19","19","encoding","encoding","151","D57.jpg","1",".","36","0","756"
"19","19","encoding","encoding","152","C38.jpg","3",".","37","0","432"
"19","19","encoding","encoding","153","D4.jpg","1",".","37","0","443"
"19","19","encoding","encoding","154","D52.jpg","1",".","37","0","383"
"19","19","encoding","encoding","155","D16.jpg","1",".","37","0","428"
"19","19","encoding","encoding","156","C43.jpg","3",".","37","0","413"
"19","19","encoding","encoding","157","C9.jpg","3",".","37","0","372"
"19","19","encoding","encoding","158","C38.jpg","3",".","37","0","444"
"19","19","encoding","encoding","159","C52.jpg","3",".","37","0","449"
"19","19","encoding","encoding","160","C76.jpg","3",".","37","0","472"
"19","19","encoding","encoding","161","C9.jpg","3",".","37","0","432"
"19","19","encoding","encoding","162","C77.jpg","3",".","36","0","556"
"19","19","encoding","encoding","163","C15.jpg","3",".","37","0","496"
"19","19","encoding","encoding","164","C33.jpg","3",".","37","0","503"
"19","19","encoding","encoding","165","C38.jpg","3",".","37","0","416"
"19","19","encoding","encoding","166","D59.jpg","1",".","37","0","407"
"19","19","encoding","encoding","167","D40.jpg","1",".","37","0","476"
"19","19","encoding","encoding","168","C71.jpg","3",".","37","0","572"
"19","19","encoding","encoding","169","C8.jpg","3",".","37","0","449"
"19","19","encoding","encoding","170","D58.jpg","1",".","0","0","1000"
"19","19","encoding","encoding","171","C75.jpg","3",".","37","0","734"
"19","19","encoding","encoding","172","C37.jpg","3",".","37","0","505"
"19","19","encoding","encoding","173","C16.jpg","3",".","37","0","353"
"19","19","encoding","encoding","174","C13.jpg","3",".","37","0","456"
"19","19","encoding","encoding","175","C57.jpg","3",".","37","0","451"
"19","19","encoding","encoding","176","C6.jpg","3",".","37","0","409"
"19","19","encoding","encoding","177","D24.jpg","1",".","37","0","379"
"19","19","encoding","encoding","178","C67.jpg","3",".","36","0","596"
"19","19","encoding","encoding","179","D19.jpg","1",".","37","0","594"
"19","19","encoding","encoding","180","C3.jpg","3",".","37","0","438"
"19","19","encoding","encoding","181","C15.jpg","3",".","37","0","403"
"19","19","encoding","encoding","182","C50.jpg","3",".","37","0","350"
"19","19","encoding","encoding","183","C52.jpg","3",".","37","0","499"
"19","19","encoding","encoding","184","C7.jpg","3",".","36","0","589"
"19","19","encoding","encoding","185","C70.jpg","3",".","37","0","460"
"19","19","encoding","encoding","186","D37.jpg","1",".","37","0","398"
"19","19","encoding","encoding","187","C44.jpg","3",".","37","0","438"
"19","19","encoding","encoding","188","D26.jpg","1",".","36","0","511"
"19","19","encoding","encoding","189","C41.jpg","3",".","37","0","429"
"19","19","encoding","encoding","190","C7.jpg","3",".","36","0","502"
"19","19","encoding","encoding","191","C68.jpg","3",".","37","0","443"
"19","19","encoding","encoding","192","D66.jpg","1",".","37","0","435"
"19","19","encoding","encoding","193","C79.jpg","3",".","36","0","461"
"19","19","encoding","encoding","194","C46.jpg","3",".","37","0","366"
"19","19","encoding","encoding","195","D51.jpg","1",".","37","0","491"
"19","19","encoding","encoding","196","C13.jpg","3",".","37","0","455"
"19","19","encoding","encoding","197","C29.jpg","3",".","37","0","433"
"19","19","encoding","encoding","199","C19.jpg","3",".","37","0","725"
"19","19","encoding","encoding","200","D62.jpg","1",".","37","0","657"
"19","19","encoding","encoding","201","C44.jpg","3",".","37","0","456"
"19","19","encoding","encoding","202","C26.jpg","3",".","37","0","382"
"19","19","encoding","encoding","203","C64.jpg","3",".","37","0","386"
"19","19","encoding","encoding","204","D42.jpg","1",".","37","0","394"
"19","19","encoding","encoding","205","D31.jpg","1",".","37","0","378"
"19","19","encoding","encoding","206","C76.jpg","3",".","37","0","369"
"19","19","encoding","encoding","207","C30.jpg","3",".","37","0","642"
"19","19","encoding","encoding","208","C58.jpg","3",".","37","0","375"
"19","19","encoding","encoding","209","C69.jpg","3",".","37","0","363"
"19","19","encoding","encoding","210","C49.jpg","3",".","37","0","349"
"19","19","encoding","encoding","211","C50.jpg","3",".","37","0","365"
"19","19","encoding","encoding","212","C22.jpg","3",".","37","0","363"
"19","19","encoding","encoding","213","D65.jpg","1",".","37","0","383"
"19","19","encoding","encoding","214","C44.jpg","3",".","37","0","361"
"19","19","encoding","encoding","215","D20.jpg","1",".","37","0","386"
"19","19","encoding","encoding","216","C31.jpg","3",".","37","0","364"
"19","19","encoding","encoding","217","D69.jpg","1",".","37","0","356"
"19","19","encoding","encoding","218","C17.jpg","3",".","37","0","375"
"19","19","encoding","encoding","219","C14.jpg","3",".","37","0","417"
"19","19","encoding","encoding","220","D33.jpg","1",".","37","0","426"
"19","19","encoding","encoding","221","C14.jpg","3",".","37","0","392"
"19","19","encoding","encoding","222","D12.jpg","1",".","37","0","411"
"19","19","encoding","encoding","223","C57.jpg","3",".","37","0","395"
"19","19","encoding","encoding","224","C78.jpg","3",".","37","0","412"
"19","19","encoding","encoding","225","C35.jpg","3",".","37","0","410"
"19","19","encoding","encoding","226","C71.jpg","3",".","37","0","384"
"19","19","encoding","encoding","227","C54.jpg","3",".","37","0","428"
"19","19","encoding","encoding","228","C31.jpg","3",".","37","0","345"
"19","19","encoding","encoding","229","C57.jpg","3",".","37","0","421"
"19","19","encoding","encoding","230","D72.jpg","1",".","37","0","334"
"19","19","encoding","encoding","231","C1.jpg","3",".","37","0","384"
"19","19","encoding","encoding","232","C49.jpg","3",".","37","0","526"
"19","19","encoding","encoding","233","D54.jpg","1",".","36","0","637"
"19","19","encoding","encoding","234","C32.jpg","3",".","37","0","371"
"19","19","encoding","encoding","235","C78.jpg","3",".","37","0","313"
"19","19","encoding","encoding","236","D23.jpg","1",".","37","0","316"
"19","19","encoding","encoding","237","C33.jpg","3",".","37","0","254"
"19","19","encoding","encoding","238","C66.jpg","3",".","37","0","274"
"19","19","encoding","encoding","239","D32.jpg","1",".","37","0","258"
"19","19","encoding","encoding","240","C47.jpg","3",".","37","0","349"
"19","19","encoding","encoding","241","C26.jpg","3",".","37","0","412"
"19","19","encoding","encoding","242","D60.jpg","1",".","37","0","384"
"19","19","encoding","encoding","243","C12.jpg","3",".","37","0","393"
"19","19","encoding","encoding","244","C1.jpg","3",".","37","0","386"
"19","19","encoding","encoding","245","C59.jpg","3",".","37","0","348"
"19","19","encoding","encoding","246","D38.jpg","1",".","37","0","380"
"19","19","encoding","encoding","247","C61.jpg","3",".","37","0","462"
"19","19","encoding","encoding","248","D9.jpg","1",".","37","0","400"
"19","19","encoding","encoding","249","D34.jpg","1",".","37","0","431"
"19","19","encoding","encoding","250","C17.jpg","3",".","37","0","360"
"19","19","encoding","encoding","251","D18.jpg","1",".","36","0","452"
"19","19","encoding","encoding","252","C62.jpg","3",".","37","0","461"
"19","19","encoding","encoding","253","D28.jpg","1",".","37","0","348"
"19","19","encoding","encoding","254","C65.jpg","3",".","37","0","476"
"19","19","encoding","encoding","255","C52.jpg","3",".","37","0","331"
"19","19","encoding","encoding","256","C24.jpg","3",".","37","0","557"
"19","19","encoding","encoding","257","C46.jpg","3",".","37","0","354"
"19","19","encoding","encoding","258","D48.jpg","1",".","37","0","271"
"19","19","encoding","encoding","259","C34.jpg","3",".","37","0","413"
"19","19","encoding","encoding","260","C47.jpg","3",".","37","0","315"
"19","19","encoding","encoding","261","C25.jpg","3",".","37","0","329"
"19","19","encoding","encoding","262","C65.jpg","3",".","37","0","287"
"19","19","encoding","encoding","263","C20.jpg","3",".","37","0","352"
"19","19","encoding","encoding","265","C60.jpg","3",".","0","0","1000"
"19","19","encoding","encoding","266","C67.jpg","3",".","0","0","1000"
"19","19","encoding","encoding","267","C2.jpg","3",".","0","0","1000"
"19","19","encoding","encoding","268","C77.jpg","3",".","36","0","622"
"19","19","encoding","encoding","269","C51.jpg","3",".","37","0","601"
"19","19","encoding","encoding","270","C11.jpg","3",".","37","0","682"
"19","19","encoding","encoding","271","C71.jpg","3",".","37","0","413"
"19","19","encoding","encoding","272","C6.jpg","3",".","37","0","418"
"19","19","encoding","encoding","273","C3.jpg","3",".","37","0","378"
"19","19","encoding","encoding","274","C0.jpg","3",".","36","0","547"
"19","19","encoding","encoding","275","C5.jpg","3",".","37","0","364"
"19","19","encoding","encoding","276","C61.jpg","3",".","37","0","368"
"19","19","encoding","encoding","277","C42.jpg","3",".","37","0","459"
"19","19","encoding","encoding","278","C21.jpg","3",".","37","0","473"
"19","19","encoding","encoding","279","C53.jpg","3",".","37","0","478"
"19","19","encoding","encoding","280","D61.jpg","1",".","37","0","396"
"19","19","encoding","encoding","281","C18.jpg","3",".","37","0","382"
"19","19","encoding","encoding","282","C5.jpg","3",".","37","0","382"
"19","19","encoding","encoding","283","D47.jpg","1",".","37","0","415"
"19","19","encoding","encoding","284","C64.jpg","3",".","37","0","375"
"19","19","encoding","encoding","285","C58.jpg","3",".","37","0","741"
"19","19","encoding","encoding","286","C63.jpg","3",".","37","0","395"
"19","19","encoding","encoding","287","C66.jpg","3",".","37","0","354"
"19","19","encoding","encoding","288","D5.jpg","1",".","37","0","395"
"19","19","encoding","encoding","289","C74.jpg","3",".","37","0","412"
"19","19","encoding","encoding","290","C3.jpg","3",".","37","0","364"
"19","19","encoding","encoding","291","C45.jpg","3",".","37","0","413"
"19","19","encoding","encoding","292","D78.jpg","1",".","37","0","346"
"19","19","encoding","encoding","293","C30.jpg","3",".","37","0","380"
"19","19","encoding","encoding","294","D27.jpg","1",".","37","0","359"
"19","19","encoding","encoding","295","C54.jpg","3",".","37","0","345"
"19","19","encoding","encoding","296","C33.jpg","3",".","37","0","346"
"19","19","encoding","encoding","297","D14.jpg","1",".","37","0","388"
"19","19","encoding","encoding","298","D55.jpg","1",".","37","0","392"
"19","19","encoding","encoding","299","C75.jpg","3",".","37","0","305"
"19","19","encoding","encoding","300","C40.jpg","3",".","37","0","337"
"19","19","encoding","encoding","301","C8.jpg","3",".","37","0","340"
"19","19","encoding","encoding","302","D44.jpg","1",".","37","0","281"
"19","19","encoding","encoding","303","D41.jpg","1",".","37","0","280"
"19","19","encoding","encoding","304","C53.jpg","3",".","37","0","282"
"19","19","encoding","encoding","305","D22.jpg","1",".","37","0","354"
"19","19","encoding","encoding","306","D46.jpg","1",".","37","0","329"
"19","19","encoding","encoding","307","C36.jpg","3",".","37","0","231"
"19","19","encoding","encoding","308","C30.jpg","3",".","37","0","275"
"19","19","encoding","encoding","309","C5.jpg","3",".","37","0","176"
"19","19","encoding","encoding","310","C14.jpg","3",".","37","0","234"
"19","19","encoding","encoding","311","C22.jpg","3",".","37","0","249"
"19","19","encoding","encoding","312","C23.jpg","3",".","37","0","313"
"19","19","encoding","encoding","313","D30.jpg","1",".","37","0","646"
"19","19","encoding","encoding","314","C29.jpg","3",".","37","0","505"
"19","19","encoding","encoding","315","C68.jpg","3",".","37","0","438"
"19","19","encoding","encoding","316","C72.jpg","3",".","37","0","337"
"19","19","encoding","encoding","317","D56.jpg","1",".","37","0","402"
"19","19","encoding","encoding","318","D76.jpg","1",".","37","0","342"
"19","19","encoding","encoding","319","D25.jpg","1",".","37","0","751"
"19","19","encoding","encoding","320","C35.jpg","3",".","37","0","714"
"19","19","encoding","encoding","321","C72.jpg","3",".","37","0","603"
"19","19","encoding","encoding","322","C40.jpg","3",".","37","0","415"
"19","19","encoding","encoding","323","D15.jpg","1",".","37","0","307"
"19","19","encoding","encoding","324","C50.jpg","3",".","37","0","285"
"19","19","encoding","encoding","325","C51.jpg","",".","37","0","315"
"19","19","retrieval","old_object","1","D70.jpg",".","1","37","0","1425"
"19","19","retrieval","new_object","2","B42.jpg",".",".","37","1","1122"
"19","19","retrieval","new_object","3","A60.jpg",".",".","37","1","639"
"19","19","retrieval","new_object","4","B36.jpg",".",".","37","1","561"
"19","19","retrieval","old_object","5","C25.jpg",".","3","36","1","751"
"19","19","retrieval","old_object","6","C34.jpg",".","3","36","1","747"
"19","19","retrieval","old_object","7","D75.jpg",".","1","37","0","746"
"19","19","retrieval","old_object","8","C79.jpg",".","3","36","1","615"
"19","19","retrieval","new_object","9","A77.jpg",".",".","37","1","709"
"19","19","retrieval","old_object","10","C33.jpg",".","3","36","1","686"
"19","19","retrieval","new_object","11","A73.jpg",".",".","37","1","981"
"19","19","retrieval","old_object","12","D67.jpg",".","1","36","1","736"
"19","19","retrieval","new_object","13","B26.jpg",".",".","37","1","721"
"19","19","retrieval","new_object","14","A66.jpg",".",".","37","1","615"
"19","19","retrieval","new_object","15","A25.jpg",".",".","37","1","651"
"19","19","retrieval","new_object","16","B62.jpg",".",".","37","1","665"
"19","19","retrieval","new_object","17","B66.jpg",".",".","37","1","641"
"19","19","retrieval","new_object","18","A41.jpg",".",".","37","1","564"
"19","19","retrieval","old_object","19","C50.jpg",".","3","36","1","737"
"19","19","retrieval","old_object","20","D46.jpg",".","1","36","1","699"
"19","19","retrieval","old_object","21","C77.jpg",".","3","36","1","683"
"19","19","retrieval","new_object","22","A40.jpg",".",".","37","1","648"
"19","19","retrieval","old_object","23","D33.jpg",".","1","36","1","1010"
"19","19","retrieval","new_object","24","B20.jpg",".",".","37","1","759"
"19","19","retrieval","new_object","25","A52.jpg",".",".","37","1","931"
"19","19","retrieval","old_object","26","C61.jpg",".","3","36","1","731"
"19","19","retrieval","new_object","27","A54.jpg",".",".","36","0","713"
"19","19","retrieval","old_object","28","C36.jpg",".","3","36","1","1222"
"19","19","retrieval","old_object","29","D59.jpg",".","1","36","1","799"
"19","19","retrieval","old_object","30","D16.jpg",".","1","37","0","747"
"19","19","retrieval","new_object","31","A44.jpg",".",".","37","1","795"
"19","19","retrieval","old_object","32","D12.jpg",".","1","37","0","1190"
"19","19","retrieval","old_object","33","C52.jpg",".","3","36","1","831"
"19","19","retrieval","new_object","34","A59.jpg",".",".","37","1","788"
"19","19","retrieval","new_object","35","B13.jpg",".",".","37","1","1023"
"19","19","retrieval","old_object","36","C76.jpg",".","3","37","0","976"
"19","19","retrieval","old_object","37","D78.jpg",".","1","36","1","986"
"19","19","retrieval","new_object","38","A53.jpg",".",".","37","1","693"
"19","19","retrieval","old_object","39","C68.jpg",".","3","36","1","780"
"19","19","retrieval","old_object","40","C42.jpg",".","3","36","1","773"
"19","19","retrieval","old_object","41","C58.jpg",".","3","36","1","741"
"19","19","retrieval","old_object","42","C27.jpg",".","3","36","1","743"
"19","19","retrieval","old_object","43","D21.jpg",".","1","36","1","627"
"19","19","retrieval","old_object","44","D25.jpg",".","1","36","1","672"
"19","19","retrieval","old_object","45","C10.jpg",".","3","37","0","655"
"19","19","retrieval","new_object","46","A9.jpg",".",".","37","1","839"
"19","19","retrieval","new_object","47","A75.jpg",".",".","37","1","1079"
"19","19","retrieval","new_object","48","B17.jpg",".",".","37","1","910"
"19","19","retrieval","new_object","49","B45.jpg",".",".","37","1","849"
"19","19","retrieval","new_object","50","B22.jpg",".",".","37","1","803"
"19","19","retrieval","old_object","51","D55.jpg",".","1","36","1","918"
"19","19","retrieval","old_object","52","D15.jpg",".","1","36","1","1059"
"19","19","retrieval","old_object","53","D7.jpg",".","1","37","0","687"
"19","19","retrieval","old_object","54","C72.jpg",".","3","37","0","614"
"19","19","retrieval","old_object","55","C30.jpg",".","3","36","1","1064"
"19","19","retrieval","old_object","56","D71.jpg",".","1","36","1","814"
"19","19","retrieval","new_object","57","B33.jpg",".",".","37","1","784"
"19","19","retrieval","new_object","58","B6.jpg",".",".","37","1","833"
"19","19","retrieval","old_object","59","D65.jpg",".","1","37","0","894"
"19","19","retrieval","old_object","60","C47.jpg",".","3","36","1","671"
"19","19","retrieval","old_object","61","C14.jpg",".","3","36","1","887"
"19","19","retrieval","new_object","62","A30.jpg",".",".","37","1","870"
"19","19","retrieval","new_object","63","B43.jpg",".",".","37","1","892"
"19","19","retrieval","old_object","64","C28.jpg",".","3","36","1","1017"
"19","19","retrieval","new_object","65","B48.jpg",".",".","37","1","913"
"19","19","retrieval","old_object","67","C45.jpg",".","3","36","1","905"
"19","19","retrieval","old_object","68","C19.jpg",".","3","36","1","732"
"19","19","retrieval","new_object","69","A62.jpg",".",".","37","1","815"
"19","19","retrieval","new_object","70","B50.jpg",".",".","37","1","839"
"19","19","retrieval","new_object","71","A74.jpg",".",".","37","1","699"
"19","19","retrieval","old_object","72","C75.jpg",".","3","36","1","773"
"19","19","retrieval","new_object","73","B21.jpg",".",".","37","1","809"
"19","19","retrieval","old_object","74","D34.jpg",".","1","36","1","823"
"19","19","retrieval","old_object","75","C67.jpg",".","3","36","1","652"
"19","19","retrieval","new_object","76","A70.jpg",".",".","37","1","691"
"19","19","retrieval","old_object","77","C8.jpg",".","3","36","1","905"
"19","19","retrieval","new_object","78","B0.jpg",".",".","37","1","1045"
"19","19","retrieval","old_object","79","D8.jpg",".","1","37","0","1072"
"19","19","retrieval","old_object","80","C22.jpg",".","3","36","1","792"
"19","19","retrieval","new_object","81","B25.jpg",".",".","37","1","761"
"19","19","retrieval","old_object","82","C12.jpg",".","3","36","1","814"
"19","19","retrieval","old_object","83","D13.jpg",".","1","37","0","1261"
"19","19","retrieval","old_object","84","C0.jpg",".","3","36","1","804"
"19","19","retrieval","new_object","85","A22.jpg",".",".","37","1","880"
"19","19","retrieval","new_object","86","B64.jpg",".",".","37","1","784"
"19","19","retrieval","old_object","87","D3.jpg",".","1","37","0","1412"
"19","19","retrieval","new_object","88","B15.jpg",".",".","37","1","1345"
"19","19","retrieval","old_object","89","D35.jpg",".","1","36","1","1417"
"19","19","retrieval","new_object","90","B11.jpg",".",".","37","1","790"
"19","19","retrieval","new_object","91","A4.jpg",".",".","37","1","705"
"19","19","retrieval","old_object","92","D62.jpg",".","1","36","1","872"
"19","19","retrieval","old_object","93","D28.jpg",".","1","36","1","954"
"19","19","retrieval","new_object","94","B24.jpg",".",".","37","1","721"
"19","19","retrieval","old_object","95","D42.jpg",".","1","36","1","853"
"19","19","retrieval","old_object","96","C32.jpg",".","3","36","1","772"
"19","19","retrieval","old_object","97","D10.jpg",".","1","37","0","883"
"19","19","retrieval","new_object","98","B19.jpg",".",".","37","1","1232"
"19","19","retrieval","old_object","99","C37.jpg",".","3","36","1","910"
"19","19","retrieval","old_object","100","D79.jpg",".","1","37","0","852"
"19","19","retrieval","new_object","101","B72.jpg",".",".","37","1","1065"
"19","19","retrieval","old_object","102","C3.jpg",".","3","36","1","745"
"19","19","retrieval","old_object","103","C65.jpg",".","3","36","1","1108"
"19","19","retrieval","new_object","104","B40.jpg",".",".","37","1","902"
"19","19","retrieval","new_object","105","B55.jpg",".",".","37","1","854"
"19","19","retrieval","new_object","106","A24.jpg",".",".","37","1","879"
"19","19","retrieval","new_object","107","A49.jpg",".",".","37","1","722"
"19","19","retrieval","old_object","108","C20.jpg",".","3","36","1","831"
"19","19","retrieval","new_object","109","B39.jpg",".",".","37","1","767"
"19","19","retrieval","new_object","110","A8.jpg",".",".","37","1","762"
"19","19","retrieval","new_object","111","A20.jpg",".",".","37","1","985"
"19","19","retrieval","new_object","112","B77.jpg",".",".","37","1","787"
"19","19","retrieval","old_object","113","D56.jpg",".","1","36","1","779"
"19","19","retrieval","new_object","114","A2.jpg",".",".","37","1","643"
"19","19","retrieval","new_object","115","A26.jpg",".",".","37","1","875"
"19","19","retrieval","old_object","116","D27.jpg",".","1","36","1","918"
"19","19","retrieval","new_object","117","A48.jpg",".",".","37","1","783"
"19","19","retrieval","new_object","118","A43.jpg",".",".","37","1","704"
"19","19","retrieval","old_object","119","C26.jpg",".","3","36","1","778"
"19","19","retrieval","old_object","120","D76.jpg",".","1","36","1","924"
"19","19","retrieval","new_object","121","B31.jpg",".",".","37","1","722"
"19","19","retrieval","new_object","122","B12.jpg",".",".","37","1","961"
"19","19","retrieval","new_object","123","A45.jpg",".",".","37","1","1181"
"19","19","retrieval","new_object","124","A31.jpg",".",".","37","1","738"
"19","19","retrieval","new_object","125","A63.jpg",".",".","37","1","779"
"19","19","retrieval","old_object","126","D68.jpg",".","1","36","1","976"
"19","19","retrieval","new_object","127","A28.jpg",".",".","37","1","744"
"19","19","retrieval","new_object","128","B1.jpg",".",".","36","0","1498"
"19","19","retrieval","old_object","129","C4.jpg",".","3","36","1","864"
"19","19","retrieval","new_object","130","A51.jpg",".",".","37","1","836"
"19","19","retrieval","new_object","131","A71.jpg",".",".","37","1","752"
"19","19","retrieval","old_object","133","C31.jpg",".","3","36","1","800"
"19","19","retrieval","new_object","134","B10.jpg",".",".","37","1","628"
"19","19","retrieval","old_object","135","D60.jpg",".","1","36","1","1050"
"19","19","retrieval","new_object","136","B16.jpg",".",".","37","1","628"
"19","19","retrieval","new_object","137","B3.jpg",".",".","37","1","794"
"19","19","retrieval","old_object","138","D54.jpg",".","1","37","0","703"
"19","19","retrieval","new_object","139","A6.jpg",".",".","37","1","968"
"19","19","retrieval","new_object","140","A18.jpg",".",".","37","1","763"
"19","19","retrieval","old_object","141","C73.jpg",".","3","36","1","681"
"19","19","retrieval","new_object","142","A33.jpg",".",".","37","1","602"
"19","19","retrieval","new_object","143","B27.jpg",".",".","37","1","497"
"19","19","retrieval","old_object","144","C23.jpg",".","3","37","0","982"
"19","19","retrieval","new_object","145","B5.jpg",".",".","37","1","872"
"19","19","retrieval","old_object","146","D58.jpg",".","1","36","1","1004"
"19","19","retrieval","new_object","147","B23.jpg",".",".","36","0","1419"
"19","19","retrieval","old_object","148","C43.jpg",".","3","36","1","740"
"19","19","retrieval","new_object","149","A3.jpg",".",".","37","1","707"
"19","19","retrieval","old_object","150","D72.jpg",".","1","37","0","918"
"19","19","retrieval","new_object","151","A42.jpg",".",".","37","1","670"
"19","19","retrieval","old_object","152","C49.jpg",".","3","36","1","1182"
"19","19","retrieval","new_object","153","B34.jpg",".",".","37","1","730"
"19","19","retrieval","new_object","154","B29.jpg",".",".","37","1","892"
"19","19","retrieval","new_object","155","B61.jpg",".",".","37","1","729"
"19","19","retrieval","new_object","156","A27.jpg",".",".","37","1","643"
"19","19","retrieval","new_object","157","A55.jpg",".",".","37","1","1492"
"19","19","retrieval","new_object","158","A29.jpg",".",".","37","1","705"
"19","19","retrieval","old_object","159","C1.jpg",".","3","36","1","720"
"19","19","retrieval","old_object","160","C38.jpg",".","3","36","1","873"
"19","19","retrieval","new_object","161","B59.jpg",".",".","37","1","1139"
"19","19","retrieval","old_object","162","D37.jpg",".","1","37","0","767"
"19","19","retrieval","new_object","163","A13.jpg",".",".","37","1","870"
"19","19","retrieval","old_object","164","C41.jpg",".","3","36","1","894"
"19","19","retrieval","new_object","165","B75.jpg",".",".","37","1","708"
"19","19","retrieval","new_object","166","B70.jpg",".",".","37","1","723"
"19","19","retrieval","new_object","167","B52.jpg",".",".","37","1","654"
"19","19","retrieval","old_object","168","D40.jpg",".","1","37","0","662"
"19","19","retrieval","old_object","169","C24.jpg",".","3","36","1","917"
"19","19","retrieval","old_object","170","D77.jpg",".","1","36","1","875"
"19","19","retrieval","old_object","171","D63.jpg",".","1","37","0","1149"
"19","19","retrieval","old_object","172","D19.jpg",".","1","37","0","889"
"19","19","retrieval","new_object","173","A38.jpg",".",".","37","1","743"
"19","19","retrieval","old_object","174","D14.jpg",".","1","36","1","820"
"19","19","retrieval","old_object","175","D39.jpg",".","1","36","1","762"
"19","19","retrieval","old_object","176","D73.jpg",".","1","36","1","908"
"19","19","retrieval","new_object","177","B41.jpg",".",".","37","1","936"
"19","19","retrieval","new_object","178","A76.jpg",".",".","37","1","765"
"19","19","retrieval","new_object","179","B37.jpg",".",".","37","1","701"
"19","19","retrieval","old_object","180","D51.jpg",".","1","36","1","921"
"19","19","retrieval","old_object","181","C55.jpg",".","3","36","1","871"
"19","19","retrieval","old_object","182","C35.jpg",".","3","36","1","695"
"19","19","retrieval","new_object","183","B78.jpg",".",".","37","1","700"
"19","19","retrieval","old_object","184","D57.jpg",".","1","36","1","775"
"19","19","retrieval","old_object","185","D31.jpg",".","1","37","0","752"
"19","19","retrieval","old_object","186","C6.jpg",".","3","36","1","842"
"19","19","retrieval","new_object","187","B38.jpg",".",".","37","1","794"
"19","19","retrieval","old_object","188","C11.jpg",".","3","36","1","660"
"19","19","retrieval","old_object","189","C70.jpg",".","3","36","1","707"
"19","19","retrieval","old_object","190","D20.jpg",".","1","37","0","768"
"19","19","retrieval","new_object","191","A10.jpg",".",".","36","0","1090"
"19","19","retrieval","old_object","192","C63.jpg",".","3","36","1","753"
"19","19","retrieval","new_object","193","A23.jpg",".",".","37","1","994"
"19","19","retrieval","old_object","194","C17.jpg",".","3","37","0","1158"
"19","19","retrieval","new_object","195","A50.jpg",".",".","37","1","716"
"19","19","retrieval","old_object","196","D74.jpg",".","1","36","1","712"
"19","19","retrieval","old_object","197","D41.jpg",".","1","36","1","769"
"19","19","retrieval","new_object","199","B51.jpg",".",".","37","1","785"
"19","19","retrieval","new_object","200","B32.jpg",".",".","37","1","621"
"19","19","retrieval","new_object","201","B4.jpg",".",".","37","1","611"
"19","19","retrieval","new_object","202","A56.jpg",".",".","37","1","573"
"19","19","retrieval","new_object","203","B9.jpg",".",".","37","1","807"
"19","19","retrieval","old_object","204","C39.jpg",".","3","36","1","735"
"19","19","retrieval","old_object","205","C51.jpg",".","3","36","1","661"
"19","19","retrieval","old_object","206","C71.jpg",".","3","36","1","638"
"19","19","retrieval","old_object","207","D48.jpg",".","1","36","1","652"
"19","19","retrieval","new_object","208","B53.jpg",".",".","37","1","1050"
"19","19","retrieval","new_object","209","A39.jpg",".",".","37","1","723"
"19","19","retrieval","old_object","210","C29.jpg",".","3","36","1","667"
"19","19","retrieval","old_object","211","D2.jpg",".","1","36","1","797"
"19","19","retrieval","new_object","212","B65.jpg",".",".","37","1","733"
"19","19","retrieval","new_object","213","A35.jpg",".",".","37","1","967"
"19","19","retrieval","new_object","214","B76.jpg",".",".","37","1","723"
"19","19","retrieval","new_object","215","A58.jpg",".",".","37","1","1006"
"19","19","retrieval","new_object","216","B79.jpg",".",".","37","1","587"
"19","19","retrieval","new_object","217","A36.jpg",".",".","37","1","1046"
"19","19","retrieval","new_object","218","B44.jpg",".",".","37","1","656"
"19","19","retrieval","new_object","219","A69.jpg",".",".","37","1","641"
"19","19","retrieval","new_object","220","A19.jpg",".",".","37","1","727"
"19","19","retrieval","new_object","221","B56.jpg",".",".","37","1","744"
"19","19","retrieval","old_object","222","D5.jpg",".","1","36","1","680"
"19","19","retrieval","old_object","223","D45.jpg",".","1","36","1","684"
"19","19","retrieval","old_object","224","C62.jpg",".","3","36","1","829"
"19","19","retrieval","new_object","225","A47.jpg",".",".","37","1","684"
"19","19","retrieval","new_object","226","B57.jpg",".",".","36","0","706"
"19","19","retrieval","old_object","227","C60.jpg",".","3","36","1","890"
"19","19","retrieval","new_object","228","A12.jpg",".",".","36","0","1303"
"19","19","retrieval","new_object","229","A61.jpg",".",".","37","1","684"
"19","19","retrieval","new_object","230","B28.jpg",".",".","37","1","720"
"19","19","retrieval","new_object","231","B46.jpg",".",".","37","1","804"
"19","19","retrieval","new_object","232","B18.jpg",".",".","37","1","703"
"19","19","retrieval","new_object","233","A79.jpg",".",".","37","1","792"
"19","19","retrieval","new_object","234","B7.jpg",".",".","37","1","845"
"19","19","retrieval","old_object","235","D64.jpg",".","1","36","1","672"
"19","19","retrieval","new_object","236","A32.jpg",".",".","36","0","1088"
"19","19","retrieval","old_object","237","C21.jpg",".","3","36","1","737"
"19","19","retrieval","new_object","238","A67.jpg",".",".","37","1","798"
"19","19","retrieval","new_object","239","A78.jpg",".",".","37","1","1478"
"19","19","retrieval","old_object","240","C78.jpg",".","3","36","1","861"
"19","19","retrieval","new_object","241","A34.jpg",".",".","37","1","702"
"19","19","retrieval","old_object","242","D1.jpg",".","1","37","0","738"
"19","19","retrieval","old_object","243","C40.jpg",".","3","36","1","684"
"19","19","retrieval","old_object","244","C66.jpg",".","3","36","1","585"
"19","19","retrieval","old_object","245","D43.jpg",".","1","36","1","674"
"19","19","retrieval","new_object","246","B49.jpg",".",".","37","1","664"
"19","19","retrieval","old_object","247","D52.jpg",".","1","36","1","692"
"19","19","retrieval","old_object","248","D69.jpg",".","1","36","1","771"
"19","19","retrieval","old_object","249","D49.jpg",".","1","36","1","807"
"19","19","retrieval","new_object","250","A7.jpg",".",".","37","1","686"
"19","19","retrieval","new_object","251","A72.jpg",".",".","37","1","1042"
"19","19","retrieval","old_object","252","D22.jpg",".","1","36","1","638"
"19","19","retrieval","old_object","253","D61.jpg",".","1","36","1","921"
"19","19","retrieval","new_object","254","A64.jpg",".",".","37","1","882"
"19","19","retrieval","new_object","255","B58.jpg",".",".","37","1","969"
"19","19","retrieval","old_object","256","D17.jpg",".","1","36","1","789"
"19","19","retrieval","new_object","257","B67.jpg",".",".","37","1","903"
"19","19","retrieval","old_object","258","D11.jpg",".","1","36","1","1114"
"19","19","retrieval","old_object","259","C57.jpg",".","3","36","1","779"
"19","19","retrieval","new_object","260","B14.jpg",".",".","37","1","855"
"19","19","retrieval","new_object","261","B63.jpg",".",".","37","1","1172"
"19","19","retrieval","old_object","262","D26.jpg",".","1","36","1","636"
"19","19","retrieval","new_object","263","B8.jpg",".",".","37","1","821"
"19","19","retrieval","new_object","265","B30.jpg",".",".","37","1","994"
"19","19","retrieval","old_object","266","C46.jpg",".","3","36","1","684"
"19","19","retrieval","old_object","267","C5.jpg",".","3","37","0","807"
"19","19","retrieval","new_object","268","A65.jpg",".",".","36","0","814"
"19","19","retrieval","old_object","269","D38.jpg",".","1","36","1","966"
"19","19","retrieval","new_object","270","A37.jpg",".",".","37","1","1254"
"19","19","retrieval","new_object","271","A68.jpg",".",".","37","1","1273"
"19","19","retrieval","old_object","272","C7.jpg",".","3","36","1","632"
"19","19","retrieval","new_object","273","B68.jpg",".",".","37","1","902"
"19","19","retrieval","new_object","274","B71.jpg",".",".","37","1","986"
"19","19","retrieval","new_object","275","A11.jpg",".",".","37","1","747"
"19","19","retrieval","old_object","276","C9.jpg",".","3","36","1","667"
"19","19","retrieval","new_object","277","A21.jpg",".",".","36","0","669"
"19","19","retrieval","old_object","278","D23.jpg",".","1","37","0","943"
"19","19","retrieval","old_object","279","D47.jpg",".","1","36","1","1015"
"19","19","retrieval","old_object","280","C13.jpg",".","3","36","1","668"
"19","19","retrieval","old_object","281","D18.jpg",".","1","36","1","869"
"19","19","retrieval","new_object","282","A15.jpg",".",".","37","1","765"
"19","19","retrieval","old_object","283","C15.jpg",".","3","36","1","808"
"19","19","retrieval","old_object","284","D9.jpg",".","1","36","1","618"
"19","19","retrieval","new_object","285","A17.jpg",".",".","37","1","1078"
"19","19","retrieval","new_object","286","A16.jpg",".",".","36","0","716"
"19","19","retrieval","old_object","287","D6.jpg",".","1","37","0","1039"
"19","19","retrieval","new_object","288","B2.jpg",".",".","37","1","906"
"19","19","retrieval","new_object","289","A46.jpg",".",".","37","1","825"
"19","19","retrieval","old_object","290","D53.jpg",".","1","36","1","734"
"19","19","retrieval","old_object","291","C53.jpg",".","3","36","1","686"
"19","19","retrieval","old_object","292","D36.jpg",".","1","36","1","1042"
"19","19","retrieval","new_object","293","A14.jpg",".",".","37","1","1152"
"19","19","retrieval","new_object","294","B54.jpg",".",".","37","1","846"
"19","19","retrieval","new_object","295","A5.jpg",".",".","37","1","844"
"19","19","retrieval","new_object","296","B74.jpg",".",".","36","0","806"
"19","19","retrieval","old_object","297","D29.jpg",".","1","36","1","759"
"19","19","retrieval","old_object","298","C18.jpg",".","3","36","1","882"
"19","19","retrieval","old_object","299","D66.jpg",".","1","36","1","655"
"19","19","retrieval","old_object","300","D44.jpg",".","1","36","1","634"
"19","19","retrieval","new_object","301","A57.jpg",".",".","37","1","626"
"19","19","retrieval","old_object","302","D30.jpg",".","1","36","1","699"
"19","19","retrieval","old_object","303","C44.jpg",".","3","36","1","775"
"19","19","retrieval","old_object","304","D0.jpg",".","1","36","1","723"
"19","19","retrieval","old_object","305","C54.jpg",".","3","36","1","602"
"19","19","retrieval","old_object","306","D32.jpg",".","1","37","0","886"
"19","19","retrieval","old_object","307","C16.jpg",".","3","36","1","702"
"19","19","retrieval","new_object","308","A0.jpg",".",".","37","1","882"
"19","19","retrieval","old_object","309","C69.jpg",".","3","36","1","679"
"19","19","retrieval","old_object","310","C64.jpg",".","3","36","1","584"
"19","19","retrieval","old_object","311","D4.jpg",".","1","36","1","1078"
"19","19","retrieval","new_object","312","B69.jpg",".",".","37","1","834"
"19","19","retrieval","old_object","313","C48.jpg",".","3","36","1","781"
"19","19","retrieval","old_object","314","D24.jpg",".","1","36","1","993"
"19","19","retrieval","new_object","315","A1.jpg",".",".","37","1","890"
"19","19","retrieval","new_object","316","B35.jpg",".",".","36","0","899"
"19","19","retrieval","new_object","317","B73.jpg",".",".","37","1","761"
"19","19","retrieval","old_object","318","C59.jpg",".","3","36","1","944"
"19","19","retrieval","new_object","319","B47.jpg",".",".","36","0","665"
"19","19","retrieval","old_object","320","C2.jpg",".","3","36","1","677"
"19","19","retrieval","old_object","321","C74.jpg",".","3","36","1","611"
"19","19","retrieval","old_object","322","C56.jpg",".","3","36","1","643"
"19","19","retrieval","new_object","323","B60.jpg",".",".","37","1","679"
"19","19","retrieval","old_object","324","D50.jpg",".","1","36","1","735"
"19","19","retrieval","old_object","325","D70.jpg",".","","36","1","977"
"19","19","demographics_block","gender","1",".",".",".","female","1","17886"
"19","19","demographics_block","age","1",".",".",".","55","1","17886"
"19","19","demographics_block","education","1",".",".",".","16","1","17886"
"19","19","demographics_block","left_right_handed","2",".",".",".","Right","1","9517"
"19","19","demographics_block","raceoption1","2",".",".",".","0","1","9517"
"19","19","demographics_block","raceoption2","2",".",".",".","1","1","9517"
"19","19","demographics_block","raceoption3","2",".",".",".","","1","9517"
"19","19","demographics_block","raceoption4","2",".",".",".","","1","9517"
"19","19","demographics_block","raceoption5","2",".",".",".","","1","9517"
"19","19","demographics_block","raceoption6","2",".",".",".","","1","9517"
"19","19","demographics_block","raceoption7","2",".",".",".","","1","9517"
"19","19","demographics_block","raceoption8","2",".",".",".","","1","9517"
"19","19","demographics_block","raceoption9","2",".",".",".","","1","9517"
"19","19","demographics_block","raceother","2",".",".",".","","1","9517"
"19","19","demographics_block","raceother","2",".",".",".","","1","9517"
"19","19","demographics_block","english_language","2",".",".",".","Yes","1","9517"
"19","19","demographics_block","other","2",".",".",".","","1","9517"
"19","19","demographics_block","eyesight","3",".",".",".","Yes","1","8391"
"19","19","demographics_block","colorblind","3",".",".",".","No","1","8391"
"27","27","encoding","encoding","1","C51.jpg","3",".","0","0","1000"
"27","27","encoding","encoding","2","C10.jpg","3",".","37","0","212"
"27","27","encoding","encoding","3","C54.jpg","3",".","37","0","729"
"27","27","encoding","encoding","4","D49.jpg","1",".","37","0","536"
"27","27","encoding","encoding","5","C60.jpg","3",".","37","0","817"
"27","27","encoding","encoding","6","C24.jpg","3",".","37","0","607"
"27","27","encoding","encoding","7","C25.jpg","3",".","36","0","680"
"27","27","encoding","encoding","8","C25.jpg","3",".","37","0","473"
"27","27","encoding","encoding","9","C63.jpg","3",".","37","0","509"
"27","27","encoding","encoding","10","C48.jpg","3",".","36","0","704"
"27","27","encoding","encoding","11","C56.jpg","3",".","37","0","926"
"27","27","encoding","encoding","12","C28.jpg","3",".","37","0","640"
"27","27","encoding","encoding","13","C73.jpg","3",".","36","0","664"
"27","27","encoding","encoding","14","C40.jpg","3",".","37","0","573"
"27","27","encoding","encoding","15","C42.jpg","3",".","37","0","656"
"27","27","encoding","encoding","16","C63.jpg","3",".","37","0","531"
"27","27","encoding","encoding","17","D17.jpg","1",".","37","0","728"
"27","27","encoding","encoding","18","C35.jpg","3",".","37","0","713"
"27","27","encoding","encoding","19","D73.jpg","1",".","37","0","556"
"27","27","encoding","encoding","20","C42.jpg","3",".","37","0","498"
"27","27","encoding","encoding","21","C36.jpg","3",".","37","0","658"
"27","27","encoding","encoding","22","C19.jpg","3",".","36","0","623"
"27","27","encoding","encoding","23","D77.jpg","1",".","37","0","818"
"27","27","encoding","encoding","24","C48.jpg","3",".","37","0","673"
"27","27","encoding","encoding","25","C28.jpg","3",".","37","0","611"
"27","27","encoding","encoding","26","C23.jpg","3",".","37","0","652"
"27","27","encoding","encoding","27","C47.jpg","3",".","37","0","466"
"27","27","encoding","encoding","28","C73.jpg","3",".","37","0","459"
"27","27","encoding","encoding","29","C46.jpg","3",".","37","0","628"
"27","27","encoding","encoding","30","C56.jpg","3",".","37","0","739"
"27","27","encoding","encoding","31","C10.jpg","3",".","37","0","565"
"27","27","encoding","encoding","32","C79.jpg","3",".","36","0","555"
"27","27","encoding","encoding","33","D13.jpg","1",".","37","0","598"
"27","27","encoding","encoding","34","D53.jpg","1",".","37","0","499"
"27","27","encoding","encoding","35","C37.jpg","3",".","37","0","655"
"27","27","encoding","encoding","36","C73.jpg","3",".","36","0","587"
"27","27","encoding","encoding","37","C59.jpg","3",".","37","0","626"
"27","27","encoding","encoding","38","C0.jpg","3",".","36","0","607"
"27","27","encoding","encoding","39","C7.jpg","3",".","36","0","680"
"27","27","encoding","encoding","40","C4.jpg","3",".","37","0","683"
"27","27","encoding","encoding","41","C62.jpg","3",".","37","0","571"
"27","27","encoding","encoding","42","C2.jpg","3",".","37","0","485"
"27","27","encoding","encoding","43","D11.jpg","1",".","37","0","471"
"27","27","encoding","encoding","44","C61.jpg","3",".","37","0","655"
"27","27","encoding","encoding","45","C53.jpg","3",".","37","0","748"
"27","27","encoding","encoding","46","C13.jpg","3",".","37","0","686"
"27","27","encoding","encoding","47","C17.jpg","3",".","37","0","579"
"27","27","encoding","encoding","48","C45.jpg","3",".","37","0","509"
"27","27","encoding","encoding","49","D21.jpg","1",".","37","0","399"
"27","27","encoding","encoding","50","C12.jpg","3",".","37","0","399"
"27","27","encoding","encoding","51","D29.jpg","1",".","36","0","588"
"27","27","encoding","encoding","52","C12.jpg","3",".","0","0","1000"
"27","27","encoding","encoding","53","C20.jpg","3",".","37","0","604"
"27","27","encoding","encoding","54","C32.jpg","3",".","37","0","588"
"27","27","encoding","encoding","55","C51.jpg","3",".","37","0","627"
"27","27","encoding","encoding","56","C34.jpg","3",".","37","0","623"
"27","27","encoding","encoding","57","C8.jpg","3",".","37","0","600"
"27","27","encoding","encoding","58","C21.jpg","3",".","37","0","561"
"27","27","encoding","encoding","59","C27.jpg","3",".","37","0","638"
"27","27","encoding","encoding","60","C49.jpg","3",".","37","0","533"
"27","27","encoding","encoding","61","C4.jpg","3",".","37","0","521"
"27","27","encoding","encoding","62","C39.jpg","3",".","37","0","552"
