"group","subject","blockcode","trialcode","trialnum","stimulus","encoding_condition","old_object_condition","response","correct","latency"
"13","13","encoding","encoding","1","Lens_Camera.jpg","3",".","0","0","1000"
"13","13","encoding","encoding","2","Taco.jpg","3",".","37","0","578"
"13","13","encoding","encoding","3","DartBoard.jpg","3",".","0","0","1000"
"13","13","encoding","encoding","4","Ladybug.jpg","3",".","36","0","848"
"13","13","encoding","encoding","5","Desk_White.jpg","3",".","37","0","946"
"13","13","encoding","encoding","6","Cart_Janitor.jpg","1",".","37","0","853"
"13","13","encoding","encoding","7","PencilCase.jpg","1",".","0","0","1000"
"13","13","encoding","encoding","8","SewingPin_Cushion.jpg","3",".","37","0","690"
"13","13","encoding","encoding","9","Cannon.jpg","3",".","0","0","1000"
"13","13","encoding","encoding","10","MemoPaperSpike.jpg","1",".","37","0","912"
"13","13","encoding","encoding","11","Cup_Bathroom.jpg","1",".","37","0","682"
"13","13","encoding","encoding","12","ProjectorScreen.jpg","1",".","37","0","677"
"13","13","encoding","encoding","13","Wire_ElectricalSingle.jpg","3",".","37","0","616"
"13","13","encoding","encoding","14","Bible.jpg","3",".","37","0","530"
"13","13","encoding","encoding","15","Microwave.jpg","1",".","37","0","573"
"13","13","encoding","encoding","16","Tree_Fir.jpg","3",".","36","0","776"
"13","13","encoding","encoding","17","PumiceStone.jpg","1",".","37","0","770"
"13","13","encoding","encoding","18","Hanger.jpg","1",".","37","0","709"
"13","13","encoding","encoding","19","Binder.jpg","3",".","37","0","840"
"13","13","encoding","encoding","20","Barometer.jpg","1",".","37","0","826"
"13","13","encoding","encoding","21","Branch.jpg","3",".","37","0","725"
"13","13","encoding","encoding","22","LicensePlate.jpg","1",".","37","0","680"
"13","13","encoding","encoding","23","Bat_Cricket.jpg","1",".","37","0","986"
"13","13","encoding","encoding","24","Binder.jpg","3",".","37","0","621"
"13","13","encoding","encoding","25","Mailbox_Community.jpg","3",".","37","0","784"
"13","13","encoding","encoding","26","Candy_Lozenge.jpg","1",".","37","0","794"
"13","13","encoding","encoding","27","Oars.jpg","3",".","37","0","557"
"13","13","encoding","encoding","28","CodeDoorLock.jpg","3",".","37","0","688"
"13","13","encoding","encoding","29","Mask_HockeyGoalie.jpg","3",".","37","0","714"
"13","13","encoding","encoding","30","Mask_HockeyGoalie.jpg","3",".","37","0","485"
"13","13","encoding","encoding","31","Trash_Medical.jpg","1",".","37","0","679"
"13","13","encoding","encoding","32","Lighter_Black.jpg","1",".","37","0","714"
"13","13","encoding","encoding","33","SelfieStick.jpg","3",".","37","0","749"
"13","13","encoding","encoding","34","Castle_Sand.jpg","3",".","37","0","976"
"13","13","encoding","encoding","35","Nuts_Pecan.jpg","3",".","37","0","842"
"13","13","encoding","encoding","36","Bottle_Beer.jpg","1",".","37","0","917"
"13","13","encoding","encoding","37","Statue_Man.jpg","3",".","37","0","680"
"13","13","encoding","encoding","38","DartBoard.jpg","3",".","37","0","506"
"13","13","encoding","encoding","39","RAMchip.jpg","3",".","37","0","661"
"13","13","encoding","encoding","40","GasStation.jpg","1",".","37","0","672"
"13","13","encoding","encoding","41","Toy_Truck.jpg","3",".","37","0","482"
"13","13","encoding","encoding","42","Arch_Triomphe.jpg","3",".","37","0","477"
"13","13","encoding","encoding","43","Binder.jpg","3",".","37","0","616"
"13","13","encoding","encoding","44","ManholeCover.jpg","3",".","37","0","546"
"13","13","encoding","encoding","45","Stove_WithOven.jpg","3",".","37","0","541"
"13","13","encoding","encoding","46","Mask_HockeyGoalie.jpg","3",".","37","0","512"
"13","13","encoding","encoding","47","RAMchip.jpg","3",".","37","0","586"
"13","13","encoding","encoding","48","Bowl_Glass.jpg","3",".","37","0","813"
"13","13","encoding","encoding","49","SolderingIron.jpg","3",".","37","0","920"
"13","13","encoding","encoding","50","PocketKnife.jpg","1",".","37","0","530"
"13","13","encoding","encoding","51","Toy_PandaPlushie.jpg","1",".","0","0","1000"
"13","13","encoding","encoding","52","Weathervane.jpg","3",".","37","0","632"
"13","13","encoding","encoding","53","Mask_Ski.jpg","1",".","37","0","962"
"13","13","encoding","encoding","54","Tree_Fir.jpg","3",".","36","0","733"
"13","13","encoding","encoding","55","Corkboard.jpg","3",".","37","0","512"
"13","13","encoding","encoding","56","Desk_White.jpg","3",".","37","0","546"
"13","13","encoding","encoding","57","Stove_WithOven.jpg","3",".","37","0","493"
"13","13","encoding","encoding","58","Mug_Travel.jpg","3",".","37","0","464"
"13","13","encoding","encoding","59","Garlic_Whole.jpg","3",".","36","0","698"
"13","13","encoding","encoding","60","PulleyWooden.jpg","1",".","37","0","661"
"13","13","encoding","encoding","61","Bandage_Adhesive.jpg","3",".","37","0","623"
"13","13","encoding","encoding","62","SolderingIron.jpg","3",".","37","0","554"
"13","13","encoding","encoding","63","Light_Halogen.jpg","3",".","37","0","517"
"13","13","encoding","encoding","64","House_Wooden.jpg","3",".","37","0","584"
"13","13","encoding","encoding","65","Lollipop_Rainbow.jpg","3",".","37","0","514"
"13","13","encoding","encoding","67","Walker_Blue.jpg","3",".","37","0","669"
"13","13","encoding","encoding","68","Thermometer_Room.jpg","3",".","0","0","1000"
"13","13","encoding","encoding","69","TailLight.jpg","1",".","37","0","723"
"13","13","encoding","encoding","70","Oars.jpg","3",".","37","0","501"
"13","13","encoding","encoding","71","Gecko.jpg","3",".","36","0","768"
"13","13","encoding","encoding","72","Aquarium.jpg","3",".","36","0","811"
"13","13","encoding","encoding","73","Toy_Truck.jpg","3",".","37","0","629"
"13","13","encoding","encoding","74","LifeJacket_Orangejpg.jpg","3",".","0","0","1000"
"13","13","encoding","encoding","75","Bag_Diaper.jpg","3",".","37","0","499"
"13","13","encoding","encoding","76","Bark.jpg","3",".","36","0","894"
"13","13","encoding","encoding","77","Clock_Interior.jpg","3",".","37","0","496"
"13","13","encoding","encoding","78","Bread_Carrot.jpg","3",".","36","0","627"
"13","13","encoding","encoding","79","Desk_White.jpg","3",".","37","0","589"
"13","13","encoding","encoding","80","Scythe.jpg","3",".","37","0","576"
"13","13","encoding","encoding","81","Bible.jpg","3",".","37","0","531"
"13","13","encoding","encoding","82","DogSled.jpg","1",".","0","0","1000"
"13","13","encoding","encoding","83","RAMchip.jpg","3",".","37","0","664"
"13","13","encoding","encoding","84","Light_Fixtures.jpg","3",".","37","0","795"
"13","13","encoding","encoding","85","Stool_Metal.jpg","3",".","37","0","717"
"13","13","encoding","encoding","86","Mug_Travel.jpg","3",".","37","0","448"
"13","13","encoding","encoding","87","Stool_Metal.jpg","3",".","37","0","451"
"13","13","encoding","encoding","88","Brush_Light.jpg","1",".","37","0","605"
"13","13","encoding","encoding","89","Van.jpg","3",".","37","0","496"
"13","13","encoding","encoding","90","Backpack_Suitcase.jpg","3",".","37","0","427"
"13","13","encoding","encoding","91","Toy_LambPlushie.jpg","3",".","37","0","662"
"13","13","encoding","encoding","92","Lens_Camera.jpg","3",".","37","0","568"
"13","13","encoding","encoding","93","Umbrella_Classic.jpg","3",".","37","0","435"
"13","13","encoding","encoding","94","Hockey_Puck.jpg","1",".","37","0","485"
"13","13","encoding","encoding","95","BumperCar.jpg","3",".","37","0","600"
"13","13","encoding","encoding","96","Aquarium.jpg","3",".","36","0","755"
"13","13","encoding","encoding","97","Bleachers.jpg","3",".","37","0","662"
"13","13","encoding","encoding","98","Bleachers.jpg","3",".","37","0","504"
"13","13","encoding","encoding","99","WateringCan_Antique.jpg","3",".","37","0","491"
"13","13","encoding","encoding","100","Bus_School.jpg","1",".","37","0","461"
"13","13","encoding","encoding","101","Box_FirstAid.jpg","1",".","37","0","568"
"13","13","encoding","encoding","102","sign_traffic.jpg","3",".","37","0","435"
"13","13","encoding","encoding","103","Compact_Mirror.jpg","1",".","37","0","533"
"13","13","encoding","encoding","104","Cannon.jpg","3",".","37","0","472"
"13","13","encoding","encoding","105","Bag_Diaper.jpg","3",".","37","0","555"
"13","13","encoding","encoding","106","Bucket_Halloween.jpg","1",".","37","0","645"
"13","13","encoding","encoding","107","Lollipop_Rainbow.jpg","3",".","37","0","704"
"13","13","encoding","encoding","108","Walker_Blue.jpg","3",".","37","0","547"
"13","13","encoding","encoding","109","SelfieStick.jpg","3",".","37","0","653"
"13","13","encoding","encoding","110","House_Wooden.jpg","3",".","37","0","601"
"13","13","encoding","encoding","111","Helmet_Football.jpg","3",".","37","0","451"
"13","13","encoding","encoding","112","AirCompressor.jpg","3",".","37","0","453"
"13","13","encoding","encoding","113","Van.jpg","3",".","37","0","480"
"13","13","encoding","encoding","114","Bowl_Glass.jpg","3",".","37","0","587"
"13","13","encoding","encoding","115","Walker_Blue.jpg","3",".","37","0","437"
"13","13","encoding","encoding","116","Toy_LambPlushie.jpg","3",".","37","0","512"
"13","13","encoding","encoding","117","Weathervane.jpg","3",".","37","0","627"
"13","13","encoding","encoding","118","ManholeCover.jpg","3",".","37","0","493"
"13","13","encoding","encoding","119","Television.jpg","3",".","37","0","688"
"13","13","encoding","encoding","120","WaterWell.jpg","3",".","37","0","771"
"13","13","encoding","encoding","121","HairCurler.jpg","1",".","37","0","709"
"13","13","encoding","encoding","122","Barometer_Wood.jpg","3",".","37","0","672"
"13","13","encoding","encoding","123","SelfieStick.jpg","3",".","37","0","523"
"13","13","encoding","encoding","124","Bread_Carrot.jpg","3",".","37","0","973"
"13","13","encoding","encoding","125","Envelope_Manila.jpg","3",".","0","0","1000"
"13","13","encoding","encoding","126","Bandage_Adhesive.jpg","3",".","37","0","555"
"13","13","encoding","encoding","127","Tube_Glue.jpg","1",".","37","0","629"
"13","13","encoding","encoding","128","Thermometer_Room.jpg","3",".","37","0","544"
"13","13","encoding","encoding","129","Toolbox_BlackOpen.jpg","3",".","37","0","483"
"13","13","encoding","encoding","130","Milkshake_Strawberry.jpg","1",".","37","0","885"
"13","13","encoding","encoding","131","CodeDoorLock.jpg","3",".","37","0","752"
"13","13","encoding","encoding","133","Stove_WithOven.jpg","3",".","37","0","693"
"13","13","encoding","encoding","134","Carabiner_Orange.jpg","3",".","37","0","623"
"13","13","encoding","encoding","135","AirPump.jpg","1",".","37","0","482"
"13","13","encoding","encoding","136","SewingPin_Cushion.jpg","3",".","37","0","405"
"13","13","encoding","encoding","137","Bark.jpg","3",".","37","0","423"
"13","13","encoding","encoding","138","DoubleBass.jpg","1",".","37","0","634"
"13","13","encoding","encoding","139","WaterWell.jpg","3",".","37","0","614"
"13","13","encoding","encoding","140","Umbrella_Classic.jpg","3",".","37","0","759"
"13","13","encoding","encoding","141","Tube_Paint.jpg","1",".","37","0","810"
"13","13","encoding","encoding","142","Cinnamonroll.jpg","1",".","0","0","1000"
"13","13","encoding","encoding","143","Taco.jpg","3",".","36","0","983"
"13","13","encoding","encoding","144","ManholeCover.jpg","3",".","37","0","690"
"13","13","encoding","encoding","145","Light_Fixtures.jpg","3",".","37","0","685"
"13","13","encoding","encoding","146","WateringCan_Antique.jpg","3",".","37","0","567"
"13","13","encoding","encoding","147","Chair_Office.jpg","3",".","37","0","562"
"13","13","encoding","encoding","148","Television.jpg","3",".","37","0","613"
"13","13","encoding","encoding","149","Chair_Office.jpg","3",".","37","0","511"
"13","13","encoding","encoding","150","Barometer_Wood.jpg","3",".","37","0","410"
"13","13","encoding","encoding","151","House_Wooden.jpg","3",".","37","0","508"
"13","13","encoding","encoding","152","PyramidWooden.jpg","3",".","36","0","959"
"13","13","encoding","encoding","153","Bread_Melon.jpg","1",".","0","0","1000"
"13","13","encoding","encoding","154","WaterWell.jpg","3",".","37","0","901"
"13","13","encoding","encoding","155","MetalDetector.jpg","1",".","37","0","703"
"13","13","encoding","encoding","156","Lens_Camera.jpg","3",".","37","0","506"
"13","13","encoding","encoding","157","Spear.jpg","3",".","37","0","557"
"13","13","encoding","encoding","158","Makeup_Compact.jpg","3",".","37","0","703"
"13","13","encoding","encoding","159","HoseNozzle.jpg","1",".","37","0","594"
"13","13","encoding","encoding","160","Clave.jpg","1",".","37","0","580"
"13","13","encoding","encoding","161","Helmet_Football.jpg","3",".","37","0","495"
"13","13","encoding","encoding","162","Mug_Travel.jpg","3",".","37","0","522"
"13","13","encoding","encoding","163","CodeDoorLock.jpg","3",".","37","0","509"
"13","13","encoding","encoding","164","Hedgehog.jpg","3",".","36","0","783"
"13","13","encoding","encoding","165","Branch.jpg","3",".","36","0","818"
"13","13","encoding","encoding","166","Ship_Cruise.jpg","1",".","0","0","1000"
"13","13","encoding","encoding","167","BumperCar.jpg","3",".","37","0","607"
"13","13","encoding","encoding","168","Hat_Colonial.jpg","1",".","37","0","594"
"13","13","encoding","encoding","169","Hubcap.jpg","1",".","37","0","453"
"13","13","encoding","encoding","170","AirCompressor.jpg","3",".","37","0","504"
"13","13","encoding","encoding","171","Scythe.jpg","3",".","37","0","578"
"13","13","encoding","encoding","172","Can_Oblong.jpg","1",".","37","0","461"
"13","13","encoding","encoding","173","FireAlarm.jpg","3",".","37","0","447"
"13","13","encoding","encoding","174","Statue_Horse.jpg","1",".","37","0","722"
"13","13","encoding","encoding","175","Amp.jpg","1",".","37","0","445"
"13","13","encoding","encoding","176","SofaAntique.jpg","3",".","37","0","455"
"13","13","encoding","encoding","177","Oars.jpg","3",".","37","0","443"
"13","13","encoding","encoding","178","Cable_JumpStart.jpg","3",".","37","0","548"
"13","13","encoding","encoding","179","Mailbox_Community.jpg","3",".","37","0","599"
"13","13","encoding","encoding","180","TortillaChip.jpg","3",".","37","0","834"
"13","13","encoding","encoding","181","Makeup_Compact.jpg","3",".","37","0","908"
"13","13","encoding","encoding","182","LifeJacket_Orangejpg.jpg","3",".","37","0","543"
"13","13","encoding","encoding","183","Platter_Vegetables.jpg","1",".","0","0","1000"
"13","13","encoding","encoding","184","Arch_Triomphe.jpg","3",".","37","0","948"
"13","13","encoding","encoding","185","Light_Studio.jpg","1",".","0","0","1000"
"13","13","encoding","encoding","186","Bread_Carrot.jpg","3",".","0","0","1000"
"13","13","encoding","encoding","187","Cassette_Video.jpg","3",".","0","0","1000"
"13","13","encoding","encoding","188","Bleachers.jpg","3",".","37","0","567"
"13","13","encoding","encoding","189","SofaAntique.jpg","3",".","37","0","394"
"13","13","encoding","encoding","190","Cake_Cheese.jpg","1",".","37","0","909"
"13","13","encoding","encoding","191","Mailbox_Community.jpg","3",".","37","0","687"
"13","13","encoding","encoding","192","Wire_ElectricalSingle.jpg","3",".","37","0","482"
"13","13","encoding","encoding","193","Corkboard.jpg","3",".","37","0","556"
"13","13","encoding","encoding","194","Fork_Regular.jpg","1",".","37","0","663"
"13","13","encoding","encoding","195","Nuts_Pecan.jpg","3",".","37","0","962"
"13","13","encoding","encoding","196","SofaAntique.jpg","3",".","37","0","629"
"13","13","encoding","encoding","197","FireAlarm.jpg","3",".","37","0","551"
"13","13","encoding","encoding","199","BumperCar.jpg","3",".","37","0","569"
"13","13","encoding","encoding","200","Cymbals.jpg","3",".","37","0","500"
"13","13","encoding","encoding","201","Mailbox_Antique.jpg","3",".","37","0","438"
"13","13","encoding","encoding","202","Cannon.jpg","3",".","37","0","457"
"13","13","encoding","encoding","203","Wire_ElectricalSingle.jpg","3",".","37","0","419"
"13","13","encoding","encoding","204","TortillaChip.jpg","3",".","37","0","966"
"13","13","encoding","encoding","205","Carabiner_Orange.jpg","3",".","37","0","641"
"13","13","encoding","encoding","206","Stool_Metal.jpg","3",".","37","0","475"
"13","13","encoding","encoding","207","Backpack_Suitcase.jpg","3",".","37","0","446"
"13","13","encoding","encoding","208","Garlic_Whole.jpg","3",".","36","0","665"
"13","13","encoding","encoding","209","Envelope_Manila.jpg","3",".","37","0","395"
"13","13","encoding","encoding","210","PyramidWooden.jpg","3",".","37","0","399"
"13","13","encoding","encoding","211","Weathervane.jpg","3",".","37","0","528"
"13","13","encoding","encoding","212","Chair_Office.jpg","3",".","37","0","579"
"13","13","encoding","encoding","213","Gecko.jpg","3",".","36","0","798"
"13","13","encoding","encoding","214","LifeJacket_Orangejpg.jpg","3",".","37","0","568"
"13","13","encoding","encoding","215","Gecko.jpg","3",".","36","0","771"
"13","13","encoding","encoding","216","Handbag.jpg","1",".","37","0","510"
"13","13","encoding","encoding","217","Sign_Construction.jpg","1",".","37","0","592"
"13","13","encoding","encoding","218","Backpack_Suitcase.jpg","3",".","37","0","491"
"13","13","encoding","encoding","219","Spatula.jpg","3",".","37","0","678"
"13","13","encoding","encoding","220","Bone.jpg","1",".","36","0","824"
"13","13","encoding","encoding","221","Cable_JumpStart.jpg","3",".","37","0","547"
"13","13","encoding","encoding","222","Bark.jpg","3",".","36","0","750"
"13","13","encoding","encoding","223","Bowl_Glass.jpg","3",".","37","0","488"
"13","13","encoding","encoding","224","Table_Saw.jpg","1",".","37","0","459"
"13","13","encoding","encoding","225","Nuts_Pecan.jpg","3",".","36","0","822"
"13","13","encoding","encoding","226","Bible.jpg","3",".","37","0","537"
"13","13","encoding","encoding","227","sign_traffic.jpg","3",".","37","0","643"
"13","13","encoding","encoding","228","Bread_Roll.jpg","1",".","36","0","886"
"13","13","encoding","encoding","229","CoffeeLid.jpg","1",".","37","0","512"
"13","13","encoding","encoding","230","Cymbals.jpg","3",".","37","0","531"
"13","13","encoding","encoding","231","MechanicalSpring.jpg","3",".","37","0","766"
"13","13","encoding","encoding","232","Carabiner_Orange.jpg","3",".","37","0","936"
"13","13","encoding","encoding","233","Mailbox_Antique.jpg","3",".","37","0","747"
"13","13","encoding","encoding","234","Garlic_Whole.jpg","3",".","36","0","854"
"13","13","encoding","encoding","235","Corkboard.jpg","3",".","37","0","592"
"13","13","encoding","encoding","236","Scythe.jpg","3",".","37","0","571"
"13","13","encoding","encoding","237","Briefcase_Silver.jpg","1",".","37","0","486"
"13","13","encoding","encoding","238","SatelliteDish.jpg","1",".","37","0","417"
"13","13","encoding","encoding","239","Toy_MerryGoRound.jpg","3",".","37","0","563"
"13","13","encoding","encoding","240","MechanicalSpring.jpg","3",".","37","0","447"
"13","13","encoding","encoding","241","PyramidWooden.jpg","3",".","37","0","986"
"13","13","encoding","encoding","242","Cymbals.jpg","3",".","37","0","916"
"13","13","encoding","encoding","243","AirCompressor.jpg","3",".","37","0","623"
"13","13","encoding","encoding","244","Crab.jpg","1",".","36","0","696"
"13","13","encoding","encoding","245","Television.jpg","3",".","37","0","427"
"13","13","encoding","encoding","246","Mailbox_Antique.jpg","3",".","37","0","438"
"13","13","encoding","encoding","247","Toy_Truck.jpg","3",".","37","0","488"
"13","13","encoding","encoding","248","Bread_Loaf.jpg","1",".","36","0","772"
"13","13","encoding","encoding","249","Toy_Lizard.jpg","3",".","37","0","455"
"13","13","encoding","encoding","250","Light_Fixtures.jpg","3",".","37","0","689"
"13","13","encoding","encoding","251","DartBoard.jpg","3",".","37","0","676"
"13","13","encoding","encoding","252","Barbecue_Charcoal.jpg","1",".","37","0","526"
"13","13","encoding","encoding","253","Toy_MerryGoRound.jpg","3",".","37","0","457"
"13","13","encoding","encoding","254","Cable_JumpStart.jpg","3",".","37","0","571"
"13","13","encoding","encoding","255","Bird_Duck.jpg","3",".","36","0","735"
"13","13","encoding","encoding","256","Spear.jpg","3",".","37","0","577"
"13","13","encoding","encoding","257","Light_Halogen.jpg","3",".","37","0","524"
"13","13","encoding","encoding","258","Canister_Oil.jpg","1",".","37","0","582"
"13","13","encoding","encoding","259","Aquarium.jpg","3",".","36","0","807"
"13","13","encoding","encoding","260","Toy_MerryGoRound.jpg","3",".","37","0","508"
"13","13","encoding","encoding","261","Toolbox_BlackOpen.jpg","3",".","37","0","439"
"13","13","encoding","encoding","262","Statue_Man.jpg","3",".","37","0","544"
"13","13","encoding","encoding","263","FireAlarm.jpg","3",".","37","0","539"
"13","13","encoding","encoding","265","Lollipop_Rainbow.jpg","3",".","37","0","826"
"13","13","encoding","encoding","266","SolderingWire.jpg","1",".","37","0","540"
"13","13","encoding","encoding","267","Heelpad.jpg","1",".","37","0","983"
"13","13","encoding","encoding","268","Taco.jpg","3",".","37","0","817"
"13","13","encoding","encoding","269","Toy_LambPlushie.jpg","3",".","37","0","620"
"13","13","encoding","encoding","270","Earring_Hoop.jpg","1",".","37","0","455"
"13","13","encoding","encoding","271","Castle_Sand.jpg","3",".","0","0","1000"
"13","13","encoding","encoding","272","Arch_Triomphe.jpg","3",".","37","0","956"
"13","13","encoding","encoding","273","Envelope_Manila.jpg","3",".","37","0","542"
"13","13","encoding","encoding","274","Clock_Interior.jpg","3",".","37","0","513"
"13","13","encoding","encoding","275","Thermometer_Room.jpg","3",".","37","0","653"
"13","13","encoding","encoding","276","MousepadAndMouse.jpg","1",".","37","0","503"
"13","13","encoding","encoding","277","Radish.jpg","1",".","36","0","673"
"13","13","encoding","encoding","278","Acorn.jpg","1",".","36","0","788"
"13","13","encoding","encoding","279","Bandage_Adhesive.jpg","3",".","37","0","567"
"13","13","encoding","encoding","280","Toolbox_BlackOpen.jpg","3",".","37","0","577"
"13","13","encoding","encoding","281","Clock_Interior.jpg","3",".","37","0","589"
"13","13","encoding","encoding","282","Cassette_Video.jpg","3",".","37","0","463"
"13","13","encoding","encoding","283","WateringCan_Antique.jpg","3",".","37","0","498"
"13","13","encoding","encoding","284","Case_Pencil.jpg","1",".","37","0","557"
"13","13","encoding","encoding","285","Lantern_Chinese.jpg","1",".","37","0","495"
"13","13","encoding","encoding","286","Ladybug.jpg","3",".","36","0","641"
"13","13","encoding","encoding","287","Bird_Duck.jpg","3",".","36","0","780"
"13","13","encoding","encoding","288","IceCream_Popsicle.jpg","1",".","37","0","894"
"13","13","encoding","encoding","289","Van.jpg","3",".","37","0","594"
"13","13","encoding","encoding","290","Castle_Sand.jpg","3",".","37","0","732"
"13","13","encoding","encoding","291","SolderingIron.jpg","3",".","37","0","551"
"13","13","encoding","encoding","292","Hedgehog.jpg","3",".","36","0","714"
"13","13","encoding","encoding","293","Candy_Toffee.jpg","1",".","37","0","909"
"13","13","encoding","encoding","294","Jar_Honey.jpg","1",".","0","0","1000"
"13","13","encoding","encoding","295","Spatula.jpg","3",".","0","0","1000"
"13","13","encoding","encoding","296","sign_traffic.jpg","3",".","37","0","596"
"13","13","encoding","encoding","297","Bag_Diaper.jpg","3",".","37","0","438"
"13","13","encoding","encoding","298","Toy_Lizard.jpg","3",".","36","0","666"
"13","13","encoding","encoding","299","Branch.jpg","3",".","36","0","988"
"13","13","encoding","encoding","300","Carousel.jpg","1",".","37","0","742"
"13","13","encoding","encoding","301","Makeup_Compact.jpg","3",".","37","0","586"
"13","13","encoding","encoding","302","Stone_AncientWriting.jpg","1",".","37","0","796"
"13","13","encoding","encoding","303","Statue_Man.jpg","3",".","37","0","487"
"13","13","encoding","encoding","304","Toy_Lizard.jpg","3",".","36","0","698"
"13","13","encoding","encoding","305","PagodaModel.jpg","1",".","37","0","861"
"13","13","encoding","encoding","306","Helmet_Motorcycle.jpg","1",".","37","0","663"
"13","13","encoding","encoding","307","Helmet_Football.jpg","3",".","37","0","425"
"13","13","encoding","encoding","308","TortillaChip.jpg","3",".","37","0","755"
"13","13","encoding","encoding","309","Wontons.jpg","1",".","0","0","1000"
"13","13","encoding","encoding","310","Glass_Beer.jpg","1",".","0","0","1000"
"13","13","encoding","encoding","311","Flags_CheckeredRacing.jpg","1",".","37","0","652"
"13","13","encoding","encoding","312","Spatula.jpg","3",".","37","0","926"
"13","13","encoding","encoding","313","Bird_Duck.jpg","3",".","36","0","745"
"13","13","encoding","encoding","314","Hedgehog.jpg","3",".","36","0","612"
"13","13","encoding","encoding","315","Spear.jpg","3",".","37","0","590"
"13","13","encoding","encoding","316","Light_Halogen.jpg","3",".","37","0","634"
"13","13","encoding","encoding","317","Cassette_Video.jpg","3",".","37","0","547"
"13","13","encoding","encoding","318","CarSuspension.jpg","1",".","37","0","558"
"13","13","encoding","encoding","319","Ladybug.jpg","3",".","36","0","762"
"13","13","encoding","encoding","320","SewingPin_Cushion.jpg","3",".","37","0","956"
"13","13","encoding","encoding","321","Barometer_Wood.jpg","3",".","37","0","655"
"13","13","encoding","encoding","322","Umbrella_Classic.jpg","3",".","37","0","498"
"13","13","encoding","encoding","323","MechanicalSpring.jpg","3",".","37","0","436"
"13","13","encoding","encoding","324","Tree_Fir.jpg","3",".","36","0","638"
"13","13","encoding","encoding","325","Lens_Camera.jpg","",".","37","0","682"
"13","13","retrieval","new_object","1","Sandwich_Ham.jpg",".",".","37","1","822"
"13","13","retrieval","new_object","2","RadioactiveContainer.jpg",".",".","37","1","1610"
"13","13","retrieval","old_object","3","Makeup_Compact.jpg",".","3","36","1","804"
"13","13","retrieval","new_object","4","Dog_Bulldog.jpg",".",".","37","1","791"
"13","13","retrieval","old_object","5","Glass_Beer.jpg",".","1","36","1","1218"
"13","13","retrieval","old_object","6","SofaAntique.jpg",".","3","36","1","780"
"13","13","retrieval","old_object","7","Earring_Hoop.jpg",".","1","36","1","767"
"13","13","retrieval","old_object","8","Lens_Camera.jpg",".","3","36","1","1305"
"13","13","retrieval","new_object","9","OperaGlasses.jpg",".",".","37","1","836"
"13","13","retrieval","new_object","10","Bicycle_Kids.jpg",".",".","37","1","1111"
"13","13","retrieval","old_object","11","IceCream_Popsicle.jpg",".","1","36","1","858"
"13","13","retrieval","new_object","12","Puzzle_Animal.jpg",".",".","37","1","900"
"13","13","retrieval","old_object","13","Bus_School.jpg",".","1","36","1","1198"
"13","13","retrieval","new_object","14","ColoringSet.jpg",".",".","37","1","746"
"13","13","retrieval","old_object","15","Van.jpg",".","3","36","1","1124"
"13","13","retrieval","old_object","16","PocketKnife.jpg",".","1","36","1","1167"
"13","13","retrieval","old_object","17","Ladybug.jpg",".","3","36","1","842"
"13","13","retrieval","new_object","18","IroningBoard.jpg",".",".","37","1","843"
"13","13","retrieval","new_object","19","PaperCutter.jpg",".",".","36","0","983"
"13","13","retrieval","new_object","20","Seeder.jpg",".",".","37","1","1074"
"13","13","retrieval","old_object","21","Briefcase_Silver.jpg",".","1","37","0","1084"
"13","13","retrieval","new_object","22","Protractor.jpg",".",".","37","1","871"
"13","13","retrieval","old_object","23","Scythe.jpg",".","3","36","1","961"
"13","13","retrieval","new_object","24","Pear_Green.jpg",".",".","37","1","1036"
"13","13","retrieval","old_object","25","Gecko.jpg",".","3","36","1","1151"
"13","13","retrieval","old_object","26","Taco.jpg",".","3","36","1","818"
"13","13","retrieval","old_object","27","Handbag.jpg",".","1","37","0","747"
"13","13","retrieval","old_object","28","Box_FirstAid.jpg",".","1","37","0","1807"
"13","13","retrieval","new_object","29","Card_TwoSpade.jpg",".",".","37","1","922"
"13","13","retrieval","new_object","30","Bucket_WoodenLight.jpg",".",".","37","1","580"
"13","13","retrieval","new_object","31","Toy_Christmastree.jpg",".",".","37","1","791"
"13","13","retrieval","old_object","32","Statue_Man.jpg",".","3","36","1","890"
"13","13","retrieval","old_object","33","AirCompressor.jpg",".","3","36","1","1035"
"13","13","retrieval","new_object","34","Ruler_Wooden.jpg",".",".","37","1","807"
"13","13","retrieval","old_object","35","Bleachers.jpg",".","3","36","1","906"
"13","13","retrieval","old_object","36","MetalDetector.jpg",".","1","37","0","1348"
"13","13","retrieval","old_object","37","Cart_Janitor.jpg",".","1","37","0","1599"
"13","13","retrieval","old_object","38","Bark.jpg",".","3","36","1","930"
"13","13","retrieval","new_object","39","ShinPads.jpg",".",".","37","1","972"
"13","13","retrieval","new_object","40","Cloud.jpg",".",".","37","1","1231"
"13","13","retrieval","new_object","41","VacuumHose.jpg",".",".","37","1","970"
"13","13","retrieval","old_object","42","Barometer_Wood.jpg",".","3","36","1","923"
"13","13","retrieval","old_object","43","LicensePlate.jpg",".","1","36","1","959"
"13","13","retrieval","new_object","44","Drum_Ramadan.jpg",".",".","37","1","872"
"13","13","retrieval","new_object","45","PaperTowel_Brown.jpg",".",".","37","1","1244"
"13","13","retrieval","new_object","46","Barrel_Wine.jpg",".",".","37","1","1279"
"13","13","retrieval","old_object","47","Aquarium.jpg",".","3","36","1","911"
"13","13","retrieval","new_object","48","Sink_Kitchen.jpg",".",".","37","1","731"
"13","13","retrieval","new_object","49","MatchBook.jpg",".",".","37","1","1078"
"13","13","retrieval","old_object","50","Weathervane.jpg",".","3","36","1","801"
"13","13","retrieval","old_object","51","Clock_Interior.jpg",".","3","36","1","996"
"13","13","retrieval","old_object","52","PumiceStone.jpg",".","1","36","1","951"
"13","13","retrieval","old_object","53","CoffeeLid.jpg",".","1","37","0","984"
"13","13","retrieval","old_object","54","HoseNozzle.jpg",".","1","36","1","852"
"13","13","retrieval","old_object","55","Castle_Sand.jpg",".","3","36","1","830"
"13","13","retrieval","new_object","56","LintRemover.jpg",".",".","37","1","1033"
"13","13","retrieval","new_object","57","Cologne.jpg",".",".","37","1","820"
"13","13","retrieval","old_object","58","Table_Saw.jpg",".","1","36","1","1574"
"13","13","retrieval","new_object","59","Broccoli.jpg",".",".","37","1","841"
"13","13","retrieval","old_object","60","Desk_White.jpg",".","3","36","1","955"
"13","13","retrieval","old_object","61","Tube_Paint.jpg",".","1","36","1","1110"
"13","13","retrieval","new_object","62","Card_Deck.jpg",".",".","37","1","889"
"13","13","retrieval","old_object","63","Corkboard.jpg",".","3","36","1","819"
"13","13","retrieval","old_object","64","AirPump.jpg",".","1","37","0","1158"
"13","13","retrieval","new_object","65","Puffin.jpg",".",".","37","1","929"
"13","13","retrieval","old_object","67","Bandage_Adhesive.jpg",".","3","36","1","886"
"13","13","retrieval","new_object","68","Dice.jpg",".",".","37","1","961"
"13","13","retrieval","new_object","69","IceCubes.jpg",".",".","37","1","1435"
"13","13","retrieval","new_object","70","WaterCooler.jpg",".",".","37","1","830"
"13","13","retrieval","old_object","71","Crab.jpg",".","1","36","1","697"
"13","13","retrieval","old_object","72","LifeJacket_Orangejpg.jpg",".","3","36","1","819"
"13","13","retrieval","old_object","73","Cake_Cheese.jpg",".","1","36","1","774"
"13","13","retrieval","old_object","74","sign_traffic.jpg",".","3","36","1","745"
"13","13","retrieval","old_object","75","Toy_LambPlushie.jpg",".","3","36","1","1506"
"13","13","retrieval","new_object","76","Bagpipes.jpg",".",".","37","1","822"
"13","13","retrieval","old_object","77","DogSled.jpg",".","1","36","1","953"
"13","13","retrieval","old_object","78","Bowl_Glass.jpg",".","3","36","1","850"
"13","13","retrieval","new_object","79","Otoscope.jpg",".",".","37","1","1070"
"13","13","retrieval","new_object","80","VinylRecord.jpg",".",".","37","1","1065"
"13","13","retrieval","old_object","81","Cable_JumpStart.jpg",".","3","36","1","931"
"13","13","retrieval","new_object","82","Mat_Bamboo.jpg",".",".","37","1","797"
"13","13","retrieval","old_object","83","DartBoard.jpg",".","3","36","1","1209"
"13","13","retrieval","old_object","84","Mask_Ski.jpg",".","1","36","1","1163"
"13","13","retrieval","old_object","85","Garlic_Whole.jpg",".","3","36","1","782"
"13","13","retrieval","old_object","86","House_Wooden.jpg",".","3","36","1","761"
"13","13","retrieval","old_object","87","DoubleBass.jpg",".","1","36","1","795"
"13","13","retrieval","new_object","88","Flashlight.jpg",".",".","37","1","1486"
"13","13","retrieval","new_object","89","Heater_ElectricUpright.jpg",".",".","37","1","1177"
"13","13","retrieval","old_object","90","Bucket_Halloween.jpg",".","1","36","1","1611"
"13","13","retrieval","old_object","91","Clave.jpg",".","1","37","0","1126"
"13","13","retrieval","new_object","92","Stool_Camping.jpg",".",".","37","1","1041"
"13","13","retrieval","old_object","93","SolderingIron.jpg",".","3","36","1","866"
"13","13","retrieval","old_object","94","Stool_Metal.jpg",".","3","36","1","758"
"13","13","retrieval","new_object","95","Toy_Taxi.jpg",".",".","37","1","721"
"13","13","retrieval","new_object","96","Bowl_Chopsticks.jpg",".",".","37","1","1955"
"13","13","retrieval","old_object","97","Tube_Glue.jpg",".","1","37","0","1062"
"13","13","retrieval","new_object","98","Toy_Dog.jpg",".",".","37","1","1473"
"13","13","retrieval","new_object","99","Shirt_Tshirt.jpg",".",".","37","1","1075"
"13","13","retrieval","new_object","100","Glove_Baseball.jpg",".",".","37","1","910"
"13","13","retrieval","new_object","101","Hat_Police.jpg",".",".","37","1","1017"
"13","13","retrieval","new_object","102","Speakers_Theatre.jpg",".",".","37","1","1411"
"13","13","retrieval","new_object","103","Lips_Wax.jpg",".",".","37","1","1758"
"13","13","retrieval","new_object","104","RecorderInstrument.jpg",".",".","37","1","1121"
"13","13","retrieval","old_object","105","Backpack_Suitcase.jpg",".","3","37","0","1379"
"13","13","retrieval","old_object","106","Television.jpg",".","3","36","1","1198"
"13","13","retrieval","old_object","107","Branch.jpg",".","3","36","1","929"
"13","13","retrieval","old_object","108","Arch_Triomphe.jpg",".","3","36","1","955"
"13","13","retrieval","new_object","109","Candleholder_LampShaped.jpg",".",".","37","1","830"
"13","13","retrieval","old_object","110","Acorn.jpg",".","1","36","1","1033"
"13","13","retrieval","new_object","111","Match.jpg",".",".","37","1","1131"
"13","13","retrieval","new_object","112","Boat_Colourful.jpg",".",".","37","1","1294"
"13","13","retrieval","old_object","113","WaterWell.jpg",".","3","36","1","897"
"13","13","retrieval","new_object","114","BowlingPin.jpg",".",".","37","1","899"
"13","13","retrieval","old_object","115","Envelope_Manila.jpg",".","3","36","1","966"
"13","13","retrieval","old_object","116","PulleyWooden.jpg",".","1","37","0","1369"
"13","13","retrieval","new_object","117","Toy_BearBrownPlushie.jpg",".",".","37","1","987"
"13","13","retrieval","new_object","118","Garlic_Clove.jpg",".",".","37","1","822"
"13","13","retrieval","old_object","119","MechanicalSpring.jpg",".","3","37","0","1353"
"13","13","retrieval","old_object","120","SolderingWire.jpg",".","1","37","0","811"
"13","13","retrieval","old_object","121","Nuts_Pecan.jpg",".","3","36","1","990"
"13","13","retrieval","old_object","122","Cinnamonroll.jpg",".","1","36","1","1025"
"13","13","retrieval","old_object","123","Bottle_Beer.jpg",".","1","36","1","795"
"13","13","retrieval","new_object","124","Camera_Video.jpg",".",".","0","0","2000"
"13","13","retrieval","old_object","125","TortillaChip.jpg",".","3","36","1","816"
"13","13","retrieval","old_object","126","Light_Studio.jpg",".","1","37","0","1123"
"13","13","retrieval","old_object","127","Helmet_Football.jpg",".","3","36","1","846"
"13","13","retrieval","new_object","128","Car_Buggy.jpg",".",".","37","1","928"
"13","13","retrieval","old_object","129","ManholeCover.jpg",".","3","37","0","835"
"13","13","retrieval","old_object","130","SewingPin_Cushion.jpg",".","3","36","1","846"
"13","13","retrieval","new_object","131","Notepad.jpg",".",".","37","1","872"
"13","13","retrieval","new_object","133","Glasses_Sun.jpg",".",".","37","1","1057"
"13","13","retrieval","old_object","134","Oars.jpg",".","3","36","1","892"
"13","13","retrieval","old_object","135","Lollipop_Rainbow.jpg",".","3","36","1","791"
"13","13","retrieval","old_object","136","Bread_Roll.jpg",".","1","36","1","721"
"13","13","retrieval","old_object","137","Mailbox_Antique.jpg",".","3","36","1","828"
"13","13","retrieval","new_object","138","FlintIgniter.jpg",".",".","37","1","774"
"13","13","retrieval","old_object","139","PagodaModel.jpg",".","1","36","1","1185"
"13","13","retrieval","old_object","140","Microwave.jpg",".","1","37","0","1300"
"13","13","retrieval","new_object","141","Canister_Tea.jpg",".",".","37","1","982"
"13","13","retrieval","old_object","142","Hedgehog.jpg",".","3","36","1","745"
"13","13","retrieval","new_object","143","SaladCaesar.jpg",".",".","37","1","836"
"13","13","retrieval","old_object","144","Bird_Duck.jpg",".","3","36","1","734"
"13","13","retrieval","old_object","145","Canister_Oil.jpg",".","1","37","0","1129"
"13","13","retrieval","new_object","146","TowelRack_Metal.jpg",".",".","37","1","780"
"13","13","retrieval","new_object","147","Clippers_Glass.jpg",".",".","37","1","918"
"13","13","retrieval","old_object","148","Lighter_Black.jpg",".","1","36","1","1393"
"13","13","retrieval","old_object","149","MemoPaperSpike.jpg",".","1","37","0","1412"
"13","13","retrieval","new_object","150","Toy_Ladybug.jpg",".",".","37","1","1071"
"13","13","retrieval","old_object","151","Binder.jpg",".","3","36","1","1521"
"13","13","retrieval","new_object","152","Tray_Medical.jpg",".",".","37","1","860"
"13","13","retrieval","new_object","153","Shoes_Mould.jpg",".",".","37","1","1462"
"13","13","retrieval","new_object","154","Box_WoodCrate.jpg",".",".","37","1","889"
"13","13","retrieval","old_object","155","Platter_Vegetables.jpg",".","1","36","1","1092"
"13","13","retrieval","new_object","156","Lynx.jpg",".",".","37","1","1030"
"13","13","retrieval","new_object","157","Nail.jpg",".",".","37","1","889"
"13","13","retrieval","old_object","158","Milkshake_Strawberry.jpg",".","1","36","1","1484"
"13","13","retrieval","old_object","159","Ship_Cruise.jpg",".","1","36","1","854"
"13","13","retrieval","new_object","160","ComputerKey_Escape.jpg",".",".","37","1","1289"
"13","13","retrieval","new_object","161","Level.jpg",".",".","37","1","972"
"13","13","retrieval","old_object","162","Candy_Lozenge.jpg",".","1","36","1","942"
"13","13","retrieval","old_object","163","Spear.jpg",".","3","36","1","977"
"13","13","retrieval","new_object","164","BrainSagittal.jpg",".",".","37","1","876"
"13","13","retrieval","new_object","165","PowderProtein.jpg",".",".","37","1","1382"
"13","13","retrieval","new_object","166","PumpBreast.jpg",".",".","37","1","1265"
"13","13","retrieval","old_object","167","Thermometer_Room.jpg",".","3","36","1","940"
"13","13","retrieval","new_object","168","Paddle_Ball.jpg",".",".","37","1","1078"
"13","13","retrieval","new_object","169","TelescopeSpacecraft.jpg",".",".","37","1","1265"
"13","13","retrieval","new_object","170","Sign_SlipperyRoad.jpg",".",".","37","1","1060"
"13","13","retrieval","new_object","171","Lobster.jpg",".",".","36","0","1182"
"13","13","retrieval","new_object","172","Stick_IceHockey.jpg",".",".","0","0","2000"
"13","13","retrieval","old_object","173","Wontons.jpg",".","1","36","1","1028"
"13","13","retrieval","old_object","174","MousepadAndMouse.jpg",".","1","36","1","1286"
"13","13","retrieval","new_object","175","Bag_Toiletry.jpg",".",".","37","1","1121"
"13","13","retrieval","old_object","176","Cassette_Video.jpg",".","3","36","1","892"
"13","13","retrieval","new_object","177","Blueberry.jpg",".",".","37","1","942"
"13","13","retrieval","new_object","178","Toy_Rooster.jpg",".",".","37","1","921"
"13","13","retrieval","old_object","179","Stone_AncientWriting.jpg",".","1","36","1","908"
"13","13","retrieval","new_object","180","MortarPestle_WhiteMarble.jpg",".",".","37","1","1102"
"13","13","retrieval","new_object","181","LeafBlower.jpg",".",".","37","1","1193"
"13","13","retrieval","new_object","182","Makeup_Bag.jpg",".",".","37","1","708"
"13","13","retrieval","new_object","183","Pouch_Red.jpg",".",".","37","1","678"
"13","13","retrieval","old_object","184","HairCurler.jpg",".","1","37","0","633"
"13","13","retrieval","old_object","185","Trash_Medical.jpg",".","1","36","1","812"
"13","13","retrieval","old_object","186","Case_Pencil.jpg",".","1","36","1","1182"
"13","13","retrieval","old_object","187","Amp.jpg",".","1","37","0","1481"
"13","13","retrieval","old_object","188","PyramidWooden.jpg",".","3","36","1","1076"
"13","13","retrieval","old_object","189","Sign_Construction.jpg",".","1","36","1","1334"
"13","13","retrieval","old_object","190","Hockey_Puck.jpg",".","1","37","0","1409"
"13","13","retrieval","new_object","191","Stick_Stirring.jpg",".",".","37","1","900"
"13","13","retrieval","new_object","192","ClothesDryingRack.jpg",".",".","37","1","886"
"13","13","retrieval","new_object","193","Compressor.jpg",".",".","37","1","1065"
"13","13","retrieval","new_object","194","Toy_TrailerAirport.jpg",".",".","37","1","1076"
"13","13","retrieval","new_object","195","Pretzel_Sticks.jpg",".",".","37","1","838"
"13","13","retrieval","new_object","196","Golf_Club.jpg",".",".","37","1","921"
"13","13","retrieval","old_object","197","GasStation.jpg",".","1","37","0","1115"
"13","13","retrieval","old_object","199","Cannon.jpg",".","3","36","1","1216"
"13","13","retrieval","old_object","200","Fork_Regular.jpg",".","1","37","0","1619"
"13","13","retrieval","new_object","201","Backhoe.jpg",".",".","37","1","846"
"13","13","retrieval","new_object","202","DonaldDuck_Toy.jpg",".",".","37","1","744"
"13","13","retrieval","old_object","203","Radish.jpg",".","1","36","1","699"
"13","13","retrieval","new_object","204","Balcony.jpg",".",".","37","1","1422"
"13","13","retrieval","old_object","205","Helmet_Motorcycle.jpg",".","1","37","0","1696"
"13","13","retrieval","new_object","206","EyeChart.jpg",".",".","37","1","947"
"13","13","retrieval","new_object","207","CarLighter.jpg",".",".","37","1","837"
"13","13","retrieval","new_object","208","Pyramid.jpg",".",".","36","0","1320"
"13","13","retrieval","old_object","209","Barometer.jpg",".","1","36","1","1099"
"13","13","retrieval","old_object","210","Statue_Horse.jpg",".","1","36","1","750"
"13","13","retrieval","old_object","211","CodeDoorLock.jpg",".","3","36","1","1104"
"13","13","retrieval","new_object","212","WaterHeater.jpg",".",".","37","1","1363"
"13","13","retrieval","new_object","213","Neckrest.jpg",".",".","36","0","837"
"13","13","retrieval","old_object","214","Cymbals.jpg",".","3","37","0","840"
"13","13","retrieval","old_object","215","Bread_Loaf.jpg",".","1","36","1","851"
"13","13","retrieval","old_object","216","RAMchip.jpg",".","3","36","1","862"
"13","13","retrieval","old_object","217","Toy_PandaPlushie.jpg",".","1","36","1","768"
"13","13","retrieval","old_object","218","Toy_MerryGoRound.jpg",".","3","36","1","683"
"13","13","retrieval","old_object","219","Bone.jpg",".","1","36","1","821"
"13","13","retrieval","old_object","220","Barbecue_Charcoal.jpg",".","1","36","1","1080"
"13","13","retrieval","new_object","221","FuzzyDice.jpg",".",".","37","1","755"
"13","13","retrieval","new_object","222","Paddle_Canoe.jpg",".",".","37","1","1365"
"13","13","retrieval","new_object","223","Coin.jpg",".",".","37","1","920"
"13","13","retrieval","new_object","224","NailFiles.jpg",".",".","37","1","739"
"13","13","retrieval","new_object","225","Jars_PetFood.jpg",".",".","37","1","653"
"13","13","retrieval","new_object","226","TowelRack_Brown.jpg",".",".","37","1","1392"
"13","13","retrieval","old_object","227","Light_Fixtures.jpg",".","3","36","1","1138"
"13","13","retrieval","old_object","228","Umbrella_Classic.jpg",".","3","37","0","1525"
"13","13","retrieval","old_object","229","Chair_Office.jpg",".","3","37","0","1183"
"13","13","retrieval","new_object","230","Tape_Dispenser.jpg",".",".","37","1","890"
"13","13","retrieval","old_object","231","SelfieStick.jpg",".","3","37","0","1589"
"13","13","retrieval","new_object","232","Celery.jpg",".",".","37","1","823"
"13","13","retrieval","new_object","233","PersonWooden.jpg",".",".","37","1","1338"
"13","13","retrieval","old_object","234","Toy_Lizard.jpg",".","3","36","1","925"
"13","13","retrieval","old_object","235","Lantern_Chinese.jpg",".","1","36","1","1239"
"13","13","retrieval","new_object","236","SoapDish.jpg",".",".","37","1","1498"
"13","13","retrieval","new_object","237","Ginger.jpg",".",".","37","1","1605"
"13","13","retrieval","new_object","238","Bus_DoubleDecker.jpg",".",".","37","1","1463"
"13","13","retrieval","new_object","239","Toy_Firetruck.jpg",".",".","37","1","994"
"13","13","retrieval","old_object","240","Compact_Mirror.jpg",".","1","37","0","917"
"13","13","retrieval","old_object","241","Mug_Travel.jpg",".","3","36","1","951"
"13","13","retrieval","new_object","242","ShoeLace_Flat.jpg",".",".","37","1","834"
"13","13","retrieval","old_object","243","Hanger.jpg",".","1","37","0","709"
"13","13","retrieval","new_object","244","Scorpion.jpg",".",".","37","1","871"
"13","13","retrieval","new_object","245","Cheeseburger.jpg",".",".","37","1","938"
"13","13","retrieval","new_object","246","Heater_Outdoor.jpg",".",".","37","1","1125"
"13","13","retrieval","old_object","247","PencilCase.jpg",".","1","37","0","1015"
"13","13","retrieval","old_object","248","Cup_Bathroom.jpg",".","1","37","0","698"
"13","13","retrieval","new_object","249","Sphinx.jpg",".",".","37","1","989"
"13","13","retrieval","old_object","250","CarSuspension.jpg",".","1","37","0","1095"
"13","13","retrieval","old_object","251","Toolbox_BlackOpen.jpg",".","3","37","0","1002"
"13","13","retrieval","new_object","252","Toy_DonkeyFur.jpg",".",".","37","1","941"
"13","13","retrieval","old_object","253","FireAlarm.jpg",".","3","36","1","935"
"13","13","retrieval","new_object","254","Walkman.jpg",".",".","37","1","890"
"13","13","retrieval","new_object","255","Dropper.jpg",".",".","37","1","1116"
"13","13","retrieval","new_object","256","Suit_Women.jpg",".",".","37","1","871"
"13","13","retrieval","old_object","257","Wire_ElectricalSingle.jpg",".","3","36","1","1114"
"13","13","retrieval","old_object","258","ProjectorScreen.jpg",".","1","37","0","1101"
"13","13","retrieval","new_object","259","Pasta_Fettuccine.jpg",".",".","37","1","823"
"13","13","retrieval","old_object","260","Spatula.jpg",".","3","36","1","1010"
"13","13","retrieval","old_object","261","Bag_Diaper.jpg",".","3","36","1","925"
"13","13","retrieval","new_object","262","Stone_Spa.jpg",".",".","37","1","1255"
"13","13","retrieval","new_object","263","Suitcase.jpg",".",".","37","1","1290"
"13","13","retrieval","old_object","265","WateringCan_Antique.jpg",".","3","36","1","977"
"13","13","retrieval","new_object","266","Airplane_Small.jpg",".",".","37","1","1435"
"13","13","retrieval","old_object","267","Mask_HockeyGoalie.jpg",".","3","36","1","1446"
"13","13","retrieval","new_object","268","Squash_Butternut.jpg",".",".","37","1","992"
"13","13","retrieval","new_object","269","Dragonfly.jpg",".",".","37","1","803"
"13","13","retrieval","old_object","270","Can_Oblong.jpg",".","1","37","0","662"
"13","13","retrieval","old_object","271","Walker_Blue.jpg",".","3","36","1","864"
"13","13","retrieval","new_object","272","Computer_ExpansionCard.jpg",".",".","37","1","915"
"13","13","retrieval","new_object","273","Case_CD.jpg",".",".","37","1","1181"
"13","13","retrieval","old_object","274","Tree_Fir.jpg",".","3","36","1","816"
"13","13","retrieval","new_object","275","HairBand.jpg",".",".","37","1","778"
"13","13","retrieval","new_object","276","WalkieTalkie_Yellow.jpg",".",".","37","1","709"
"13","13","retrieval","new_object","277","Ostrich.jpg",".",".","37","1","864"
"13","13","retrieval","new_object","278","TreeStump.jpg",".",".","37","1","1274"
"13","13","retrieval","new_object","279","SnowmanDecor.jpg",".",".","37","1","941"
"13","13","retrieval","old_object","280","Flags_CheckeredRacing.jpg",".","1","37","0","848"
"13","13","retrieval","old_object","281","Light_Halogen.jpg",".","3","36","1","1642"
"13","13","retrieval","new_object","282","Toy_BeadMaze.jpg",".",".","37","1","813"
"13","13","retrieval","new_object","283","Mitt_Blue.jpg",".",".","37","1","896"
"13","13","retrieval","old_object","284","Candy_Toffee.jpg",".","1","36","1","1010"
"13","13","retrieval","new_object","285","Desk_Office.jpg",".",".","36","0","1285"
"13","13","retrieval","old_object","286","Hat_Colonial.jpg",".","1","36","1","1160"
"13","13","retrieval","new_object","287","Mask_VenetianCat.jpg",".",".","37","1","818"
"13","13","retrieval","old_object","288","Jar_Honey.jpg",".","1","36","1","1189"
"13","13","retrieval","old_object","289","Stove_WithOven.jpg",".","3","37","0","1128"
"13","13","retrieval","old_object","290","Carousel.jpg",".","1","36","1","842"
"13","13","retrieval","new_object","291","Clamp_Screw.jpg",".",".","37","1","901"
"13","13","retrieval","old_object","292","Bat_Cricket.jpg",".","1","36","1","1208"
"13","13","retrieval","new_object","293","CDstack.jpg",".",".","37","1","1346"
"13","13","retrieval","old_object","294","BumperCar.jpg",".","3","36","1","1437"
"13","13","retrieval","old_object","295","Brush_Light.jpg",".","1","36","1","1216"
"13","13","retrieval","new_object","296","Shovel_Garden.jpg",".",".","37","1","1090"
"13","13","retrieval","new_object","297","Toy_Wooden rings.jpg",".",".","37","1","997"
"13","13","retrieval","new_object","298","Decoration_ChristmasWhite.jpg",".",".","37","1","808"
"13","13","retrieval","new_object","299","Snorkle.jpg",".",".","37","1","1259"
"13","13","retrieval","new_object","300","Toy_Bat.jpg",".",".","37","1","1149"
"13","13","retrieval","new_object","301","Snowpea.jpg",".",".","37","1","1000"
"13","13","retrieval","old_object","302","Mailbox_Community.jpg",".","3","36","1","1242"
"13","13","retrieval","new_object","303","Helicopter.jpg",".",".","37","1","1789"
"13","13","retrieval","new_object","304","Coral.jpg",".",".","37","1","1304"
"13","13","retrieval","new_object","305","Tray_Metal.jpg",".",".","37","1","834"
"13","13","retrieval","old_object","306","Toy_Truck.jpg",".","3","36","1","1877"
"13","13","retrieval","new_object","307","GrillRack.jpg",".",".","37","1","1208"
"13","13","retrieval","new_object","308","Carrot.jpg",".",".","37","1","890"
"13","13","retrieval","new_object","309","DeepFryer.jpg",".",".","37","1","981"
"13","13","retrieval","old_object","310","Heelpad.jpg",".","1","36","1","1088"
"13","13","retrieval","new_object","311","Boar.jpg",".",".","37","1","1394"
"13","13","retrieval","old_object","312","Bread_Melon.jpg",".","1","36","1","1013"
"13","13","retrieval","new_object","313","Fan_Straw.jpg",".",".","37","1","960"
"13","13","retrieval","old_object","314","Bread_Carrot.jpg",".","3","36","1","930"
"13","13","retrieval","old_object","315","Hubcap.jpg",".","1","37","0","661"
"13","13","retrieval","old_object","316","Carabiner_Orange.jpg",".","3","36","1","944"
"13","13","retrieval","new_object","317","Hat_Feather.jpg",".",".","37","1","1778"
"13","13","retrieval","old_object","318","SatelliteDish.jpg",".","1","37","0","829"
"13","13","retrieval","new_object","319","Box_Cutlery.jpg",".",".","37","1","776"
"13","13","retrieval","old_object","320","TailLight.jpg",".","1","36","1","930"
"13","13","retrieval","old_object","321","Bible.jpg",".","3","36","1","981"
"13","13","retrieval","new_object","322","Shrimp.jpg",".",".","37","1","1376"
"13","13","retrieval","old_object","323","Makeup_Compact.jpg",".","","36","1","1290"
"13","13","retrieval","new_object","324","HairClipper.jpg",".",".","0","0","2000"
"13","13","retrieval","new_object","325","Piano_Upright.jpg",".",".","37","1","736"
"13","13","demographics_block","gender","1",".",".",".","female","1","20674"
"13","13","demographics_block","age","1",".",".",".","61","1","20674"
"13","13","demographics_block","education","1",".",".",".","16","1","20674"
"13","13","demographics_block","left_right_handed","2",".",".",".","Right","1","13779"
"13","13","demographics_block","raceoption1","2",".",".",".","0","1","13779"
"13","13","demographics_block","raceoption2","2",".",".",".","","1","13779"
"13","13","demographics_block","raceoption3","2",".",".",".","","1","13779"
"13","13","demographics_block","raceoption4","2",".",".",".","","1","13779"
"13","13","demographics_block","raceoption5","2",".",".",".","","1","13779"
"13","13","demographics_block","raceoption6","2",".",".",".","","1","13779"
"13","13","demographics_block","raceoption7","2",".",".",".","","1","13779"
"13","13","demographics_block","raceoption8","2",".",".",".","","1","13779"
"13","13","demographics_block","raceoption9","2",".",".",".","","1","13779"
"13","13","demographics_block","raceother","2",".",".",".","","1","13779"
"13","13","demographics_block","raceother","2",".",".",".","","1","13779"
"13","13","demographics_block","english_language","2",".",".",".","Yes","1","13779"
"13","13","demographics_block","other","2",".",".",".","","1","13779"
"13","13","demographics_block","eyesight","3",".",".",".","Yes","1","6128"
"13","13","demographics_block","colorblind","3",".",".",".","No","1","6128"
"16","16","encoding","encoding","1","Lens_Camera.jpg","3",".","37","0","756"
"16","16","encoding","encoding","2","Taco.jpg","3",".","36","0","655"
"16","16","encoding","encoding","3","DartBoard.jpg","3",".","37","0","751"
"16","16","encoding","encoding","4","Ladybug.jpg","3",".","36","0","763"
"16","16","encoding","encoding","5","Desk_White.jpg","3",".","37","0","876"
"16","16","encoding","encoding","6","Cart_Janitor.jpg","1",".","37","0","764"
"16","16","encoding","encoding","7","PencilCase.jpg","1",".","37","0","671"
"16","16","encoding","encoding","8","SewingPin_Cushion.jpg","3",".","37","0","818"
"16","16","encoding","encoding","9","Cannon.jpg","3",".","37","0","635"
"16","16","encoding","encoding","10","MemoPaperSpike.jpg","1",".","37","0","584"
"16","16","encoding","encoding","11","Cup_Bathroom.jpg","1",".","37","0","582"
"16","16","encoding","encoding","12","ProjectorScreen.jpg","1",".","37","0","894"
"16","16","encoding","encoding","13","Wire_ElectricalSingle.jpg","3",".","37","0","951"
"16","16","encoding","encoding","14","Bible.jpg","3",".","37","0","678"
"16","16","encoding","encoding","15","Microwave.jpg","1",".","37","0","552"
"16","16","encoding","encoding","16","Tree_Fir.jpg","3",".","0","0","1000"
"16","16","encoding","encoding","17","PumiceStone.jpg","1",".","36","0","772"
"16","16","encoding","encoding","18","Hanger.jpg","1",".","37","0","534"
"16","16","encoding","encoding","19","Binder.jpg","3",".","37","0","652"
"16","16","encoding","encoding","20","Barometer.jpg","1",".","37","0","648"
"16","16","encoding","encoding","21","Branch.jpg","3",".","36","0","815"
"16","16","encoding","encoding","22","LicensePlate.jpg","1",".","37","0","471"
"16","16","encoding","encoding","23","Bat_Cricket.jpg","1",".","0","0","1000"
"16","16","encoding","encoding","24","Binder.jpg","3",".","37","0","615"
"16","16","encoding","encoding","25","Mailbox_Community.jpg","3",".","37","0","561"
"16","16","encoding","encoding","26","Candy_Lozenge.jpg","1",".","37","0","843"
"16","16","encoding","encoding","27","Oars.jpg","3",".","37","0","456"
"16","16","encoding","encoding","28","CodeDoorLock.jpg","3",".","37","0","738"
"16","16","encoding","encoding","29","Mask_HockeyGoalie.jpg","3",".","37","0","558"
"16","16","encoding","encoding","30","Mask_HockeyGoalie.jpg","3",".","37","0","363"
"16","16","encoding","encoding","31","Trash_Medical.jpg","1",".","37","0","748"
"16","16","encoding","encoding","32","Lighter_Black.jpg","1",".","37","0","372"
"16","16","encoding","encoding","33","SelfieStick.jpg","3",".","37","0","490"
"16","16","encoding","encoding","34","Castle_Sand.jpg","3",".","36","0","666"
"16","16","encoding","encoding","35","Nuts_Pecan.jpg","3",".","37","0","821"
"16","16","encoding","encoding","36","Bottle_Beer.jpg","1",".","37","0","830"
"16","16","encoding","encoding","37","Statue_Man.jpg","3",".","37","0","713"
"16","16","encoding","encoding","38","DartBoard.jpg","3",".","37","0","502"
"16","16","encoding","encoding","39","RAMchip.jpg","3",".","37","0","745"
"16","16","encoding","encoding","40","GasStation.jpg","1",".","37","0","410"
"16","16","encoding","encoding","41","Toy_Truck.jpg","3",".","37","0","438"
"16","16","encoding","encoding","42","Arch_Triomphe.jpg","3",".","37","0","476"
"16","16","encoding","encoding","43","Binder.jpg","3",".","37","0","425"
"16","16","encoding","encoding","44","ManholeCover.jpg","3",".","37","0","502"
"16","16","encoding","encoding","45","Stove_WithOven.jpg","3",".","37","0","448"
"16","16","encoding","encoding","46","Mask_HockeyGoalie.jpg","3",".","37","0","347"
"16","16","encoding","encoding","47","RAMchip.jpg","3",".","37","0","427"
"16","16","encoding","encoding","48","Bowl_Glass.jpg","3",".","37","0","534"
"16","16","encoding","encoding","49","SolderingIron.jpg","3",".","37","0","526"
"16","16","encoding","encoding","50","PocketKnife.jpg","1",".","37","0","689"
"16","16","encoding","encoding","51","Toy_PandaPlushie.jpg","1",".","37","0","665"
"16","16","encoding","encoding","52","Weathervane.jpg","3",".","37","0","486"
"16","16","encoding","encoding","53","Mask_Ski.jpg","1",".","37","0","555"
"16","16","encoding","encoding","54","Tree_Fir.jpg","3",".","36","0","583"
"16","16","encoding","encoding","55","Corkboard.jpg","3",".","37","0","585"
"16","16","encoding","encoding","56","Desk_White.jpg","3",".","37","0","408"
"16","16","encoding","encoding","57","Stove_WithOven.jpg","3",".","37","0","463"
"16","16","encoding","encoding","58","Mug_Travel.jpg","3",".","37","0","462"
"16","16","encoding","encoding","59","Garlic_Whole.jpg","3",".","36","0","572"
"16","16","encoding","encoding","60","PulleyWooden.jpg","1",".","37","0","567"
"16","16","encoding","encoding","61","Bandage_Adhesive.jpg","3",".","37","0","608"
"16","16","encoding","encoding","62","SolderingIron.jpg","3",".","37","0","450"
"16","16","encoding","encoding","63","Light_Halogen.jpg","3",".","37","0","496"
"16","16","encoding","encoding","64","House_Wooden.jpg","3",".","37","0","625"
"16","16","encoding","encoding","65","Lollipop_Rainbow.jpg","3",".","37","0","670"
"16","16","encoding","encoding","67","Walker_Blue.jpg","3",".","37","0","599"
"16","16","encoding","encoding","68","Thermometer_Room.jpg","3",".","37","0","609"
"16","16","encoding","encoding","69","TailLight.jpg","1",".","37","0","533"
"16","16","encoding","encoding","70","Oars.jpg","3",".","37","0","519"
"16","16","encoding","encoding","71","Gecko.jpg","3",".","36","0","633"
"16","16","encoding","encoding","72","Aquarium.jpg","3",".","37","0","755"
"16","16","encoding","encoding","73","Toy_Truck.jpg","3",".","37","0","547"
"16","16","encoding","encoding","74","LifeJacket_Orangejpg.jpg","3",".","37","0","482"
"16","16","encoding","encoding","75","Bag_Diaper.jpg","3",".","37","0","648"
"16","16","encoding","encoding","76","Bark.jpg","3",".","36","0","425"
"16","16","encoding","encoding","77","Clock_Interior.jpg","3",".","37","0","466"
"16","16","encoding","encoding","78","Bread_Carrot.jpg","3",".","37","0","790"
"16","16","encoding","encoding","79","Desk_White.jpg","3",".","37","0","436"
"16","16","encoding","encoding","80","Scythe.jpg","3",".","37","0","607"
"16","16","encoding","encoding","81","Bible.jpg","3",".","37","0","367"
"16","16","encoding","encoding","82","DogSled.jpg","1",".","0","0","1000"
"16","16","encoding","encoding","83","RAMchip.jpg","3",".","37","0","445"
"16","16","encoding","encoding","84","Light_Fixtures.jpg","3",".","37","0","694"
"16","16","encoding","encoding","85","Stool_Metal.jpg","3",".","37","0","539"
"16","16","encoding","encoding","86","Mug_Travel.jpg","3",".","37","0","339"
"16","16","encoding","encoding","87","Stool_Metal.jpg","3",".","37","0","404"
"16","16","encoding","encoding","88","Brush_Light.jpg","1",".","37","0","635"
"16","16","encoding","encoding","89","Van.jpg","3",".","37","0","361"
"16","16","encoding","encoding","90","Backpack_Suitcase.jpg","3",".","37","0","363"
"16","16","encoding","encoding","91","Toy_LambPlushie.jpg","3",".","37","0","499"
"16","16","encoding","encoding","92","Lens_Camera.jpg","3",".","37","0","353"
"16","16","encoding","encoding","93","Umbrella_Classic.jpg","3",".","37","0","372"
"16","16","encoding","encoding","94","Hockey_Puck.jpg","1",".","37","0","535"
"16","16","encoding","encoding","95","BumperCar.jpg","3",".","37","0","504"
"16","16","encoding","encoding","96","Aquarium.jpg","3",".","37","0","780"
"16","16","encoding","encoding","97","Bleachers.jpg","3",".","37","0","530"
"16","16","encoding","encoding","98","Bleachers.jpg","3",".","37","0","404"
"16","16","encoding","encoding","99","WateringCan_Antique.jpg","3",".","37","0","914"
"16","16","encoding","encoding","100","Bus_School.jpg","1",".","37","0","413"
"16","16","encoding","encoding","101","Box_FirstAid.jpg","1",".","37","0","330"
"16","16","encoding","encoding","102","sign_traffic.jpg","3",".","37","0","518"
"16","16","encoding","encoding","103","Compact_Mirror.jpg","1",".","37","0","504"
"16","16","encoding","encoding","104","Cannon.jpg","3",".","37","0","489"
"16","16","encoding","encoding","105","Bag_Diaper.jpg","3",".","37","0","494"
"16","16","encoding","encoding","106","Bucket_Halloween.jpg","1",".","37","0","468"
"16","16","encoding","encoding","107","Lollipop_Rainbow.jpg","3",".","37","0","447"
"16","16","encoding","encoding","108","Walker_Blue.jpg","3",".","37","0","513"
"16","16","encoding","encoding","109","SelfieStick.jpg","3",".","37","0","375"
"16","16","encoding","encoding","110","House_Wooden.jpg","3",".","37","0","389"
"16","16","encoding","encoding","111","Helmet_Football.jpg","3",".","37","0","498"
"16","16","encoding","encoding","112","AirCompressor.jpg","3",".","37","0","486"
"16","16","encoding","encoding","113","Van.jpg","3",".","37","0","406"
"16","16","encoding","encoding","114","Bowl_Glass.jpg","3",".","37","0","495"
"16","16","encoding","encoding","115","Walker_Blue.jpg","3",".","37","0","472"
"16","16","encoding","encoding","116","Toy_LambPlushie.jpg","3",".","37","0","522"
"16","16","encoding","encoding","117","Weathervane.jpg","3",".","37","0","504"
"16","16","encoding","encoding","118","ManholeCover.jpg","3",".","37","0","428"
"16","16","encoding","encoding","119","Television.jpg","3",".","37","0","415"
"16","16","encoding","encoding","120","WaterWell.jpg","3",".","37","0","465"
"16","16","encoding","encoding","121","HairCurler.jpg","1",".","37","0","488"
"16","16","encoding","encoding","122","Barometer_Wood.jpg","3",".","37","0","428"
"16","16","encoding","encoding","123","SelfieStick.jpg","3",".","37","0","453"
"16","16","encoding","encoding","124","Bread_Carrot.jpg","3",".","37","0","650"
"16","16","encoding","encoding","125","Envelope_Manila.jpg","3",".","37","0","422"
"16","16","encoding","encoding","126","Bandage_Adhesive.jpg","3",".","37","0","472"
"16","16","encoding","encoding","127","Tube_Glue.jpg","1",".","37","0","443"
"16","16","encoding","encoding","128","Thermometer_Room.jpg","3",".","37","0","517"
"16","16","encoding","encoding","129","Toolbox_BlackOpen.jpg","3",".","37","0","558"
"16","16","encoding","encoding","130","Milkshake_Strawberry.jpg","1",".","37","0","517"
"16","16","encoding","encoding","131","CodeDoorLock.jpg","3",".","37","0","410"
"16","16","encoding","encoding","133","Stove_WithOven.jpg","3",".","37","0","472"
"16","16","encoding","encoding","134","Carabiner_Orange.jpg","3",".","37","0","464"
"16","16","encoding","encoding","135","AirPump.jpg","1",".","37","0","514"
"16","16","encoding","encoding","136","SewingPin_Cushion.jpg","3",".","37","0","469"
"16","16","encoding","encoding","137","Bark.jpg","3",".","36","0","556"
"16","16","encoding","encoding","138","DoubleBass.jpg","1",".","37","0","585"
"16","16","encoding","encoding","139","WaterWell.jpg","3",".","37","0","821"
"16","16","encoding","encoding","140","Umbrella_Classic.jpg","3",".","37","0","448"
"16","16","encoding","encoding","141","Tube_Paint.jpg","1",".","37","0","465"
"16","16","encoding","encoding","142","Cinnamonroll.jpg","1",".","37","0","752"
"16","16","encoding","encoding","143","Taco.jpg","3",".","37","0","617"
"16","16","encoding","encoding","144","ManholeCover.jpg","3",".","37","0","431"
"16","16","encoding","encoding","145","Light_Fixtures.jpg","3",".","37","0","500"
"16","16","encoding","encoding","146","WateringCan_Antique.jpg","3",".","37","0","425"
"16","16","encoding","encoding","147","Chair_Office.jpg","3",".","37","0","381"
"16","16","encoding","encoding","148","Television.jpg","3",".","37","0","417"
"16","16","encoding","encoding","149","Chair_Office.jpg","3",".","37","0","356"
"16","16","encoding","encoding","150","Barometer_Wood.jpg","3",".","37","0","473"
"16","16","encoding","encoding","151","House_Wooden.jpg","3",".","37","0","554"
"16","16","encoding","encoding","152","PyramidWooden.jpg","3",".","37","0","600"
"16","16","encoding","encoding","153","Bread_Melon.jpg","1",".","37","0","790"
"16","16","encoding","encoding","154","WaterWell.jpg","3",".","37","0","437"
"16","16","encoding","encoding","155","MetalDetector.jpg","1",".","37","0","427"
"16","16","encoding","encoding","156","Lens_Camera.jpg","3",".","37","0","399"
"16","16","encoding","encoding","157","Spear.jpg","3",".","37","0","610"
"16","16","encoding","encoding","158","Makeup_Compact.jpg","3",".","37","0","420"
"16","16","encoding","encoding","159","HoseNozzle.jpg","1",".","37","0","546"
"16","16","encoding","encoding","160","Clave.jpg","1",".","37","0","885"
"16","16","encoding","encoding","161","Helmet_Football.jpg","3",".","37","0","397"
"16","16","encoding","encoding","162","Mug_Travel.jpg","3",".","37","0","403"
"16","16","encoding","encoding","163","CodeDoorLock.jpg","3",".","37","0","438"
"16","16","encoding","encoding","164","Hedgehog.jpg","3",".","36","0","577"
"16","16","encoding","encoding","165","Branch.jpg","3",".","36","0","558"
"16","16","encoding","encoding","166","Ship_Cruise.jpg","1",".","37","0","637"
"16","16","encoding","encoding","167","BumperCar.jpg","3",".","37","0","453"
"16","16","encoding","encoding","168","Hat_Colonial.jpg","1",".","37","0","678"
"16","16","encoding","encoding","169","Hubcap.jpg","1",".","37","0","409"
"16","16","encoding","encoding","170","AirCompressor.jpg","3",".","37","0","397"
"16","16","encoding","encoding","171","Scythe.jpg","3",".","37","0","543"
"16","16","encoding","encoding","172","Can_Oblong.jpg","1",".","37","0","381"
"16","16","encoding","encoding","173","FireAlarm.jpg","3",".","37","0","355"
"16","16","encoding","encoding","174","Statue_Horse.jpg","1",".","37","0","440"
"16","16","encoding","encoding","175","Amp.jpg","1",".","37","0","348"
"16","16","encoding","encoding","176","SofaAntique.jpg","3",".","37","0","348"
"16","16","encoding","encoding","177","Oars.jpg","3",".","37","0","438"
"16","16","encoding","encoding","178","Cable_JumpStart.jpg","3",".","37","0","435"
"16","16","encoding","encoding","179","Mailbox_Community.jpg","3",".","37","0","477"
"16","16","encoding","encoding","180","TortillaChip.jpg","3",".","37","0","947"
"16","16","encoding","encoding","181","Makeup_Compact.jpg","3",".","37","0","418"
"16","16","encoding","encoding","182","LifeJacket_Orangejpg.jpg","3",".","37","0","395"
"16","16","encoding","encoding","183","Platter_Vegetables.jpg","1",".","37","0","710"
"16","16","encoding","encoding","184","Arch_Triomphe.jpg","3",".","37","0","690"
"16","16","encoding","encoding","185","Light_Studio.jpg","1",".","37","0","414"
"16","16","encoding","encoding","186","Bread_Carrot.jpg","3",".","37","0","680"
"16","16","encoding","encoding","187","Cassette_Video.jpg","3",".","37","0","555"
"16","16","encoding","encoding","188","Bleachers.jpg","3",".","37","0","405"
"16","16","encoding","encoding","189","SofaAntique.jpg","3",".","37","0","405"
"16","16","encoding","encoding","190","Cake_Cheese.jpg","1",".","37","0","606"
"16","16","encoding","encoding","191","Mailbox_Community.jpg","3",".","37","0","367"
"16","16","encoding","encoding","192","Wire_ElectricalSingle.jpg","3",".","37","0","442"
"16","16","encoding","encoding","193","Corkboard.jpg","3",".","37","0","544"
"16","16","encoding","encoding","194","Fork_Regular.jpg","1",".","37","0","459"
"16","16","encoding","encoding","195","Nuts_Pecan.jpg","3",".","37","0","446"
"16","16","encoding","encoding","196","SofaAntique.jpg","3",".","37","0","467"
"16","16","encoding","encoding","197","FireAlarm.jpg","3",".","37","0","394"
"16","16","encoding","encoding","199","BumperCar.jpg","3",".","37","0","426"
"16","16","encoding","encoding","200","Cymbals.jpg","3",".","37","0","747"
"16","16","encoding","encoding","201","Mailbox_Antique.jpg","3",".","37","0","355"
"16","16","encoding","encoding","202","Cannon.jpg","3",".","37","0","381"
"16","16","encoding","encoding","203","Wire_ElectricalSingle.jpg","3",".","37","0","350"
"16","16","encoding","encoding","204","TortillaChip.jpg","3",".","37","0","569"
"16","16","encoding","encoding","205","Carabiner_Orange.jpg","3",".","37","0","365"
"16","16","encoding","encoding","206","Stool_Metal.jpg","3",".","37","0","359"
"16","16","encoding","encoding","207","Backpack_Suitcase.jpg","3",".","37","0","314"
"16","16","encoding","encoding","208","Garlic_Whole.jpg","3",".","36","0","781"
"16","16","encoding","encoding","209","Envelope_Manila.jpg","3",".","37","0","576"
"16","16","encoding","encoding","210","PyramidWooden.jpg","3",".","37","0","548"
"16","16","encoding","encoding","211","Weathervane.jpg","3",".","37","0","485"
"16","16","encoding","encoding","212","Chair_Office.jpg","3",".","37","0","407"
"16","16","encoding","encoding","213","Gecko.jpg","3",".","36","0","724"
"16","16","encoding","encoding","214","LifeJacket_Orangejpg.jpg","3",".","37","0","432"
"16","16","encoding","encoding","215","Gecko.jpg","3",".","36","0","423"
"16","16","encoding","encoding","216","Handbag.jpg","1",".","37","0","410"
"16","16","encoding","encoding","217","Sign_Construction.jpg","1",".","37","0","541"
"16","16","encoding","encoding","218","Backpack_Suitcase.jpg","3",".","37","0","379"
"16","16","encoding","encoding","219","Spatula.jpg","3",".","37","0","419"
"16","16","encoding","encoding","220","Bone.jpg","1",".","36","0","748"
"16","16","encoding","encoding","221","Cable_JumpStart.jpg","3",".","37","0","473"
"16","16","encoding","encoding","222","Bark.jpg","3",".","36","0","541"
"16","16","encoding","encoding","223","Bowl_Glass.jpg","3",".","37","0","572"
"16","16","encoding","encoding","224","Table_Saw.jpg","1",".","37","0","510"
"16","16","encoding","encoding","225","Nuts_Pecan.jpg","3",".","36","0","561"
"16","16","encoding","encoding","226","Bible.jpg","3",".","37","0","459"
"16","16","encoding","encoding","227","sign_traffic.jpg","3",".","37","0","481"
"16","16","encoding","encoding","228","Bread_Roll.jpg","1",".","37","0","724"
"16","16","encoding","encoding","229","CoffeeLid.jpg","1",".","37","0","505"
"16","16","encoding","encoding","230","Cymbals.jpg","3",".","37","0","472"
"16","16","encoding","encoding","231","MechanicalSpring.jpg","3",".","37","0","521"
"16","16","encoding","encoding","232","Carabiner_Orange.jpg","3",".","0","0","1000"
"16","16","encoding","encoding","233","Mailbox_Antique.jpg","3",".","37","0","393"
"16","16","encoding","encoding","234","Garlic_Whole.jpg","3",".","36","0","499"
"16","16","encoding","encoding","235","Corkboard.jpg","3",".","37","0","514"
"16","16","encoding","encoding","236","Scythe.jpg","3",".","37","0","412"
"16","16","encoding","encoding","237","Briefcase_Silver.jpg","1",".","37","0","492"
"16","16","encoding","encoding","238","SatelliteDish.jpg","1",".","37","0","588"
"16","16","encoding","encoding","239","Toy_MerryGoRound.jpg","3",".","37","0","471"
"16","16","encoding","encoding","240","MechanicalSpring.jpg","3",".","37","0","582"
"16","16","encoding","encoding","241","PyramidWooden.jpg","3",".","37","0","532"
"16","16","encoding","encoding","242","Cymbals.jpg","3",".","37","0","564"
"16","16","encoding","encoding","243","AirCompressor.jpg","3",".","37","0","530"
"16","16","encoding","encoding","244","Crab.jpg","1",".","0","0","1000"
"16","16","encoding","encoding","245","Television.jpg","3",".","37","0","388"
"16","16","encoding","encoding","246","Mailbox_Antique.jpg","3",".","37","0","388"
"16","16","encoding","encoding","247","Toy_Truck.jpg","3",".","37","0","463"
"16","16","encoding","encoding","248","Bread_Loaf.jpg","1",".","37","0","382"
"16","16","encoding","encoding","249","Toy_Lizard.jpg","3",".","36","0","460"
"16","16","encoding","encoding","250","Light_Fixtures.jpg","3",".","37","0","535"
"16","16","encoding","encoding","251","DartBoard.jpg","3",".","37","0","504"
"16","16","encoding","encoding","252","Barbecue_Charcoal.jpg","1",".","37","0","777"
"16","16","encoding","encoding","253","Toy_MerryGoRound.jpg","3",".","37","0","371"
"16","16","encoding","encoding","254","Cable_JumpStart.jpg","3",".","37","0","468"
"16","16","encoding","encoding","255","Bird_Duck.jpg","3",".","36","0","521"
"16","16","encoding","encoding","256","Spear.jpg","3",".","37","0","597"
"16","16","encoding","encoding","257","Light_Halogen.jpg","3",".","37","0","501"
"16","16","encoding","encoding","258","Canister_Oil.jpg","1",".","37","0","398"
"16","16","encoding","encoding","259","Aquarium.jpg","3",".","37","0","680"
"16","16","encoding","encoding","260","Toy_MerryGoRound.jpg","3",".","37","0","371"
"16","16","encoding","encoding","261","Toolbox_BlackOpen.jpg","3",".","37","0","361"
"16","16","encoding","encoding","262","Statue_Man.jpg","3",".","37","0","413"
"16","16","encoding","encoding","263","FireAlarm.jpg","3",".","37","0","341"
"16","16","encoding","encoding","265","Lollipop_Rainbow.jpg","3",".","37","0","911"
"16","16","encoding","encoding","266","SolderingWire.jpg","1",".","37","0","521"
"16","16","encoding","encoding","267","Heelpad.jpg","1",".","37","0","561"
"16","16","encoding","encoding","268","Taco.jpg","3",".","36","0","522"
"16","16","encoding","encoding","269","Toy_LambPlushie.jpg","3",".","37","0","534"
"16","16","encoding","encoding","270","Earring_Hoop.jpg","1",".","37","0","632"
"16","16","encoding","encoding","271","Castle_Sand.jpg","3",".","0","0","1000"
"16","16","encoding","encoding","272","Arch_Triomphe.jpg","3",".","37","0","660"
"16","16","encoding","encoding","273","Envelope_Manila.jpg","3",".","37","0","388"
"16","16","encoding","encoding","274","Clock_Interior.jpg","3",".","37","0","414"
"16","16","encoding","encoding","275","Thermometer_Room.jpg","3",".","37","0","434"
"16","16","encoding","encoding","276","MousepadAndMouse.jpg","1",".","37","0","560"
"16","16","encoding","encoding","277","Radish.jpg","1",".","36","0","501"
"16","16","encoding","encoding","278","Acorn.jpg","1",".","36","0","667"
"16","16","encoding","encoding","279","Bandage_Adhesive.jpg","3",".","37","0","414"
"16","16","encoding","encoding","280","Toolbox_BlackOpen.jpg","3",".","37","0","414"
"16","16","encoding","encoding","281","Clock_Interior.jpg","3",".","37","0","396"
"16","16","encoding","encoding","282","Cassette_Video.jpg","3",".","37","0","496"
"16","16","encoding","encoding","283","WateringCan_Antique.jpg","3",".","37","0","413"
"16","16","encoding","encoding","284","Case_Pencil.jpg","1",".","37","0","611"
"16","16","encoding","encoding","285","Lantern_Chinese.jpg","1",".","37","0","495"
"16","16","encoding","encoding","286","Ladybug.jpg","3",".","36","0","527"
"16","16","encoding","encoding","287","Bird_Duck.jpg","3",".","36","0","508"
"16","16","encoding","encoding","288","IceCream_Popsicle.jpg","1",".","37","0","710"
"16","16","encoding","encoding","289","Van.jpg","3",".","37","0","400"
"16","16","encoding","encoding","290","Castle_Sand.jpg","3",".","37","0","350"
"16","16","encoding","encoding","291","SolderingIron.jpg","3",".","37","0","572"
"16","16","encoding","encoding","292","Hedgehog.jpg","3",".","36","0","591"
"16","16","encoding","encoding","293","Candy_Toffee.jpg","1",".","0","0","1000"
"16","16","encoding","encoding","294","Jar_Honey.jpg","1",".","37","0","555"
"16","16","encoding","encoding","295","Spatula.jpg","3",".","37","0","802"
"16","16","encoding","encoding","296","sign_traffic.jpg","3",".","37","0","701"
"16","16","encoding","encoding","297","Bag_Diaper.jpg","3",".","37","0","430"
"16","16","encoding","encoding","298","Toy_Lizard.jpg","3",".","36","0","478"
"16","16","encoding","encoding","299","Branch.jpg","3",".","36","0","472"
"16","16","encoding","encoding","300","Carousel.jpg","1",".","37","0","482"
"16","16","encoding","encoding","301","Makeup_Compact.jpg","3",".","37","0","496"
"16","16","encoding","encoding","302","Stone_AncientWriting.jpg","1",".","37","0","785"
"16","16","encoding","encoding","303","Statue_Man.jpg","3",".","37","0","513"
"16","16","encoding","encoding","304","Toy_Lizard.jpg","3",".","36","0","513"
"16","16","encoding","encoding","305","PagodaModel.jpg","1",".","37","0","618"
"16","16","encoding","encoding","306","Helmet_Motorcycle.jpg","1",".","37","0","500"
"16","16","encoding","encoding","307","Helmet_Football.jpg","3",".","37","0","354"
"16","16","encoding","encoding","308","TortillaChip.jpg","3",".","37","0","642"
"16","16","encoding","encoding","309","Wontons.jpg","1",".","0","0","1000"
"16","16","encoding","encoding","310","Glass_Beer.jpg","1",".","37","0","770"
"16","16","encoding","encoding","311","Flags_CheckeredRacing.jpg","1",".","37","0","595"
"16","16","encoding","encoding","312","Spatula.jpg","3",".","37","0","446"
"16","16","encoding","encoding","313","Bird_Duck.jpg","3",".","36","0","534"
"16","16","encoding","encoding","314","Hedgehog.jpg","3",".","36","0","468"
"16","16","encoding","encoding","315","Spear.jpg","3",".","37","0","525"
"16","16","encoding","encoding","316","Light_Halogen.jpg","3",".","37","0","518"
"16","16","encoding","encoding","317","Cassette_Video.jpg","3",".","37","0","483"
"16","16","encoding","encoding","318","CarSuspension.jpg","1",".","37","0","552"
"16","16","encoding","encoding","319","Ladybug.jpg","3",".","36","0","465"
"16","16","encoding","encoding","320","SewingPin_Cushion.jpg","3",".","37","0","437"
"16","16","encoding","encoding","321","Barometer_Wood.jpg","3",".","37","0","367"
"16","16","encoding","encoding","322","Umbrella_Classic.jpg","3",".","37","0","520"
"16","16","encoding","encoding","323","MechanicalSpring.jpg","3",".","37","0","582"
"16","16","encoding","encoding","324","Tree_Fir.jpg","3",".","36","0","670"
"16","16","encoding","encoding","325","Lens_Camera.jpg","",".","37","0","411"
"16","16","retrieval","new_object","1","Toy_Firetruck.jpg",".",".","37","1","796"
"16","16","retrieval","new_object","2","GrillRack.jpg",".",".","37","1","719"
"16","16","retrieval","old_object","3","Makeup_Compact.jpg",".","3","36","1","576"
"16","16","retrieval","new_object","4","Notepad.jpg",".",".","37","1","672"
"16","16","retrieval","old_object","5","Glass_Beer.jpg",".","1","36","1","739"
"16","16","retrieval","old_object","6","SofaAntique.jpg",".","3","36","1","698"
"16","16","retrieval","old_object","7","Earring_Hoop.jpg",".","1","36","1","798"
"16","16","retrieval","old_object","8","Lens_Camera.jpg",".","3","36","1","564"
"16","16","retrieval","old_object","9","IceCream_Popsicle.jpg",".","1","36","1","597"
"16","16","retrieval","new_object","10","Jars_PetFood.jpg",".",".","37","1","540"
"16","16","retrieval","old_object","11","Bus_School.jpg",".","1","36","1","721"
"16","16","retrieval","old_object","12","Van.jpg",".","3","36","1","540"
"16","16","retrieval","new_object","13","Cheeseburger.jpg",".",".","37","1","744"
"16","16","retrieval","old_object","14","PocketKnife.jpg",".","1","36","1","824"
"16","16","retrieval","old_object","15","Ladybug.jpg",".","3","36","1","605"
"16","16","retrieval","new_object","16","Mitt_Blue.jpg",".",".","37","1","567"
"16","16","retrieval","old_object","17","Briefcase_Silver.jpg",".","1","36","1","618"
"16","16","retrieval","old_object","18","Scythe.jpg",".","3","36","1","446"
"16","16","retrieval","old_object","19","Gecko.jpg",".","3","36","1","653"
"16","16","retrieval","old_object","20","Taco.jpg",".","3","36","1","615"
"16","16","retrieval","new_object","21","VacuumHose.jpg",".",".","37","1","1044"
"16","16","retrieval","old_object","22","Handbag.jpg",".","1","36","1","852"
"16","16","retrieval","old_object","23","Box_FirstAid.jpg",".","1","36","1","713"
"16","16","retrieval","old_object","24","Statue_Man.jpg",".","3","36","1","562"
"16","16","retrieval","old_object","25","AirCompressor.jpg",".","3","36","1","622"
"16","16","retrieval","old_object","26","Bleachers.jpg",".","3","36","1","708"
"16","16","retrieval","old_object","27","MetalDetector.jpg",".","1","36","1","695"
"16","16","retrieval","old_object","28","Cart_Janitor.jpg",".","1","36","1","701"
"16","16","retrieval","old_object","29","Bark.jpg",".","3","36","1","698"
"16","16","retrieval","old_object","30","Barometer_Wood.jpg",".","3","36","1","975"
"16","16","retrieval","old_object","31","LicensePlate.jpg",".","1","36","1","808"
"16","16","retrieval","new_object","32","Stone_Spa.jpg",".",".","37","1","523"
"16","16","retrieval","old_object","33","Aquarium.jpg",".","3","36","1","679"
"16","16","retrieval","new_object","34","Airplane_Small.jpg",".",".","37","1","800"
"16","16","retrieval","old_object","35","Weathervane.jpg",".","3","36","1","833"
"16","16","retrieval","old_object","36","Clock_Interior.jpg",".","3","36","1","573"
"16","16","retrieval","new_object","37","Bowl_Chopsticks.jpg",".",".","37","1","1029"
"16","16","retrieval","old_object","38","PumiceStone.jpg",".","1","36","1","702"
"16","16","retrieval","new_object","39","Balcony.jpg",".",".","37","1","810"
"16","16","retrieval","old_object","40","CoffeeLid.jpg",".","1","36","1","786"
"16","16","retrieval","new_object","41","Helicopter.jpg",".",".","37","1","671"
"16","16","retrieval","new_object","42","TelescopeSpacecraft.jpg",".",".","37","1","862"
"16","16","retrieval","new_object","43","Cologne.jpg",".",".","37","1","893"
"16","16","retrieval","new_object","44","Suit_Women.jpg",".",".","37","1","738"
"16","16","retrieval","new_object","45","Bicycle_Kids.jpg",".",".","37","1","646"
"16","16","retrieval","old_object","46","HoseNozzle.jpg",".","1","36","1","858"
"16","16","retrieval","new_object","47","Mat_Bamboo.jpg",".",".","37","1","632"
"16","16","retrieval","new_object","48","Toy_BeadMaze.jpg",".",".","37","1","654"
"16","16","retrieval","old_object","49","Castle_Sand.jpg",".","3","36","1","699"
"16","16","retrieval","new_object","50","TowelRack_Metal.jpg",".",".","37","1","627"
"16","16","retrieval","new_object","51","Squash_Butternut.jpg",".",".","37","1","580"
"16","16","retrieval","old_object","52","Table_Saw.jpg",".","1","37","0","949"
"16","16","retrieval","new_object","53","Snowpea.jpg",".",".","37","1","850"
"16","16","retrieval","old_object","54","Desk_White.jpg",".","3","36","1","718"
"16","16","retrieval","old_object","55","Tube_Paint.jpg",".","1","36","1","772"
"16","16","retrieval","new_object","56","Dice.jpg",".",".","37","1","808"
"16","16","retrieval","new_object","57","Canister_Tea.jpg",".",".","37","1","643"
"16","16","retrieval","new_object","58","Sphinx.jpg",".",".","37","1","807"
"16","16","retrieval","old_object","59","Corkboard.jpg",".","3","36","1","693"
"16","16","retrieval","new_object","60","Otoscope.jpg",".",".","36","0","731"
"16","16","retrieval","new_object","61","Makeup_Bag.jpg",".",".","37","1","731"
"16","16","retrieval","new_object","62","Backhoe.jpg",".",".","37","1","737"
"16","16","retrieval","new_object","63","Lynx.jpg",".",".","37","1","723"
"16","16","retrieval","old_object","64","AirPump.jpg",".","1","36","1","851"
"16","16","retrieval","new_object","65","Ruler_Wooden.jpg",".",".","37","1","797"
"16","16","retrieval","new_object","67","FuzzyDice.jpg",".",".","37","1","848"
"16","16","retrieval","old_object","68","Bandage_Adhesive.jpg",".","3","36","1","697"
"16","16","retrieval","new_object","69","BrainSagittal.jpg",".",".","37","1","878"
"16","16","retrieval","old_object","70","Crab.jpg",".","1","36","1","951"
"16","16","retrieval","new_object","71","Stick_IceHockey.jpg",".",".","37","1","790"
"16","16","retrieval","old_object","72","LifeJacket_Orangejpg.jpg",".","3","36","1","801"
"16","16","retrieval","new_object","73","Heater_Outdoor.jpg",".",".","37","1","1043"
"16","16","retrieval","new_object","74","Box_Cutlery.jpg",".",".","37","1","854"
"16","16","retrieval","new_object","75","Shoes_Mould.jpg",".",".","37","1","663"
"16","16","retrieval","new_object","76","Clippers_Glass.jpg",".",".","37","1","633"
"16","16","retrieval","new_object","77","WalkieTalkie_Yellow.jpg",".",".","37","1","630"
"16","16","retrieval","old_object","78","Cake_Cheese.jpg",".","1","36","1","747"
"16","16","retrieval","old_object","79","sign_traffic.jpg",".","3","36","1","661"
"16","16","retrieval","old_object","80","Toy_LambPlushie.jpg",".","3","36","1","621"
"16","16","retrieval","old_object","81","DogSled.jpg",".","1","36","1","765"
"16","16","retrieval","new_object","82","Dropper.jpg",".",".","37","1","853"
"16","16","retrieval","new_object","83","TowelRack_Brown.jpg",".",".","37","1","1069"
"16","16","retrieval","old_object","84","Bowl_Glass.jpg",".","3","36","1","633"
"16","16","retrieval","new_object","85","Paddle_Ball.jpg",".",".","37","1","720"
"16","16","retrieval","old_object","86","Cable_JumpStart.jpg",".","3","36","1","731"
"16","16","retrieval","new_object","87","Garlic_Clove.jpg",".",".","37","1","628"
"16","16","retrieval","new_object","88","VinylRecord.jpg",".",".","37","1","1269"
"16","16","retrieval","new_object","89","Car_Buggy.jpg",".",".","37","1","718"
"16","16","retrieval","new_object","90","HairClipper.jpg",".",".","37","1","623"
"16","16","retrieval","new_object","91","WaterCooler.jpg",".",".","37","1","591"
"16","16","retrieval","old_object","92","DartBoard.jpg",".","3","36","1","793"
"16","16","retrieval","new_object","93","Scorpion.jpg",".",".","37","1","1417"
"16","16","retrieval","new_object","94","Seeder.jpg",".",".","37","1","907"
"16","16","retrieval","new_object","95","Card_Deck.jpg",".",".","37","1","503"
"16","16","retrieval","new_object","96","Ginger.jpg",".",".","37","1","1183"
"16","16","retrieval","old_object","97","Mask_Ski.jpg",".","1","36","1","770"
"16","16","retrieval","new_object","98","MortarPestle_WhiteMarble.jpg",".",".","37","1","1031"
"16","16","retrieval","old_object","99","Garlic_Whole.jpg",".","3","36","1","1051"
"16","16","retrieval","new_object","100","Tray_Metal.jpg",".",".","37","1","917"
"16","16","retrieval","old_object","101","House_Wooden.jpg",".","3","36","1","768"
"16","16","retrieval","old_object","102","DoubleBass.jpg",".","1","36","1","911"
"16","16","retrieval","new_object","103","Cloud.jpg",".",".","37","1","688"
"16","16","retrieval","new_object","104","Puzzle_Animal.jpg",".",".","37","1","1372"
"16","16","retrieval","new_object","105","Flashlight.jpg",".",".","36","0","833"
"16","16","retrieval","new_object","106","Candleholder_LampShaped.jpg",".",".","37","1","722"
"16","16","retrieval","old_object","107","Bucket_Halloween.jpg",".","1","36","1","704"
"16","16","retrieval","new_object","108","Pear_Green.jpg",".",".","37","1","761"
"16","16","retrieval","new_object","109","Stool_Camping.jpg",".",".","37","1","1212"
"16","16","retrieval","new_object","110","Speakers_Theatre.jpg",".",".","37","1","850"
"16","16","retrieval","old_object","111","Clave.jpg",".","1","36","1","766"
"16","16","retrieval","new_object","112","Hat_Police.jpg",".",".","37","1","666"
"16","16","retrieval","new_object","113","Tape_Dispenser.jpg",".",".","37","1","925"
"16","16","retrieval","new_object","114","ShoeLace_Flat.jpg",".",".","37","1","818"
"16","16","retrieval","new_object","115","CDstack.jpg",".",".","37","1","487"
"16","16","retrieval","new_object","116","Sign_SlipperyRoad.jpg",".",".","37","1","913"
"16","16","retrieval","new_object","117","NailFiles.jpg",".",".","37","1","752"
"16","16","retrieval","new_object","118","RadioactiveContainer.jpg",".",".","37","1","715"
"16","16","retrieval","old_object","119","SolderingIron.jpg",".","3","36","1","791"
"16","16","retrieval","new_object","120","Heater_ElectricUpright.jpg",".",".","37","1","719"
"16","16","retrieval","old_object","121","Stool_Metal.jpg",".","3","36","1","623"
"16","16","retrieval","old_object","122","Tube_Glue.jpg",".","1","36","1","718"
"16","16","retrieval","old_object","123","Backpack_Suitcase.jpg",".","3","36","1","656"
"16","16","retrieval","old_object","124","Television.jpg",".","3","36","1","617"
"16","16","retrieval","old_object","125","Branch.jpg",".","3","36","1","812"
"16","16","retrieval","new_object","126","RecorderInstrument.jpg",".",".","37","1","667"
"16","16","retrieval","old_object","127","Arch_Triomphe.jpg",".","3","36","1","717"
"16","16","retrieval","old_object","128","Acorn.jpg",".","1","36","1","951"
"16","16","retrieval","old_object","129","WaterWell.jpg",".","3","36","1","870"
"16","16","retrieval","old_object","130","Envelope_Manila.jpg",".","3","36","1","601"
"16","16","retrieval","new_object","131","MatchBook.jpg",".",".","37","1","882"
"16","16","retrieval","new_object","133","Glove_Baseball.jpg",".",".","37","1","927"
"16","16","retrieval","old_object","134","PulleyWooden.jpg",".","1","36","1","931"
"16","16","retrieval","new_object","135","Toy_Ladybug.jpg",".",".","37","1","822"
"16","16","retrieval","new_object","136","Toy_Christmastree.jpg",".",".","37","1","708"
"16","16","retrieval","old_object","137","MechanicalSpring.jpg",".","3","36","1","860"
"16","16","retrieval","old_object","138","SolderingWire.jpg",".","1","36","1","776"
"16","16","retrieval","new_object","139","Camera_Video.jpg",".",".","37","1","929"
"16","16","retrieval","new_object","140","Box_WoodCrate.jpg",".",".","37","1","694"
"16","16","retrieval","old_object","141","Nuts_Pecan.jpg",".","3","36","1","737"
"16","16","retrieval","old_object","142","Cinnamonroll.jpg",".","1","36","1","1031"
"16","16","retrieval","new_object","143","Sink_Kitchen.jpg",".",".","37","1","806"
"16","16","retrieval","new_object","144","Coral.jpg",".",".","37","1","1109"
"16","16","retrieval","new_object","145","Decoration_ChristmasWhite.jpg",".",".","37","1","1171"
"16","16","retrieval","new_object","146","SnowmanDecor.jpg",".",".","37","1","638"
"16","16","retrieval","old_object","147","Bottle_Beer.jpg",".","1","36","1","717"
"16","16","retrieval","new_object","148","Toy_Dog.jpg",".",".","37","1","1376"
"16","16","retrieval","new_object","149","Compressor.jpg",".",".","0","0","2000"
"16","16","retrieval","new_object","150","Suitcase.jpg",".",".","37","1","862"
"16","16","retrieval","old_object","151","TortillaChip.jpg",".","3","36","1","711"
"16","16","retrieval","old_object","152","Light_Studio.jpg",".","1","36","1","719"
"16","16","retrieval","new_object","153","Toy_BearBrownPlushie.jpg",".",".","37","1","742"
"16","16","retrieval","new_object","154","DonaldDuck_Toy.jpg",".",".","37","1","545"
"16","16","retrieval","old_object","155","Helmet_Football.jpg",".","3","36","1","708"
"16","16","retrieval","new_object","156","Ostrich.jpg",".",".","37","1","699"
"16","16","retrieval","old_object","157","ManholeCover.jpg",".","3","36","1","641"
"16","16","retrieval","old_object","158","SewingPin_Cushion.jpg",".","3","36","1","1033"
"16","16","retrieval","new_object","159","LintRemover.jpg",".",".","37","1","688"
"16","16","retrieval","old_object","160","Oars.jpg",".","3","36","1","1523"
"16","16","retrieval","new_object","161","Golf_Club.jpg",".",".","37","1","1359"
"16","16","retrieval","new_object","162","Match.jpg",".",".","37","1","1447"
"16","16","retrieval","new_object","163","Drum_Ramadan.jpg",".",".","37","1","765"
"16","16","retrieval","old_object","164","Lollipop_Rainbow.jpg",".","3","36","1","710"
"16","16","retrieval","old_object","165","Bread_Roll.jpg",".","1","36","1","663"
"16","16","retrieval","new_object","166","Bagpipes.jpg",".",".","37","1","921"
"16","16","retrieval","old_object","167","Mailbox_Antique.jpg",".","3","36","1","824"
"16","16","retrieval","new_object","168","Pouch_Red.jpg",".",".","37","1","578"
"16","16","retrieval","new_object","169","PersonWooden.jpg",".",".","37","1","695"
"16","16","retrieval","old_object","170","PagodaModel.jpg",".","1","36","1","727"
"16","16","retrieval","old_object","171","Microwave.jpg",".","1","36","1","654"
"16","16","retrieval","new_object","172","Pyramid.jpg",".",".","37","1","975"
"16","16","retrieval","old_object","173","Hedgehog.jpg",".","3","36","1","739"
"16","16","retrieval","old_object","174","Bird_Duck.jpg",".","3","36","1","695"
"16","16","retrieval","new_object","175","Computer_ExpansionCard.jpg",".",".","37","1","790"
"16","16","retrieval","new_object","176","IroningBoard.jpg",".",".","36","0","1315"
"16","16","retrieval","new_object","177","ComputerKey_Escape.jpg",".",".","37","1","677"
"16","16","retrieval","new_object","178","IceCubes.jpg",".",".","37","1","599"
"16","16","retrieval","old_object","179","Canister_Oil.jpg",".","1","36","1","793"
"16","16","retrieval","old_object","180","Lighter_Black.jpg",".","1","36","1","855"
"16","16","retrieval","old_object","181","MemoPaperSpike.jpg",".","1","36","1","722"
"16","16","retrieval","new_object","182","Lips_Wax.jpg",".",".","37","1","586"
"16","16","retrieval","new_object","183","PaperTowel_Brown.jpg",".",".","37","1","725"
"16","16","retrieval","new_object","184","EyeChart.jpg",".",".","37","1","668"
"16","16","retrieval","new_object","185","OperaGlasses.jpg",".",".","37","1","706"
"16","16","retrieval","old_object","186","Binder.jpg",".","3","36","1","594"
"16","16","retrieval","old_object","187","Platter_Vegetables.jpg",".","1","36","1","785"
"16","16","retrieval","old_object","188","Milkshake_Strawberry.jpg",".","1","36","1","600"
"16","16","retrieval","old_object","189","Ship_Cruise.jpg",".","1","36","1","744"
"16","16","retrieval","new_object","190","Clamp_Screw.jpg",".",".","37","1","717"
"16","16","retrieval","new_object","191","Stick_Stirring.jpg",".",".","37","1","1609"
"16","16","retrieval","old_object","192","Candy_Lozenge.jpg",".","1","36","1","711"
"16","16","retrieval","old_object","193","Spear.jpg",".","3","36","1","615"
"16","16","retrieval","new_object","194","Paddle_Canoe.jpg",".",".","37","1","1064"
"16","16","retrieval","old_object","195","Thermometer_Room.jpg",".","3","36","1","727"
"16","16","retrieval","old_object","196","Wontons.jpg",".","1","36","1","733"
"16","16","retrieval","old_object","197","MousepadAndMouse.jpg",".","1","36","1","863"
"16","16","retrieval","new_object","199","ColoringSet.jpg",".",".","37","1","828"
"16","16","retrieval","new_object","200","FlintIgniter.jpg",".",".","37","1","757"
"16","16","retrieval","old_object","201","Cassette_Video.jpg",".","3","36","1","583"
"16","16","retrieval","old_object","202","Stone_AncientWriting.jpg",".","1","36","1","666"
"16","16","retrieval","old_object","203","HairCurler.jpg",".","1","36","1","896"
"16","16","retrieval","old_object","204","Trash_Medical.jpg",".","1","36","1","704"
"16","16","retrieval","new_object","205","PumpBreast.jpg",".",".","37","1","984"
"16","16","retrieval","old_object","206","Case_Pencil.jpg",".","1","36","1","981"
"16","16","retrieval","old_object","207","Amp.jpg",".","1","36","1","824"
"16","16","retrieval","old_object","208","PyramidWooden.jpg",".","3","36","1","695"
"16","16","retrieval","old_object","209","Sign_Construction.jpg",".","1","36","1","675"
"16","16","retrieval","new_object","210","Carrot.jpg",".",".","37","1","639"
"16","16","retrieval","new_object","211","Toy_Wooden rings.jpg",".",".","36","0","487"
"16","16","retrieval","old_object","212","Hockey_Puck.jpg",".","1","36","1","959"
"16","16","retrieval","new_object","213","DeepFryer.jpg",".",".","37","1","780"
"16","16","retrieval","old_object","214","GasStation.jpg",".","1","36","1","1752"
"16","16","retrieval","old_object","215","Cannon.jpg",".","3","36","1","878"
"16","16","retrieval","old_object","216","Fork_Regular.jpg",".","1","37","0","911"
"16","16","retrieval","old_object","217","Radish.jpg",".","1","36","1","1657"
"16","16","retrieval","new_object","218","Mask_VenetianCat.jpg",".",".","37","1","1559"
"16","16","retrieval","old_object","219","Helmet_Motorcycle.jpg",".","1","36","1","923"
"16","16","retrieval","old_object","220","Barometer.jpg",".","1","37","0","1138"
"16","16","retrieval","new_object","221","TreeStump.jpg",".",".","37","1","925"
"16","16","retrieval","new_object","222","BowlingPin.jpg",".",".","37","1","601"
"16","16","retrieval","old_object","223","Statue_Horse.jpg",".","1","37","0","832"
"16","16","retrieval","new_object","224","Shirt_Tshirt.jpg",".",".","37","1","582"
"16","16","retrieval","new_object","225","Coin.jpg",".",".","37","1","715"
"16","16","retrieval","new_object","226","WaterHeater.jpg",".",".","37","1","807"
"16","16","retrieval","old_object","227","CodeDoorLock.jpg",".","3","36","1","729"
"16","16","retrieval","new_object","228","Toy_Taxi.jpg",".",".","37","1","938"
"16","16","retrieval","old_object","229","Cymbals.jpg",".","3","36","1","880"
"16","16","retrieval","new_object","230","ClothesDryingRack.jpg",".",".","37","1","700"
"16","16","retrieval","old_object","231","Bread_Loaf.jpg",".","1","36","1","706"
"16","16","retrieval","new_object","232","SaladCaesar.jpg",".",".","37","1","693"
"16","16","retrieval","new_object","233","Lobster.jpg",".",".","37","1","1098"
"16","16","retrieval","new_object","234","HairBand.jpg",".",".","37","1","760"
"16","16","retrieval","new_object","235","Shrimp.jpg",".",".","37","1","837"
"16","16","retrieval","new_object","236","PaperCutter.jpg",".",".","37","1","706"
"16","16","retrieval","old_object","237","RAMchip.jpg",".","3","36","1","747"
"16","16","retrieval","new_object","238","Pretzel_Sticks.jpg",".",".","37","1","573"
"16","16","retrieval","old_object","239","Toy_PandaPlushie.jpg",".","1","36","1","766"
"16","16","retrieval","old_object","240","Toy_MerryGoRound.jpg",".","3","36","1","928"
"16","16","retrieval","old_object","241","Bone.jpg",".","1","36","1","1047"
"16","16","retrieval","new_object","242","LeafBlower.jpg",".",".","37","1","1028"
"16","16","retrieval","new_object","243","Tray_Medical.jpg",".",".","37","1","702"
"16","16","retrieval","old_object","244","Barbecue_Charcoal.jpg",".","1","36","1","837"
"16","16","retrieval","old_object","245","Light_Fixtures.jpg",".","3","36","1","656"
"16","16","retrieval","old_object","246","Umbrella_Classic.jpg",".","3","36","1","622"
"16","16","retrieval","new_object","247","Blueberry.jpg",".",".","37","1","602"
