"group","subject","blockcode","trialcode","trialnum","stimulus","encoding_condition","old_object_condition","response","correct","latency"
"30","30","encoding","encoding","1","F27.jpg","3",".","0","0","1000"
"30","30","encoding","encoding","2","E16.jpg","1",".","0","0","1000"
"30","30","encoding","encoding","3","E54.jpg","1",".","0","0","1000"
"30","30","encoding","encoding","4","F51.jpg","3",".","0","0","1000"
"30","30","encoding","encoding","5","F54.jpg","3",".","0","0","1000"
"30","30","encoding","encoding","6","F23.jpg","3",".","0","0","1000"
"30","30","encoding","encoding","7","E26.jpg","1",".","37","0","915"
"30","30","encoding","encoding","8","F6.jpg","3",".","37","0","976"
"30","30","encoding","encoding","9","F8.jpg","3",".","0","0","1000"
"30","30","encoding","encoding","10","E12.jpg","1",".","0","0","1000"
"30","30","encoding","encoding","11","F79.jpg","3",".","0","0","1000"
"30","30","encoding","encoding","12","E22.jpg","1",".","0","0","1000"
"30","30","encoding","encoding","13","F67.jpg","3",".","0","0","1000"
"30","30","encoding","encoding","14","F68.jpg","3",".","0","0","1000"
"30","30","encoding","encoding","15","F29.jpg","3",".","0","0","1000"
"30","30","encoding","encoding","16","F0.jpg","3",".","0","0","1000"
"30","30","encoding","encoding","17","E50.jpg","1",".","0","0","1000"
"30","30","encoding","encoding","18","F69.jpg","3",".","0","0","1000"
"30","30","encoding","encoding","19","F8.jpg","3",".","0","0","1000"
"30","30","encoding","encoding","20","F39.jpg","3",".","36","0","989"
"30","30","encoding","encoding","21","F25.jpg","3",".","37","0","932"
"30","30","encoding","encoding","22","F9.jpg","3",".","36","0","950"
"30","30","encoding","encoding","23","E14.jpg","1",".","0","0","1000"
"30","30","encoding","encoding","24","F43.jpg","3",".","37","0","841"
"30","30","encoding","encoding","25","F45.jpg","3",".","37","0","803"
"30","30","encoding","encoding","26","E56.jpg","1",".","37","0","894"
"30","30","encoding","encoding","27","E53.jpg","1",".","0","0","1000"
"30","30","encoding","encoding","28","F52.jpg","3",".","0","0","1000"
"30","30","encoding","encoding","29","F14.jpg","3",".","37","0","832"
"30","30","encoding","encoding","30","F78.jpg","3",".","37","0","776"
"30","30","encoding","encoding","31","F50.jpg","3",".","37","0","921"
"30","30","encoding","encoding","32","F75.jpg","3",".","37","0","895"
"30","30","encoding","encoding","33","F28.jpg","3",".","0","0","1000"
"30","30","encoding","encoding","34","E51.jpg","1",".","37","0","821"
"30","30","encoding","encoding","35","F55.jpg","3",".","37","0","663"
"30","30","encoding","encoding","36","F65.jpg","3",".","37","0","774"
"30","30","encoding","encoding","37","E17.jpg","1",".","37","0","774"
"30","30","encoding","encoding","38","E49.jpg","1",".","0","0","1000"
"30","30","encoding","encoding","39","F70.jpg","3",".","0","0","1000"
"30","30","encoding","encoding","40","F54.jpg","3",".","36","0","880"
"30","30","encoding","encoding","41","F39.jpg","3",".","36","0","730"
"30","30","encoding","encoding","42","F73.jpg","3",".","37","0","873"
"30","30","encoding","encoding","43","F6.jpg","3",".","37","0","688"
"30","30","encoding","encoding","44","F35.jpg","3",".","37","0","599"
"30","30","encoding","encoding","45","F54.jpg","3",".","36","0","692"
"30","30","encoding","encoding","46","E5.jpg","1",".","36","0","785"
"30","30","encoding","encoding","47","E60.jpg","1",".","37","0","678"
"30","30","encoding","encoding","48","F5.jpg","3",".","0","0","1000"
"30","30","encoding","encoding","49","F14.jpg","3",".","37","0","716"
"30","30","encoding","encoding","50","F40.jpg","3",".","37","0","767"
"30","30","encoding","encoding","51","F34.jpg","3",".","37","0","860"
"30","30","encoding","encoding","52","F33.jpg","3",".","37","0","682"
"30","30","encoding","encoding","53","F12.jpg","3",".","37","0","730"
"30","30","encoding","encoding","54","F41.jpg","3",".","36","0","942"
"30","30","encoding","encoding","55","F3.jpg","3",".","37","0","834"
"30","30","encoding","encoding","56","E47.jpg","1",".","37","0","733"
"30","30","encoding","encoding","57","F5.jpg","3",".","0","0","1000"
"30","30","encoding","encoding","58","E73.jpg","1",".","37","0","788"
"30","30","encoding","encoding","59","F79.jpg","3",".","37","0","802"
"30","30","encoding","encoding","60","F65.jpg","3",".","37","0","752"
"30","30","encoding","encoding","61","F37.jpg","3",".","37","0","786"
"30","30","encoding","encoding","62","F41.jpg","3",".","37","0","943"
"30","30","encoding","encoding","63","F0.jpg","3",".","37","0","615"
"30","30","encoding","encoding","64","F18.jpg","3",".","37","0","600"
"30","30","encoding","encoding","65","E59.jpg","1",".","0","0","1000"
"30","30","encoding","encoding","67","F15.jpg","3",".","37","0","987"
"30","30","encoding","encoding","68","F16.jpg","3",".","36","0","784"
"30","30","encoding","encoding","69","F37.jpg","3",".","37","0","831"
"30","30","encoding","encoding","70","F37.jpg","3",".","37","0","743"
"30","30","encoding","encoding","71","E23.jpg","1",".","0","0","1000"
"30","30","encoding","encoding","72","E29.jpg","1",".","37","0","717"
"30","30","encoding","encoding","73","E31.jpg","1",".","0","0","1000"
"30","30","encoding","encoding","74","F49.jpg","3",".","37","0","750"
"30","30","encoding","encoding","75","F46.jpg","3",".","37","0","666"
"30","30","encoding","encoding","76","E11.jpg","1",".","37","0","713"
"30","30","encoding","encoding","77","F18.jpg","3",".","37","0","701"
"30","30","encoding","encoding","78","F4.jpg","3",".","37","0","671"
"30","30","encoding","encoding","79","F74.jpg","3",".","0","0","1000"
"30","30","encoding","encoding","80","F29.jpg","3",".","37","0","668"
"30","30","encoding","encoding","81","F59.jpg","3",".","37","0","671"
"30","30","encoding","encoding","82","F22.jpg","3",".","36","0","962"
"30","30","encoding","encoding","83","E35.jpg","1",".","37","0","663"
"30","30","encoding","encoding","84","F50.jpg","3",".","37","0","675"
"30","30","encoding","encoding","85","F72.jpg","3",".","37","0","624"
"30","30","encoding","encoding","86","F64.jpg","3",".","37","0","605"
"30","30","encoding","encoding","87","F35.jpg","3",".","37","0","666"
"30","30","encoding","encoding","88","E43.jpg","1",".","37","0","644"
"30","30","encoding","encoding","89","F40.jpg","3",".","37","0","583"
"30","30","encoding","encoding","90","F77.jpg","3",".","37","0","556"
"30","30","encoding","encoding","91","E44.jpg","1",".","37","0","666"
"30","30","encoding","encoding","92","F31.jpg","3",".","37","0","606"
"30","30","encoding","encoding","93","E6.jpg","1",".","37","0","563"
"30","30","encoding","encoding","94","F69.jpg","3",".","36","0","859"
"30","30","encoding","encoding","95","F66.jpg","3",".","37","0","808"
"30","30","encoding","encoding","96","E77.jpg","1",".","37","0","670"
"30","30","encoding","encoding","97","F38.jpg","3",".","37","0","905"
"30","30","encoding","encoding","98","E72.jpg","1",".","0","0","1000"
"30","30","encoding","encoding","99","E69.jpg","1",".","0","0","1000"
"30","30","encoding","encoding","100","E30.jpg","1",".","37","0","769"
"30","30","encoding","encoding","101","F76.jpg","3",".","37","0","625"
"30","30","encoding","encoding","102","F60.jpg","3",".","37","0","636"
"30","30","encoding","encoding","103","F7.jpg","3",".","0","0","1000"
"30","30","encoding","encoding","104","E58.jpg","1",".","37","0","713"
"30","30","encoding","encoding","105","F2.jpg","3",".","37","0","685"
"30","30","encoding","encoding","106","F55.jpg","3",".","37","0","746"
"30","30","encoding","encoding","107","F35.jpg","3",".","37","0","596"
"30","30","encoding","encoding","108","F71.jpg","3",".","37","0","727"
"30","30","encoding","encoding","109","E4.jpg","1",".","37","0","694"
"30","30","encoding","encoding","110","E48.jpg","1",".","37","0","606"
"30","30","encoding","encoding","111","F33.jpg","3",".","37","0","638"
"30","30","encoding","encoding","112","F36.jpg","3",".","37","0","654"
"30","30","encoding","encoding","113","F36.jpg","3",".","37","0","667"
"30","30","encoding","encoding","114","F64.jpg","3",".","37","0","568"
"30","30","encoding","encoding","115","F68.jpg","3",".","37","0","621"
"30","30","encoding","encoding","116","F29.jpg","3",".","37","0","582"
"30","30","encoding","encoding","117","E66.jpg","1",".","0","0","1000"
"30","30","encoding","encoding","118","E57.jpg","1",".","37","0","796"
"30","30","encoding","encoding","119","E33.jpg","1",".","0","0","1000"
"30","30","encoding","encoding","120","F24.jpg","3",".","37","0","653"
"30","30","encoding","encoding","121","F50.jpg","3",".","37","0","685"
"30","30","encoding","encoding","122","E38.jpg","1",".","37","0","672"
"30","30","encoding","encoding","123","E52.jpg","1",".","36","0","719"
"30","30","encoding","encoding","124","F31.jpg","3",".","37","0","742"
"30","30","encoding","encoding","125","F4.jpg","3",".","37","0","669"
"30","30","encoding","encoding","126","E34.jpg","1",".","37","0","723"
"30","30","encoding","encoding","127","F48.jpg","3",".","37","0","704"
"30","30","encoding","encoding","128","F76.jpg","3",".","37","0","664"
"30","30","encoding","encoding","129","F1.jpg","3",".","0","0","1000"
"30","30","encoding","encoding","130","F47.jpg","3",".","37","0","680"
"30","30","encoding","encoding","131","E9.jpg","1",".","37","0","672"
"30","30","encoding","encoding","133","F75.jpg","3",".","37","0","745"
"30","30","encoding","encoding","134","E39.jpg","1",".","37","0","722"
"30","30","encoding","encoding","135","F62.jpg","3",".","37","0","597"
"30","30","encoding","encoding","136","F77.jpg","3",".","37","0","660"
"30","30","encoding","encoding","137","E55.jpg","1",".","37","0","646"
"30","30","encoding","encoding","138","F30.jpg","3",".","0","0","1000"
"30","30","encoding","encoding","139","F56.jpg","3",".","36","0","832"
"30","30","encoding","encoding","140","F57.jpg","3",".","37","0","544"
"30","30","encoding","encoding","141","E68.jpg","1",".","36","0","819"
"30","30","encoding","encoding","142","F66.jpg","3",".","37","0","692"
"30","30","encoding","encoding","143","F53.jpg","3",".","0","0","1000"
"30","30","encoding","encoding","144","F58.jpg","3",".","37","0","969"
"30","30","encoding","encoding","145","F23.jpg","3",".","37","0","646"
"30","30","encoding","encoding","146","F21.jpg","3",".","37","0","632"
"30","30","encoding","encoding","147","F57.jpg","3",".","37","0","733"
"30","30","encoding","encoding","148","F39.jpg","3",".","36","0","979"
"30","30","encoding","encoding","149","F22.jpg","3",".","36","0","588"
"30","30","encoding","encoding","150","F49.jpg","3",".","37","0","591"
"30","30","encoding","encoding","151","E20.jpg","1",".","37","0","620"
"30","30","encoding","encoding","152","F56.jpg","3",".","0","0","1000"
"30","30","encoding","encoding","153","F70.jpg","3",".","36","0","694"
"30","30","encoding","encoding","154","F60.jpg","3",".","37","0","634"
"30","30","encoding","encoding","155","F63.jpg","3",".","0","0","1000"
"30","30","encoding","encoding","156","F57.jpg","3",".","37","0","599"
"30","30","encoding","encoding","157","F63.jpg","3",".","37","0","660"
"30","30","encoding","encoding","158","F27.jpg","3",".","37","0","651"
"30","30","encoding","encoding","159","F58.jpg","3",".","37","0","641"
"30","30","encoding","encoding","160","F55.jpg","3",".","37","0","558"
"30","30","encoding","encoding","161","F47.jpg","3",".","37","0","657"
"30","30","encoding","encoding","162","F13.jpg","3",".","37","0","695"
"30","30","encoding","encoding","163","F1.jpg","3",".","37","0","670"
"30","30","encoding","encoding","164","E28.jpg","1",".","0","0","1000"
"30","30","encoding","encoding","165","F10.jpg","3",".","37","0","640"
"30","30","encoding","encoding","166","F27.jpg","3",".","37","0","777"
"30","30","encoding","encoding","167","F36.jpg","3",".","37","0","934"
"30","30","encoding","encoding","168","F62.jpg","3",".","37","0","814"
"30","30","encoding","encoding","169","F59.jpg","3",".","37","0","602"
"30","30","encoding","encoding","170","E74.jpg","1",".","37","0","976"
"30","30","encoding","encoding","171","F46.jpg","3",".","37","0","643"
"30","30","encoding","encoding","172","F52.jpg","3",".","37","0","500"
"30","30","encoding","encoding","173","F59.jpg","3",".","37","0","572"
"30","30","encoding","encoding","174","F71.jpg","3",".","37","0","561"
"30","30","encoding","encoding","175","E10.jpg","1",".","37","0","668"
"30","30","encoding","encoding","176","F1.jpg","3",".","37","0","674"
"30","30","encoding","encoding","177","F74.jpg","3",".","37","0","580"
"30","30","encoding","encoding","178","F15.jpg","3",".","37","0","723"
"30","30","encoding","encoding","179","F68.jpg","3",".","37","0","533"
"30","30","encoding","encoding","180","F78.jpg","3",".","37","0","499"
"30","30","encoding","encoding","181","F24.jpg","3",".","37","0","502"
"30","30","encoding","encoding","182","F25.jpg","3",".","37","0","640"
"30","30","encoding","encoding","183","F56.jpg","3",".","0","0","1000"
"30","30","encoding","encoding","184","F69.jpg","3",".","0","0","1000"
"30","30","encoding","encoding","185","E78.jpg","1",".","37","0","775"
"30","30","encoding","encoding","186","E25.jpg","1",".","37","0","649"
"30","30","encoding","encoding","187","F64.jpg","3",".","37","0","506"
"30","30","encoding","encoding","188","E41.jpg","1",".","37","0","634"
"30","30","encoding","encoding","189","E42.jpg","1",".","37","0","560"
"30","30","encoding","encoding","190","F11.jpg","3",".","37","0","733"
"30","30","encoding","encoding","191","F66.jpg","3",".","37","0","770"
"30","30","encoding","encoding","192","F32.jpg","3",".","37","0","757"
"30","30","encoding","encoding","193","E46.jpg","1",".","37","0","767"
"30","30","encoding","encoding","194","E1.jpg","1",".","37","0","685"
"30","30","encoding","encoding","195","E21.jpg","1",".","37","0","753"
"30","30","encoding","encoding","196","F53.jpg","3",".","37","0","727"
"30","30","encoding","encoding","197","F62.jpg","3",".","37","0","662"
"30","30","encoding","encoding","199","E15.jpg","1",".","37","0","898"
"30","30","encoding","encoding","200","E13.jpg","1",".","0","0","1000"
"30","30","encoding","encoding","201","F73.jpg","3",".","37","0","916"
"30","30","encoding","encoding","202","F33.jpg","3",".","37","0","668"
"30","30","encoding","encoding","203","F17.jpg","3",".","37","0","720"
"30","30","encoding","encoding","204","E65.jpg","1",".","0","0","1000"
"30","30","encoding","encoding","205","F13.jpg","3",".","37","0","740"
"30","30","encoding","encoding","206","F23.jpg","3",".","37","0","590"
"30","30","encoding","encoding","207","F10.jpg","3",".","37","0","601"
"30","30","encoding","encoding","208","F48.jpg","3",".","37","0","638"
"30","30","encoding","encoding","209","E64.jpg","1",".","37","0","419"
"30","30","encoding","encoding","210","F38.jpg","3",".","37","0","643"
"30","30","encoding","encoding","211","F15.jpg","3",".","37","0","620"
"30","30","encoding","encoding","212","F30.jpg","3",".","0","0","1000"
"30","30","encoding","encoding","213","F5.jpg","3",".","36","0","702"
"30","30","encoding","encoding","214","E37.jpg","1",".","37","0","735"
"30","30","encoding","encoding","215","F26.jpg","3",".","37","0","729"
"30","30","encoding","encoding","216","F22.jpg","3",".","36","0","886"
"30","30","encoding","encoding","217","F4.jpg","3",".","37","0","826"
"30","30","encoding","encoding","218","F17.jpg","3",".","37","0","569"
"30","30","encoding","encoding","219","F48.jpg","3",".","37","0","419"
"30","30","encoding","encoding","220","F6.jpg","3",".","37","0","529"
"30","30","encoding","encoding","221","F21.jpg","3",".","37","0","489"
"30","30","encoding","encoding","222","F72.jpg","3",".","37","0","564"
"30","30","encoding","encoding","223","E75.jpg","1",".","36","0","827"
"30","30","encoding","encoding","224","F73.jpg","3",".","37","0","591"
"30","30","encoding","encoding","225","E61.jpg","1",".","37","0","619"
"30","30","encoding","encoding","226","E24.jpg","1",".","37","0","692"
"30","30","encoding","encoding","227","F72.jpg","3",".","37","0","626"
"30","30","encoding","encoding","228","F78.jpg","3",".","37","0","551"
"30","30","encoding","encoding","229","F24.jpg","3",".","37","0","518"
"30","30","encoding","encoding","230","F79.jpg","3",".","37","0","633"
"30","30","encoding","encoding","231","E2.jpg","1",".","37","0","738"
"30","30","encoding","encoding","232","F51.jpg","3",".","0","0","1000"
"30","30","encoding","encoding","233","E0.jpg","1",".","37","0","540"
"30","30","encoding","encoding","234","F70.jpg","3",".","36","0","721"
"30","30","encoding","encoding","235","F46.jpg","3",".","37","0","574"
"30","30","encoding","encoding","236","E79.jpg","1",".","36","0","819"
"30","30","encoding","encoding","237","F19.jpg","3",".","0","0","1000"
"30","30","encoding","encoding","238","F47.jpg","3",".","37","0","554"
"30","30","encoding","encoding","239","F8.jpg","3",".","37","0","578"
"30","30","encoding","encoding","240","E70.jpg","1",".","36","0","764"
"30","30","encoding","encoding","241","F61.jpg","3",".","36","0","765"
"30","30","encoding","encoding","242","F76.jpg","3",".","37","0","592"
"30","30","encoding","encoding","243","F3.jpg","3",".","37","0","521"
"30","30","encoding","encoding","244","F58.jpg","3",".","37","0","600"
"30","30","encoding","encoding","245","F20.jpg","3",".","37","0","724"
"30","30","encoding","encoding","246","F32.jpg","3",".","37","0","810"
"30","30","encoding","encoding","247","E18.jpg","1",".","37","0","682"
"30","30","encoding","encoding","248","F20.jpg","3",".","37","0","563"
"30","30","encoding","encoding","249","F61.jpg","3",".","36","0","890"
"30","30","encoding","encoding","250","E62.jpg","1",".","37","0","639"
"30","30","encoding","encoding","251","F44.jpg","3",".","37","0","652"
"30","30","encoding","encoding","252","F19.jpg","3",".","36","0","888"
"30","30","encoding","encoding","253","E8.jpg","1",".","37","0","604"
"30","30","encoding","encoding","254","F67.jpg","3",".","37","0","492"
"30","30","encoding","encoding","255","F2.jpg","3",".","37","0","490"
"30","30","encoding","encoding","256","F42.jpg","3",".","37","0","568"
"30","30","encoding","encoding","257","F31.jpg","3",".","37","0","661"
"30","30","encoding","encoding","258","F43.jpg","3",".","37","0","590"
"30","30","encoding","encoding","259","F12.jpg","3",".","37","0","543"
"30","30","encoding","encoding","260","E36.jpg","1",".","37","0","483"
"30","30","encoding","encoding","261","F45.jpg","3",".","37","0","642"
"30","30","encoding","encoding","262","F7.jpg","3",".","37","0","776"
"30","30","encoding","encoding","263","F74.jpg","3",".","37","0","552"
"30","30","encoding","encoding","265","E19.jpg","1",".","37","0","944"
"30","30","encoding","encoding","266","F7.jpg","3",".","37","0","681"
"30","30","encoding","encoding","267","F26.jpg","3",".","37","0","558"
"30","30","encoding","encoding","268","E67.jpg","1",".","37","0","510"
"30","30","encoding","encoding","269","F67.jpg","3",".","37","0","476"
"30","30","encoding","encoding","270","F44.jpg","3",".","37","0","479"
"30","30","encoding","encoding","271","F28.jpg","3",".","37","0","658"
"30","30","encoding","encoding","272","F52.jpg","3",".","37","0","675"
"30","30","encoding","encoding","273","F53.jpg","3",".","37","0","525"
"30","30","encoding","encoding","274","F14.jpg","3",".","37","0","570"
"30","30","encoding","encoding","275","F28.jpg","3",".","37","0","713"
"30","30","encoding","encoding","276","E76.jpg","1",".","37","0","487"
"30","30","encoding","encoding","277","E7.jpg","1",".","0","0","1000"
"30","30","encoding","encoding","278","F49.jpg","3",".","37","0","927"
"30","30","encoding","encoding","279","F34.jpg","3",".","37","0","672"
"30","30","encoding","encoding","280","F30.jpg","3",".","36","0","745"
"30","30","encoding","encoding","281","F75.jpg","3",".","37","0","553"
"30","30","encoding","encoding","282","F45.jpg","3",".","37","0","782"
"30","30","encoding","encoding","283","F63.jpg","3",".","37","0","676"
"30","30","encoding","encoding","284","F18.jpg","3",".","37","0","811"
"30","30","encoding","encoding","285","F34.jpg","3",".","37","0","792"
"30","30","encoding","encoding","286","F21.jpg","3",".","37","0","595"
"30","30","encoding","encoding","287","F61.jpg","3",".","36","0","769"
"30","30","encoding","encoding","288","F42.jpg","3",".","37","0","540"
"30","30","encoding","encoding","289","F9.jpg","3",".","36","0","742"
"30","30","encoding","encoding","290","F25.jpg","3",".","37","0","586"
"30","30","encoding","encoding","291","F43.jpg","3",".","37","0","511"
"30","30","encoding","encoding","292","E27.jpg","1",".","36","0","758"
"30","30","encoding","encoding","293","F60.jpg","3",".","37","0","579"
"30","30","encoding","encoding","294","E63.jpg","1",".","37","0","861"
"30","30","encoding","encoding","295","F77.jpg","3",".","37","0","519"
"30","30","encoding","encoding","296","F40.jpg","3",".","37","0","505"
"30","30","encoding","encoding","297","E45.jpg","1",".","37","0","694"
"30","30","encoding","encoding","298","F42.jpg","3",".","37","0","605"
"30","30","encoding","encoding","299","F26.jpg","3",".","37","0","586"
"30","30","encoding","encoding","300","F16.jpg","3",".","36","0","909"
"30","30","encoding","encoding","301","F11.jpg","3",".","37","0","765"
"30","30","encoding","encoding","302","F13.jpg","3",".","37","0","454"
"30","30","encoding","encoding","303","F38.jpg","3",".","37","0","603"
"30","30","encoding","encoding","304","E32.jpg","1",".","36","0","876"
"30","30","encoding","encoding","305","F12.jpg","3",".","37","0","557"
"30","30","encoding","encoding","306","F16.jpg","3",".","36","0","893"
"30","30","encoding","encoding","307","F10.jpg","3",".","37","0","665"
"30","30","encoding","encoding","308","F3.jpg","3",".","37","0","510"
"30","30","encoding","encoding","309","F32.jpg","3",".","37","0","603"
"30","30","encoding","encoding","310","F2.jpg","3",".","37","0","733"
"30","30","encoding","encoding","311","E40.jpg","1",".","37","0","629"
"30","30","encoding","encoding","312","E71.jpg","1",".","37","0","898"
"30","30","encoding","encoding","313","F11.jpg","3",".","37","0","548"
"30","30","encoding","encoding","314","F71.jpg","3",".","37","0","568"
"30","30","encoding","encoding","315","F9.jpg","3",".","36","0","853"
"30","30","encoding","encoding","316","F0.jpg","3",".","37","0","763"
"30","30","encoding","encoding","317","F44.jpg","3",".","37","0","654"
"30","30","encoding","encoding","318","F19.jpg","3",".","36","0","833"
"30","30","encoding","encoding","319","F17.jpg","3",".","37","0","499"
"30","30","encoding","encoding","320","F20.jpg","3",".","37","0","583"
"30","30","encoding","encoding","321","F51.jpg","3",".","36","0","683"
"30","30","encoding","encoding","322","F65.jpg","3",".","37","0","441"
"30","30","encoding","encoding","323","E3.jpg","1",".","37","0","730"
"30","30","encoding","encoding","324","F41.jpg","3",".","37","0","897"
"30","30","encoding","encoding","325","F27.jpg","",".","37","0","814"
"30","30","retrieval","old_object","1","E47.jpg",".","1","37","0","1195"
"30","30","retrieval","old_object","2","F72.jpg",".","3","0","0","2000"
"30","30","retrieval","new_object","3","H3.jpg",".",".","37","1","1678"
"30","30","retrieval","new_object","4","H79.jpg",".",".","36","0","1493"
"30","30","retrieval","new_object","5","G53.jpg",".",".","37","1","1853"
"30","30","retrieval","old_object","6","E44.jpg",".","1","36","1","1810"
"30","30","retrieval","old_object","7","E79.jpg",".","1","36","1","1798"
"30","30","retrieval","old_object","8","E34.jpg",".","1","37","0","1484"
"30","30","retrieval","new_object","9","H75.jpg",".",".","37","1","1818"
"30","30","retrieval","old_object","10","F15.jpg",".","3","36","1","1463"
"30","30","retrieval","new_object","11","H49.jpg",".",".","36","0","1220"
"30","30","retrieval","new_object","12","G9.jpg",".",".","37","1","1350"
"30","30","retrieval","old_object","13","E22.jpg",".","1","36","1","1383"
"30","30","retrieval","new_object","14","H52.jpg",".",".","37","1","961"
"30","30","retrieval","new_object","15","H73.jpg",".",".","37","1","1595"
"30","30","retrieval","old_object","16","E71.jpg",".","1","36","1","1546"
"30","30","retrieval","old_object","17","E60.jpg",".","1","36","1","1352"
"30","30","retrieval","new_object","18","G78.jpg",".",".","36","0","1762"
"30","30","retrieval","new_object","19","G64.jpg",".",".","37","1","1042"
"30","30","retrieval","new_object","20","G22.jpg",".",".","37","1","869"
"30","30","retrieval","old_object","21","E8.jpg",".","1","37","0","1205"
"30","30","retrieval","old_object","22","F8.jpg",".","3","37","0","1061"
"30","30","retrieval","new_object","23","G66.jpg",".",".","37","1","945"
"30","30","retrieval","old_object","24","F74.jpg",".","3","36","1","1534"
"30","30","retrieval","old_object","25","E77.jpg",".","1","36","1","1145"
"30","30","retrieval","old_object","26","F43.jpg",".","3","36","1","1708"
"30","30","retrieval","old_object","27","F29.jpg",".","3","37","0","969"
"30","30","retrieval","new_object","28","H58.jpg",".",".","37","1","1503"
"30","30","retrieval","old_object","29","F33.jpg",".","3","37","0","1378"
"30","30","retrieval","old_object","30","F66.jpg",".","3","0","0","2000"
"30","30","retrieval","new_object","31","G17.jpg",".",".","36","0","1419"
"30","30","retrieval","new_object","32","H16.jpg",".",".","37","1","1230"
"30","30","retrieval","new_object","33","H60.jpg",".",".","37","1","1391"
"30","30","retrieval","old_object","34","E67.jpg",".","1","37","0","1206"
"30","30","retrieval","old_object","35","E18.jpg",".","1","37","0","895"
"30","30","retrieval","old_object","36","E28.jpg",".","1","37","0","856"
"30","30","retrieval","old_object","37","F54.jpg",".","3","36","1","1253"
"30","30","retrieval","old_object","38","F2.jpg",".","3","37","0","1221"
"30","30","retrieval","old_object","39","E14.jpg",".","1","37","0","1414"
"30","30","retrieval","old_object","40","E32.jpg",".","1","36","1","1169"
"30","30","retrieval","new_object","41","G77.jpg",".",".","37","1","1914"
"30","30","retrieval","old_object","42","F76.jpg",".","3","37","0","1154"
"30","30","retrieval","old_object","43","F21.jpg",".","3","37","0","674"
"30","30","retrieval","old_object","44","E64.jpg",".","1","37","0","1555"
"30","30","retrieval","old_object","45","F35.jpg",".","3","37","0","1241"
"30","30","retrieval","new_object","46","H64.jpg",".",".","36","0","919"
"30","30","retrieval","new_object","47","G5.jpg",".",".","37","1","946"
"30","30","retrieval","old_object","48","F6.jpg",".","3","37","0","743"
"30","30","retrieval","old_object","49","F75.jpg",".","3","37","0","755"
"30","30","retrieval","new_object","50","H28.jpg",".",".","36","0","1272"
"30","30","retrieval","new_object","51","H20.jpg",".",".","36","0","979"
"30","30","retrieval","new_object","52","G42.jpg",".",".","36","0","1052"
"30","30","retrieval","old_object","53","F62.jpg",".","3","36","1","912"
"30","30","retrieval","new_object","54","G33.jpg",".",".","37","1","1176"
"30","30","retrieval","new_object","55","G32.jpg",".",".","37","1","1502"
"30","30","retrieval","old_object","56","E21.jpg",".","1","37","0","1179"
"30","30","retrieval","new_object","57","H31.jpg",".",".","37","1","906"
"30","30","retrieval","new_object","58","G58.jpg",".",".","37","1","761"
"30","30","retrieval","new_object","59","H27.jpg",".",".","37","1","1246"
"30","30","retrieval","old_object","60","E53.jpg",".","1","36","1","1031"
"30","30","retrieval","new_object","61","G67.jpg",".",".","37","1","1128"
"30","30","retrieval","new_object","62","H8.jpg",".",".","36","0","1207"
"30","30","retrieval","old_object","63","E58.jpg",".","1","36","1","937"
"30","30","retrieval","new_object","64","H44.jpg",".",".","36","0","1078"
"30","30","retrieval","new_object","65","H23.jpg",".",".","36","0","1056"
"30","30","retrieval","old_object","67","F79.jpg",".","3","37","0","826"
"30","30","retrieval","new_object","68","H56.jpg",".",".","37","1","756"
"30","30","retrieval","old_object","69","E42.jpg",".","1","36","1","1219"
"30","30","retrieval","new_object","70","G1.jpg",".",".","37","1","1113"
"30","30","retrieval","new_object","71","H77.jpg",".",".","37","1","806"
"30","30","retrieval","old_object","72","E70.jpg",".","1","36","1","1098"
"30","30","retrieval","new_object","73","G75.jpg",".",".","36","0","940"
"30","30","retrieval","old_object","74","F4.jpg",".","3","36","1","1596"
"30","30","retrieval","old_object","75","F56.jpg",".","3","37","0","1115"
"30","30","retrieval","new_object","76","G65.jpg",".",".","37","1","874"
"30","30","retrieval","new_object","77","H48.jpg",".",".","37","1","824"
"30","30","retrieval","new_object","78","H37.jpg",".",".","36","0","809"
"30","30","retrieval","old_object","79","E12.jpg",".","1","37","0","833"
"30","30","retrieval","new_object","80","G11.jpg",".",".","36","0","1265"
"30","30","retrieval","old_object","81","F10.jpg",".","3","37","0","1011"
"30","30","retrieval","new_object","82","H17.jpg",".",".","36","0","1147"
"30","30","retrieval","new_object","83","G26.jpg",".",".","37","1","1028"
"30","30","retrieval","old_object","84","F71.jpg",".","3","37","0","1344"
"30","30","retrieval","old_object","85","F31.jpg",".","3","37","0","809"
"30","30","retrieval","new_object","86","G43.jpg",".",".","37","1","638"
"30","30","retrieval","new_object","87","G40.jpg",".",".","37","1","627"
"30","30","retrieval","old_object","88","E62.jpg",".","1","37","0","1087"
"30","30","retrieval","new_object","89","H33.jpg",".",".","36","0","1146"
"30","30","retrieval","new_object","90","G20.jpg",".",".","37","1","1396"
"30","30","retrieval","new_object","91","H13.jpg",".",".","36","0","777"
"30","30","retrieval","old_object","92","E15.jpg",".","1","36","1","1647"
"30","30","retrieval","old_object","93","E2.jpg",".","1","37","0","1187"
"30","30","retrieval","new_object","94","G21.jpg",".",".","37","1","806"
"30","30","retrieval","old_object","95","F5.jpg",".","3","37","0","895"
"30","30","retrieval","new_object","96","G35.jpg",".",".","37","1","653"
"30","30","retrieval","old_object","97","E5.jpg",".","1","36","1","797"
"30","30","retrieval","new_object","98","H36.jpg",".",".","36","0","940"
"30","30","retrieval","new_object","99","G50.jpg",".",".","37","1","994"
"30","30","retrieval","old_object","100","F57.jpg",".","3","37","0","789"
"30","30","retrieval","old_object","101","E36.jpg",".","1","37","0","750"
"30","30","retrieval","old_object","102","E9.jpg",".","1","37","0","1606"
"30","30","retrieval","old_object","103","E75.jpg",".","1","36","1","974"
"30","30","retrieval","new_object","104","H72.jpg",".",".","37","1","767"
"30","30","retrieval","new_object","105","G73.jpg",".",".","36","0","1139"
"30","30","retrieval","new_object","106","H38.jpg",".",".","37","1","741"
"30","30","retrieval","old_object","107","E63.jpg",".","1","37","0","1158"
"30","30","retrieval","new_object","108","G31.jpg",".",".","37","1","826"
"30","30","retrieval","old_object","109","E61.jpg",".","1","36","1","974"
"30","30","retrieval","old_object","110","E4.jpg",".","1","37","0","859"
"30","30","retrieval","old_object","111","F36.jpg",".","3","37","0","711"
"30","30","retrieval","new_object","112","G29.jpg",".",".","37","1","637"
"30","30","retrieval","new_object","113","H35.jpg",".",".","36","0","1134"
"30","30","retrieval","new_object","114","H41.jpg",".",".","37","1","828"
"30","30","retrieval","old_object","115","E50.jpg",".","1","37","0","638"
"30","30","retrieval","old_object","116","F34.jpg",".","3","37","0","638"
"30","30","retrieval","new_object","117","G45.jpg",".",".","37","1","661"
"30","30","retrieval","old_object","118","F47.jpg",".","3","37","0","642"
"30","30","retrieval","old_object","119","E43.jpg",".","1","36","1","1141"
"30","30","retrieval","old_object","120","E11.jpg",".","1","37","0","1824"
"30","30","retrieval","new_object","121","H4.jpg",".",".","37","1","823"
"30","30","retrieval","old_object","122","F24.jpg",".","3","37","0","614"
"30","30","retrieval","old_object","123","F78.jpg",".","3","37","0","569"
"30","30","retrieval","new_object","124","G16.jpg",".",".","37","1","961"
"30","30","retrieval","new_object","125","G61.jpg",".",".","37","1","897"
"30","30","retrieval","old_object","126","E23.jpg",".","1","37","0","563"
"30","30","retrieval","old_object","127","F65.jpg",".","3","37","0","617"
"30","30","retrieval","new_object","128","G71.jpg",".",".","37","1","603"
"30","30","retrieval","new_object","129","G46.jpg",".",".","36","0","1006"
"30","30","retrieval","old_object","130","F26.jpg",".","3","37","0","960"
"30","30","retrieval","new_object","131","G12.jpg",".",".","37","1","734"
"30","30","retrieval","new_object","133","H30.jpg",".",".","37","1","818"
"30","30","retrieval","old_object","134","E59.jpg",".","1","36","1","894"
"30","30","retrieval","old_object","135","F58.jpg",".","3","37","0","672"
"30","30","retrieval","old_object","136","E13.jpg",".","1","36","1","1389"
"30","30","retrieval","old_object","137","F7.jpg",".","3","37","0","617"
"30","30","retrieval","old_object","138","F9.jpg",".","3","36","1","1407"
"30","30","retrieval","new_object","139","H14.jpg",".",".","37","1","932"
"30","30","retrieval","old_object","140","E74.jpg",".","1","37","0","850"
"30","30","retrieval","new_object","141","H10.jpg",".",".","37","1","651"
"30","30","retrieval","new_object","142","G10.jpg",".",".","37","1","588"
"30","30","retrieval","old_object","143","F73.jpg",".","3","37","0","683"
"30","30","retrieval","old_object","144","F39.jpg",".","3","36","1","911"
"30","30","retrieval","new_object","145","H7.jpg",".",".","37","1","1304"
"30","30","retrieval","new_object","146","G28.jpg",".",".","37","1","1001"
"30","30","retrieval","old_object","147","F3.jpg",".","3","37","0","740"
"30","30","retrieval","new_object","148","H59.jpg",".",".","37","1","990"
"30","30","retrieval","old_object","149","F28.jpg",".","3","37","0","851"
"30","30","retrieval","new_object","150","G4.jpg",".",".","37","1","1177"
"30","30","retrieval","new_object","151","H25.jpg",".",".","36","0","1206"
"30","30","retrieval","new_object","152","G52.jpg",".",".","37","1","1080"
"30","30","retrieval","new_object","153","H69.jpg",".",".","37","1","864"
"30","30","retrieval","old_object","154","F30.jpg",".","3","36","1","880"
"30","30","retrieval","new_object","155","H71.jpg",".",".","37","1","806"
"30","30","retrieval","new_object","156","H51.jpg",".",".","36","0","905"
"30","30","retrieval","old_object","157","E10.jpg",".","1","36","1","1510"
"30","30","retrieval","old_object","158","E78.jpg",".","1","37","0","863"
"30","30","retrieval","new_object","159","H29.jpg",".",".","37","1","489"
"30","30","retrieval","new_object","160","H19.jpg",".",".","36","0","1324"
"30","30","retrieval","old_object","161","E25.jpg",".","1","36","1","1185"
"30","30","retrieval","old_object","162","E19.jpg",".","1","37","0","1167"
"30","30","retrieval","new_object","163","H50.jpg",".",".","37","1","1638"
"30","30","retrieval","new_object","164","G63.jpg",".",".","36","0","1191"
"30","30","retrieval","old_object","165","F53.jpg",".","3","37","0","806"
"30","30","retrieval","old_object","166","F61.jpg",".","3","37","0","1232"
"30","30","retrieval","old_object","167","F41.jpg",".","3","0","0","2000"
"30","30","retrieval","new_object","168","H22.jpg",".",".","37","1","908"
"30","30","retrieval","new_object","169","G2.jpg",".",".","37","1","1462"
"30","30","retrieval","old_object","170","E57.jpg",".","1","37","0","1023"
"30","30","retrieval","old_object","171","F49.jpg",".","3","37","0","778"
"30","30","retrieval","old_object","172","E65.jpg",".","1","37","0","661"
"30","30","retrieval","old_object","173","F52.jpg",".","3","37","0","649"
"30","30","retrieval","new_object","174","H43.jpg",".",".","37","1","738"
"30","30","retrieval","old_object","175","E68.jpg",".","1","36","1","766"
"30","30","retrieval","old_object","176","F63.jpg",".","3","37","0","1070"
"30","30","retrieval","old_object","177","F1.jpg",".","3","37","0","672"
"30","30","retrieval","old_object","178","F64.jpg",".","3","37","0","697"
"30","30","retrieval","new_object","179","G6.jpg",".",".","37","1","1206"
"30","30","retrieval","new_object","180","H68.jpg",".",".","36","0","1122"
"30","30","retrieval","new_object","181","G56.jpg",".",".","37","1","927"
"30","30","retrieval","new_object","182","G13.jpg",".",".","37","1","681"
"30","30","retrieval","old_object","183","F20.jpg",".","3","36","1","1281"
"30","30","retrieval","new_object","184","G24.jpg",".",".","37","1","1791"
"30","30","retrieval","new_object","185","G8.jpg",".",".","37","1","1209"
"30","30","retrieval","new_object","186","H67.jpg",".",".","37","1","1208"
"30","30","retrieval","old_object","187","F22.jpg",".","3","36","1","1093"
"30","30","retrieval","new_object","188","G39.jpg",".",".","36","0","1130"
"30","30","retrieval","new_object","189","H11.jpg",".",".","37","1","1151"
"30","30","retrieval","new_object","190","H47.jpg",".",".","37","1","862"
"30","30","retrieval","old_object","191","E17.jpg",".","1","36","1","1487"
"30","30","retrieval","new_object","192","G55.jpg",".",".","37","1","798"
"30","30","retrieval","new_object","193","H26.jpg",".",".","37","1","686"
"30","30","retrieval","new_object","194","G15.jpg",".",".","37","1","632"
"30","30","retrieval","old_object","195","F37.jpg",".","3","36","1","1333"
"30","30","retrieval","new_object","196","H55.jpg",".",".","37","1","599"
"30","30","retrieval","old_object","197","E73.jpg",".","1","37","0","958"
"30","30","retrieval","new_object","199","H76.jpg",".",".","37","1","815"
"30","30","retrieval","old_object","200","E66.jpg",".","1","36","1","1234"
"30","30","retrieval","old_object","201","E0.jpg",".","1","37","0","586"
"30","30","retrieval","old_object","202","F59.jpg",".","3","36","1","808"
"30","30","retrieval","old_object","203","F46.jpg",".","3","37","0","907"
"30","30","retrieval","old_object","204","E52.jpg",".","1","36","1","808"
"30","30","retrieval","old_object","205","E26.jpg",".","1","37","0","753"
"30","30","retrieval","new_object","206","G49.jpg",".",".","36","0","892"
"30","30","retrieval","old_object","207","F51.jpg",".","3","36","1","1354"
"30","30","retrieval","old_object","208","E51.jpg",".","1","37","0","753"
"30","30","retrieval","new_object","209","G0.jpg",".",".","36","0","892"
"30","30","retrieval","old_object","210","F23.jpg",".","3","37","0","633"
"30","30","retrieval","new_object","211","G47.jpg",".",".","37","1","617"
"30","30","retrieval","new_object","212","H78.jpg",".",".","37","1","646"
"30","30","retrieval","new_object","213","G19.jpg",".",".","37","1","499"
"30","30","retrieval","old_object","214","F70.jpg",".","3","36","1","1131"
"30","30","retrieval","old_object","215","F18.jpg",".","3","37","0","843"
"30","30","retrieval","old_object","216","E54.jpg",".","1","37","0","869"
"30","30","retrieval","new_object","217","H32.jpg",".",".","36","0","988"
"30","30","retrieval","new_object","218","G68.jpg",".",".","37","1","868"
"30","30","retrieval","new_object","219","H0.jpg",".",".","37","1","816"
"30","30","retrieval","old_object","220","E16.jpg",".","1","37","0","608"
"30","30","retrieval","new_object","221","G57.jpg",".",".","37","1","1058"
"30","30","retrieval","old_object","222","F42.jpg",".","3","37","0","1019"
"30","30","retrieval","new_object","223","G72.jpg",".",".","37","1","896"
"30","30","retrieval","old_object","224","E33.jpg",".","1","37","0","685"
"30","30","retrieval","new_object","225","H45.jpg",".",".","36","0","1295"
"30","30","retrieval","old_object","226","E20.jpg",".","1","37","0","865"
"30","30","retrieval","old_object","227","E69.jpg",".","1","37","0","969"
"30","30","retrieval","old_object","228","E24.jpg",".","1","37","0","569"
"30","30","retrieval","new_object","229","G48.jpg",".",".","37","1","617"
"30","30","retrieval","new_object","230","H66.jpg",".",".","37","1","663"
"30","30","retrieval","old_object","231","E72.jpg",".","1","36","1","1311"
"30","30","retrieval","new_object","232","G59.jpg",".",".","37","1","588"
"30","30","retrieval","new_object","233","G51.jpg",".",".","37","1","642"
"30","30","retrieval","old_object","234","E41.jpg",".","1","37","0","612"
"30","30","retrieval","new_object","235","G27.jpg",".",".","0","0","2000"
"30","30","retrieval","new_object","236","H21.jpg",".",".","0","0","2000"
"30","30","retrieval","old_object","237","F77.jpg",".","3","37","0","638"
"30","30","retrieval","old_object","238","E76.jpg",".","1","37","0","562"
"30","30","retrieval","new_object","239","G34.jpg",".",".","37","1","528"
"30","30","retrieval","old_object","240","F69.jpg",".","3","36","1","1096"
"30","30","retrieval","old_object","241","F44.jpg",".","3","37","0","530"
"30","30","retrieval","new_object","242","H53.jpg",".",".","37","1","677"
"30","30","retrieval","new_object","243","G74.jpg",".",".","37","1","769"
"30","30","retrieval","old_object","244","F40.jpg",".","3","37","0","567"
"30","30","retrieval","old_object","245","E35.jpg",".","1","37","0","526"
"30","30","retrieval","old_object","246","E55.jpg",".","1","37","0","488"
"30","30","retrieval","old_object","247","E45.jpg",".","1","37","0","615"
"30","30","retrieval","old_object","248","F38.jpg",".","3","37","0","669"
"30","30","retrieval","new_object","249","H34.jpg",".",".","36","0","1273"
"30","30","retrieval","old_object","250","F12.jpg",".","3","37","0","1711"
"30","30","retrieval","new_object","251","G3.jpg",".",".","37","1","865"
"30","30","retrieval","old_object","252","E7.jpg",".","1","36","1","1042"
"30","30","retrieval","new_object","253","G76.jpg",".",".","37","1","749"
"30","30","retrieval","old_object","254","E46.jpg",".","1","37","0","734"
"30","30","retrieval","old_object","255","F68.jpg",".","3","37","0","992"
"30","30","retrieval","new_object","256","H40.jpg",".",".","37","1","748"
"30","30","retrieval","old_object","257","F48.jpg",".","3","37","0","720"
"30","30","retrieval","old_object","258","F50.jpg",".","3","37","0","655"
"30","30","retrieval","old_object","259","F13.jpg",".","3","37","0","414"
"30","30","retrieval","new_object","260","G30.jpg",".",".","37","1","791"
"30","30","retrieval","new_object","261","H54.jpg",".",".","37","1","643"
"30","30","retrieval","old_object","262","E3.jpg",".","1","37","0","627"
"30","30","retrieval","new_object","263","G62.jpg",".",".","37","1","746"
"30","30","retrieval","new_object","265","G60.jpg",".",".","36","0","1162"
"30","30","retrieval","old_object","266","E40.jpg",".","1","37","0","755"
"30","30","retrieval","new_object","267","G25.jpg",".",".","37","1","610"
"30","30","retrieval","new_object","268","G44.jpg",".",".","37","1","756"
"30","30","retrieval","new_object","269","G79.jpg",".",".","37","1","732"
"30","30","retrieval","old_object","270","F55.jpg",".","3","37","0","703"
"30","30","retrieval","old_object","271","F60.jpg",".","3","37","0","860"
"30","30","retrieval","new_object","272","H24.jpg",".",".","36","0","877"
"30","30","retrieval","old_object","273","E1.jpg",".","1","36","1","1011"
"30","30","retrieval","old_object","274","F67.jpg",".","3","37","0","670"
"30","30","retrieval","new_object","275","H18.jpg",".",".","37","1","765"
"30","30","retrieval","old_object","276","E39.jpg",".","1","37","0","488"
"30","30","retrieval","old_object","277","F11.jpg",".","3","37","0","549"
"30","30","retrieval","new_object","278","H63.jpg",".",".","36","0","956"
"30","30","retrieval","new_object","279","G23.jpg",".",".","37","1","749"
"30","30","retrieval","new_object","280","H12.jpg",".",".","37","1","656"
"30","30","retrieval","old_object","281","E30.jpg",".","1","36","1","1348"
"30","30","retrieval","new_object","282","G54.jpg",".",".","37","1","756"
"30","30","retrieval","new_object","283","H42.jpg",".",".","37","1","1458"
"30","30","retrieval","new_object","284","G7.jpg",".",".","36","0","991"
"30","30","retrieval","old_object","285","F14.jpg",".","3","37","0","636"
"30","30","retrieval","new_object","286","G37.jpg",".",".","37","1","989"
"30","30","retrieval","new_object","287","H39.jpg",".",".","37","1","651"
"30","30","retrieval","old_object","288","F27.jpg",".","3","37","0","520"
"30","30","retrieval","new_object","289","G36.jpg",".",".","37","1","1274"
"30","30","retrieval","old_object","290","F17.jpg",".","3","37","0","568"
"30","30","retrieval","old_object","291","E56.jpg",".","1","37","0","489"
"30","30","retrieval","old_object","292","E31.jpg",".","1","37","0","994"
"30","30","retrieval","new_object","293","H15.jpg",".",".","37","1","623"
"30","30","retrieval","new_object","294","H9.jpg",".",".","37","1","572"
"30","30","retrieval","new_object","295","H74.jpg",".",".","37","1","738"
"30","30","retrieval","old_object","296","F16.jpg",".","3","37","0","1150"
"30","30","retrieval","old_object","297","F45.jpg",".","3","37","0","641"
"30","30","retrieval","old_object","298","E29.jpg",".","1","37","0","743"
"30","30","retrieval","new_object","299","G18.jpg",".",".","37","1","1004"
"30","30","retrieval","old_object","300","E48.jpg",".","1","37","0","598"
"30","30","retrieval","old_object","301","F19.jpg",".","3","36","1","871"
"30","30","retrieval","old_object","302","F0.jpg",".","3","37","0","603"
"30","30","retrieval","new_object","303","H62.jpg",".",".","37","1","512"
"30","30","retrieval","new_object","304","G38.jpg",".",".","37","1","987"
"30","30","retrieval","new_object","305","H46.jpg",".",".","37","1","911"
"30","30","retrieval","new_object","306","H70.jpg",".",".","37","1","596"
"30","30","retrieval","new_object","307","H6.jpg",".",".","0","0","2000"
"30","30","retrieval","old_object","308","E6.jpg",".","1","37","0","432"
"30","30","retrieval","old_object","309","E37.jpg",".","1","37","0","674"
"30","30","retrieval","new_object","310","H2.jpg",".",".","37","1","1102"
"30","30","retrieval","old_object","311","E38.jpg",".","1","36","1","690"
"30","30","retrieval","old_object","312","E27.jpg",".","1","36","1","804"
"30","30","retrieval","old_object","313","E49.jpg",".","1","37","0","845"
"30","30","retrieval","new_object","314","G14.jpg",".",".","37","1","512"
"30","30","retrieval","new_object","315","G70.jpg",".",".","36","0","856"
"30","30","retrieval","new_object","316","G69.jpg",".",".","37","1","839"
"30","30","retrieval","new_object","317","H61.jpg",".",".","37","1","623"
"30","30","retrieval","new_object","318","G41.jpg",".",".","37","1","510"
"30","30","retrieval","new_object","319","H5.jpg",".",".","37","1","775"
"30","30","retrieval","old_object","320","F32.jpg",".","3","37","0","719"
"30","30","retrieval","new_object","321","H1.jpg",".",".","37","1","713"
"30","30","retrieval","old_object","322","F25.jpg",".","3","37","0","631"
"30","30","retrieval","old_object","323","E47.jpg",".","","37","0","603"
"30","30","retrieval","new_object","324","H57.jpg",".",".","37","1","1234"
"30","30","retrieval","new_object","325","H65.jpg",".",".","37","1","930"
"30","30","demographics_block","gender","1",".",".",".","FEMALE","1","62499"
"30","30","demographics_block","age","1",".",".",".","24","1","62499"
"30","30","demographics_block","education","1",".",".",".","20","1","62499"
"30","30","demographics_block","left_right_handed","2",".",".",".","Right","1","35045"
"30","30","demographics_block","raceoption1","2",".",".",".","","1","35045"
"30","30","demographics_block","raceoption2","2",".",".",".","","1","35045"
"30","30","demographics_block","raceoption3","2",".",".",".","","1","35045"
"30","30","demographics_block","raceoption4","2",".",".",".","","1","35045"
"30","30","demographics_block","raceoption5","2",".",".",".","","1","35045"
"30","30","demographics_block","raceoption6","2",".",".",".","5","1","35045"
"30","30","demographics_block","raceoption7","2",".",".",".","","1","35045"
"30","30","demographics_block","raceoption8","2",".",".",".","","1","35045"
"30","30","demographics_block","raceoption9","2",".",".",".","","1","35045"
"30","30","demographics_block","raceother","2",".",".",".","","1","35045"
"30","30","demographics_block","raceother","2",".",".",".","","1","35045"
"30","30","demographics_block","english_language","2",".",".",".","Yes","1","35045"
"30","30","demographics_block","other","2",".",".",".","","1","35045"
"30","30","demographics_block","eyesight","3",".",".",".","No","1","5954"
"30","30","demographics_block","colorblind","3",".",".",".","No","1","5954"
"35","35","encoding","encoding","1","F27.jpg","3",".","0","0","1000"
"35","35","encoding","encoding","2","E16.jpg","1",".","37","0","902"
"35","35","encoding","encoding","3","E54.jpg","1",".","0","0","1000"
"35","35","encoding","encoding","4","F51.jpg","3",".","0","0","1000"
"35","35","encoding","encoding","5","F54.jpg","3",".","36","0","279"
"35","35","encoding","encoding","6","F23.jpg","3",".","0","0","1000"
"35","35","encoding","encoding","7","E26.jpg","1",".","37","0","584"
"35","35","encoding","encoding","8","F6.jpg","3",".","0","0","1000"
"35","35","encoding","encoding","9","F8.jpg","3",".","37","0","681"
"35","35","encoding","encoding","10","E12.jpg","1",".","37","0","749"
"35","35","encoding","encoding","11","F79.jpg","3",".","0","0","1000"
"35","35","encoding","encoding","12","E22.jpg","1",".","37","0","702"
"35","35","encoding","encoding","13","F67.jpg","3",".","37","0","959"
"35","35","encoding","encoding","14","F68.jpg","3",".","37","0","911"
"35","35","encoding","encoding","15","F29.jpg","3",".","37","0","671"
"35","35","encoding","encoding","16","F0.jpg","3",".","37","0","896"
"35","35","encoding","encoding","17","E50.jpg","1",".","37","0","592"
"35","35","encoding","encoding","18","F69.jpg","3",".","37","0","944"
"35","35","encoding","encoding","19","F8.jpg","3",".","37","0","673"
"35","35","encoding","encoding","20","F39.jpg","3",".","36","0","945"
"35","35","encoding","encoding","21","F25.jpg","3",".","0","0","1000"
"35","35","encoding","encoding","22","F9.jpg","3",".","36","0","738"
"35","35","encoding","encoding","23","E14.jpg","1",".","37","0","818"
"35","35","encoding","encoding","24","F43.jpg","3",".","37","0","691"
"35","35","encoding","encoding","25","F45.jpg","3",".","37","0","819"
"35","35","encoding","encoding","26","E56.jpg","1",".","37","0","644"
"35","35","encoding","encoding","27","E53.jpg","1",".","36","0","580"
"35","35","encoding","encoding","28","F52.jpg","3",".","37","0","452"
"35","35","encoding","encoding","29","F14.jpg","3",".","37","0","629"
"35","35","encoding","encoding","30","F78.jpg","3",".","37","0","677"
"35","35","encoding","encoding","31","F50.jpg","3",".","0","0","1000"
"35","35","encoding","encoding","32","F75.jpg","3",".","37","0","774"
"35","35","encoding","encoding","33","F28.jpg","3",".","37","0","566"
"35","35","encoding","encoding","34","E51.jpg","1",".","37","0","583"
"35","35","encoding","encoding","35","F55.jpg","3",".","37","0","711"
"35","35","encoding","encoding","36","F65.jpg","3",".","37","0","439"
"35","35","encoding","encoding","37","E17.jpg","1",".","37","0","552"
"35","35","encoding","encoding","38","E49.jpg","1",".","37","0","568"
"35","35","encoding","encoding","39","F70.jpg","3",".","36","0","648"
"35","35","encoding","encoding","40","F54.jpg","3",".","37","0","489"
"35","35","encoding","encoding","41","F39.jpg","3",".","36","0","777"
"35","35","encoding","encoding","42","F73.jpg","3",".","37","0","730"
"35","35","encoding","encoding","43","F6.jpg","3",".","37","0","474"
"35","35","encoding","encoding","44","F35.jpg","3",".","37","0","458"
"35","35","encoding","encoding","45","F54.jpg","3",".","36","0","715"
"35","35","encoding","encoding","46","E5.jpg","1",".","36","0","715"
"35","35","encoding","encoding","47","E60.jpg","1",".","37","0","716"
"35","35","encoding","encoding","48","F5.jpg","3",".","0","0","1000"
"35","35","encoding","encoding","49","F14.jpg","3",".","37","0","652"
"35","35","encoding","encoding","50","F40.jpg","3",".","37","0","525"
"35","35","encoding","encoding","51","F34.jpg","3",".","37","0","605"
"35","35","encoding","encoding","52","F33.jpg","3",".","37","0","557"
"35","35","encoding","encoding","53","F12.jpg","3",".","37","0","430"
"35","35","encoding","encoding","54","F41.jpg","3",".","37","0","558"
"35","35","encoding","encoding","55","F3.jpg","3",".","37","0","671"
"35","35","encoding","encoding","56","E47.jpg","1",".","37","0","607"
"35","35","encoding","encoding","57","F5.jpg","3",".","0","0","1000"
"35","35","encoding","encoding","58","E73.jpg","1",".","37","0","672"
"35","35","encoding","encoding","59","F79.jpg","3",".","37","0","688"
"35","35","encoding","encoding","60","F65.jpg","3",".","37","0","513"
"35","35","encoding","encoding","61","F37.jpg","3",".","37","0","625"
"35","35","encoding","encoding","62","F41.jpg","3",".","37","0","497"
"35","35","encoding","encoding","63","F0.jpg","3",".","37","0","434"
"35","35","encoding","encoding","64","F18.jpg","3",".","37","0","578"
"35","35","encoding","encoding","65","E59.jpg","1",".","37","0","515"
"35","35","encoding","encoding","67","F15.jpg","3",".","37","0","591"
"35","35","encoding","encoding","68","F16.jpg","3",".","36","0","894"
"35","35","encoding","encoding","69","F37.jpg","3",".","37","0","735"
"35","35","encoding","encoding","70","F37.jpg","3",".","37","0","495"
"35","35","encoding","encoding","71","E23.jpg","1",".","37","0","623"
"35","35","encoding","encoding","72","E29.jpg","1",".","37","0","576"
"35","35","encoding","encoding","73","E31.jpg","1",".","36","0","736"
"35","35","encoding","encoding","74","F49.jpg","3",".","37","0","768"
"35","35","encoding","encoding","75","F46.jpg","3",".","37","0","497"
"35","35","encoding","encoding","76","E11.jpg","1",".","37","0","545"
"35","35","encoding","encoding","77","F18.jpg","3",".","37","0","498"
"35","35","encoding","encoding","78","F4.jpg","3",".","37","0","738"
"35","35","encoding","encoding","79","F74.jpg","3",".","37","0","690"
"35","35","encoding","encoding","80","F29.jpg","3",".","37","0","595"
"35","35","encoding","encoding","81","F59.jpg","3",".","37","0","563"
"35","35","encoding","encoding","82","F22.jpg","3",".","36","0","868"
"35","35","encoding","encoding","83","E35.jpg","1",".","37","0","612"
"35","35","encoding","encoding","84","F50.jpg","3",".","37","0","756"
"35","35","encoding","encoding","85","F72.jpg","3",".","0","0","1000"
"35","35","encoding","encoding","86","F64.jpg","3",".","37","0","741"
"35","35","encoding","encoding","87","F35.jpg","3",".","37","0","757"
"35","35","encoding","encoding","88","E43.jpg","1",".","37","0","870"
"35","35","encoding","encoding","89","F40.jpg","3",".","37","0","694"
"35","35","encoding","encoding","90","F77.jpg","3",".","37","0","679"
"35","35","encoding","encoding","91","E44.jpg","1",".","37","0","535"
"35","35","encoding","encoding","92","F31.jpg","3",".","37","0","743"
"35","35","encoding","encoding","93","E6.jpg","1",".","37","0","808"
"35","35","encoding","encoding","94","F69.jpg","3",".","37","0","728"
"35","35","encoding","encoding","95","F66.jpg","3",".","37","0","745"
"35","35","encoding","encoding","96","E77.jpg","1",".","37","0","745"
"35","35","encoding","encoding","97","F38.jpg","3",".","37","0","665"
"35","35","encoding","encoding","98","E72.jpg","1",".","0","0","1000"
"35","35","encoding","encoding","99","E69.jpg","1",".","0","0","1000"
"35","35","encoding","encoding","100","E30.jpg","1",".","37","0","474"
"35","35","encoding","encoding","101","F76.jpg","3",".","37","0","315"
"35","35","encoding","encoding","102","F60.jpg","3",".","37","0","331"
"35","35","encoding","encoding","103","F7.jpg","3",".","37","0","812"
"35","35","encoding","encoding","104","E58.jpg","1",".","37","0","684"
"35","35","encoding","encoding","105","F2.jpg","3",".","37","0","476"
"35","35","encoding","encoding","106","F55.jpg","3",".","37","0","429"
"35","35","encoding","encoding","107","F35.jpg","3",".","37","0","493"
"35","35","encoding","encoding","108","F71.jpg","3",".","37","0","429"
"35","35","encoding","encoding","109","E4.jpg","1",".","37","0","702"
"35","35","encoding","encoding","110","E48.jpg","1",".","37","0","606"
"35","35","encoding","encoding","111","F33.jpg","3",".","37","0","575"
"35","35","encoding","encoding","112","F36.jpg","3",".","37","0","543"
"35","35","encoding","encoding","113","F36.jpg","3",".","37","0","799"
"35","35","encoding","encoding","114","F64.jpg","3",".","37","0","656"
"35","35","encoding","encoding","115","F68.jpg","3",".","37","0","656"
"35","35","encoding","encoding","116","F29.jpg","3",".","37","0","641"
"35","35","encoding","encoding","117","E66.jpg","1",".","36","0","979"
"35","35","encoding","encoding","118","E57.jpg","1",".","37","0","769"
"35","35","encoding","encoding","119","E33.jpg","1",".","37","0","946"
"35","35","encoding","encoding","120","F24.jpg","3",".","37","0","898"
"35","35","encoding","encoding","121","F50.jpg","3",".","37","0","594"
"35","35","encoding","encoding","122","E38.jpg","1",".","37","0","595"
"35","35","encoding","encoding","123","E52.jpg","1",".","36","0","627"
"35","35","encoding","encoding","124","F31.jpg","3",".","37","0","500"
"35","35","encoding","encoding","125","F4.jpg","3",".","37","0","692"
"35","35","encoding","encoding","126","E34.jpg","1",".","37","0","596"
"35","35","encoding","encoding","127","F48.jpg","3",".","0","0","1000"
"35","35","encoding","encoding","128","F76.jpg","3",".","37","0","853"
"35","35","encoding","encoding","129","F1.jpg","3",".","37","0","518"
"35","35","encoding","encoding","130","F47.jpg","3",".","37","0","517"
"35","35","encoding","encoding","131","E9.jpg","1",".","37","0","534"
"35","35","encoding","encoding","133","F75.jpg","3",".","37","0","589"
"35","35","encoding","encoding","134","E39.jpg","1",".","37","0","542"
"35","35","encoding","encoding","135","F62.jpg","3",".","37","0","894"
"35","35","encoding","encoding","136","F77.jpg","3",".","37","0","559"
"35","35","encoding","encoding","137","E55.jpg","1",".","37","0","799"
"35","35","encoding","encoding","138","F30.jpg","3",".","37","0","767"
"35","35","encoding","encoding","139","F56.jpg","3",".","37","0","752"
"35","35","encoding","encoding","140","F57.jpg","3",".","37","0","688"
"35","35","encoding","encoding","141","E68.jpg","1",".","36","0","640"
"35","35","encoding","encoding","142","F66.jpg","3",".","0","0","1000"
"35","35","encoding","encoding","143","F53.jpg","3",".","37","0","689"
"35","35","encoding","encoding","144","F58.jpg","3",".","37","0","706"
"35","35","encoding","encoding","145","F23.jpg","3",".","37","0","723"
"35","35","encoding","encoding","146","F21.jpg","3",".","37","0","850"
"35","35","encoding","encoding","147","F57.jpg","3",".","37","0","691"
"35","35","encoding","encoding","148","F39.jpg","3",".","0","0","1000"
"35","35","encoding","encoding","149","F22.jpg","3",".","36","0","611"
"35","35","encoding","encoding","150","F49.jpg","3",".","37","0","884"
"35","35","encoding","encoding","151","E20.jpg","1",".","36","0","948"
"35","35","encoding","encoding","152","F56.jpg","3",".","37","0","549"
"35","35","encoding","encoding","153","F70.jpg","3",".","36","0","661"
"35","35","encoding","encoding","154","F60.jpg","3",".","37","0","773"
"35","35","encoding","encoding","155","F63.jpg","3",".","37","0","838"
"35","35","encoding","encoding","156","F57.jpg","3",".","37","0","614"
"35","35","encoding","encoding","157","F63.jpg","3",".","37","0","647"
"35","35","encoding","encoding","158","F27.jpg","3",".","37","0","567"
"35","35","encoding","encoding","159","F58.jpg","3",".","37","0","775"
"35","35","encoding","encoding","160","F55.jpg","3",".","37","0","776"
"35","35","encoding","encoding","161","F47.jpg","3",".","37","0","632"
"35","35","encoding","encoding","162","F13.jpg","3",".","37","0","520"
"35","35","encoding","encoding","163","F1.jpg","3",".","37","0","649"
"35","35","encoding","encoding","164","E28.jpg","1",".","37","0","777"
"35","35","encoding","encoding","165","F10.jpg","3",".","37","0","682"
"35","35","encoding","encoding","166","F27.jpg","3",".","37","0","698"
"35","35","encoding","encoding","167","F36.jpg","3",".","37","0","634"
"35","35","encoding","encoding","168","F62.jpg","3",".","37","0","859"
"35","35","encoding","encoding","169","F59.jpg","3",".","37","0","603"
"35","35","encoding","encoding","170","E74.jpg","1",".","37","0","444"
"35","35","encoding","encoding","171","F46.jpg","3",".","37","0","668"
"35","35","encoding","encoding","172","F52.jpg","3",".","37","0","524"
"35","35","encoding","encoding","173","F59.jpg","3",".","37","0","509"
"35","35","encoding","encoding","174","F71.jpg","3",".","37","0","509"
"35","35","encoding","encoding","175","E10.jpg","1",".","37","0","845"
"35","35","encoding","encoding","176","F1.jpg","3",".","37","0","606"
"35","35","encoding","encoding","177","F74.jpg","3",".","37","0","766"
"35","35","encoding","encoding","178","F15.jpg","3",".","37","0","495"
"35","35","encoding","encoding","179","F68.jpg","3",".","37","0","415"
"35","35","encoding","encoding","180","F78.jpg","3",".","37","0","799"
"35","35","encoding","encoding","181","F24.jpg","3",".","37","0","448"
"35","35","encoding","encoding","182","F25.jpg","3",".","37","0","336"
"35","35","encoding","encoding","183","F56.jpg","3",".","36","0","657"
"35","35","encoding","encoding","184","F69.jpg","3",".","0","0","1000"
"35","35","encoding","encoding","185","E78.jpg","1",".","37","0","497"
"35","35","encoding","encoding","186","E25.jpg","1",".","37","0","514"
"35","35","encoding","encoding","187","F64.jpg","3",".","37","0","546"
"35","35","encoding","encoding","188","E41.jpg","1",".","37","0","754"
"35","35","encoding","encoding","189","E42.jpg","1",".","37","0","739"
"35","35","encoding","encoding","190","F11.jpg","3",".","37","0","627"
"35","35","encoding","encoding","191","F66.jpg","3",".","37","0","484"
"35","35","encoding","encoding","192","F32.jpg","3",".","37","0","708"
"35","35","encoding","encoding","193","E46.jpg","1",".","37","0","484"
"35","35","encoding","encoding","194","E1.jpg","1",".","37","0","613"
"35","35","encoding","encoding","195","E21.jpg","1",".","37","0","677"
"35","35","encoding","encoding","196","F53.jpg","3",".","37","0","486"
"35","35","encoding","encoding","197","F62.jpg","3",".","37","0","470"
"35","35","encoding","encoding","199","E15.jpg","1",".","0","0","1000"
"35","35","encoding","encoding","200","E13.jpg","1",".","36","0","708"
"35","35","encoding","encoding","201","F73.jpg","3",".","37","0","581"
"35","35","encoding","encoding","202","F33.jpg","3",".","37","0","501"
"35","35","encoding","encoding","203","F17.jpg","3",".","37","0","613"
"35","35","encoding","encoding","204","E65.jpg","1",".","37","0","726"
"35","35","encoding","encoding","205","F13.jpg","3",".","37","0","534"
"35","35","encoding","encoding","206","F23.jpg","3",".","37","0","534"
"35","35","encoding","encoding","207","F10.jpg","3",".","37","0","407"
"35","35","encoding","encoding","208","F48.jpg","3",".","37","0","631"
"35","35","encoding","encoding","209","E64.jpg","1",".","37","0","488"
"35","35","encoding","encoding","210","F38.jpg","3",".","37","0","360"
"35","35","encoding","encoding","211","F15.jpg","3",".","37","0","376"
"35","35","encoding","encoding","212","F30.jpg","3",".","37","0","649"
"35","35","encoding","encoding","213","F5.jpg","3",".","0","0","1000"
"35","35","encoding","encoding","214","E37.jpg","1",".","37","0","633"
"35","35","encoding","encoding","215","F26.jpg","3",".","37","0","682"
"35","35","encoding","encoding","216","F22.jpg","3",".","36","0","762"
"35","35","encoding","encoding","217","F4.jpg","3",".","37","0","763"
"35","35","encoding","encoding","218","F17.jpg","3",".","37","0","763"
"35","35","encoding","encoding","219","F48.jpg","3",".","37","0","539"
"35","35","encoding","encoding","220","F6.jpg","3",".","37","0","700"
"35","35","encoding","encoding","221","F21.jpg","3",".","37","0","508"
"35","35","encoding","encoding","222","F72.jpg","3",".","37","0","717"
"35","35","encoding","encoding","223","E75.jpg","1",".","37","0","813"
"35","35","encoding","encoding","224","F73.jpg","3",".","37","0","797"
"35","35","encoding","encoding","225","E61.jpg","1",".","37","0","814"
"35","35","encoding","encoding","226","E24.jpg","1",".","37","0","574"
"35","35","encoding","encoding","227","F72.jpg","3",".","37","0","575"
"35","35","encoding","encoding","228","F78.jpg","3",".","37","0","927"
"35","35","encoding","encoding","229","F24.jpg","3",".","37","0","927"
"35","35","encoding","encoding","230","F79.jpg","3",".","37","0","592"
"35","35","encoding","encoding","231","E2.jpg","1",".","37","0","704"
"35","35","encoding","encoding","232","F51.jpg","3",".","37","0","880"
"35","35","encoding","encoding","233","E0.jpg","1",".","37","0","833"
"35","35","encoding","encoding","234","F70.jpg","3",".","0","0","1000"
"35","35","encoding","encoding","235","F46.jpg","3",".","37","0","722"
"35","35","encoding","encoding","236","E79.jpg","1",".","36","0","834"
"35","35","encoding","encoding","237","F19.jpg","3",".","0","0","1000"
"35","35","encoding","encoding","238","F47.jpg","3",".","0","0","1000"
"35","35","encoding","encoding","239","F8.jpg","3",".","37","0","931"
"35","35","encoding","encoding","240","E70.jpg","1",".","36","0","756"
"35","35","encoding","encoding","241","F61.jpg","3",".","0","0","1000"
"35","35","encoding","encoding","242","F76.jpg","3",".","37","0","740"
"35","35","encoding","encoding","243","F3.jpg","3",".","37","0","709"
"35","35","encoding","encoding","244","F58.jpg","3",".","37","0","613"
"35","35","encoding","encoding","245","F20.jpg","3",".","37","0","581"
"35","35","encoding","encoding","246","F32.jpg","3",".","37","0","566"
"35","35","encoding","encoding","247","E18.jpg","1",".","37","0","486"
"35","35","encoding","encoding","248","F20.jpg","3",".","37","0","503"
"35","35","encoding","encoding","249","F61.jpg","3",".","37","0","359"
"35","35","encoding","encoding","250","E62.jpg","1",".","37","0","535"
"35","35","encoding","encoding","251","F44.jpg","3",".","37","0","808"
"35","35","encoding","encoding","252","F19.jpg","3",".","0","0","1000"
"35","35","encoding","encoding","253","E8.jpg","1",".","37","0","712"
"35","35","encoding","encoding","254","F67.jpg","3",".","37","0","601"
"35","35","encoding","encoding","255","F2.jpg","3",".","37","0","665"
"35","35","encoding","encoding","256","F42.jpg","3",".","37","0","730"
"35","35","encoding","encoding","257","F31.jpg","3",".","37","0","634"
"35","35","encoding","encoding","258","F43.jpg","3",".","37","0","362"
"35","35","encoding","encoding","259","F12.jpg","3",".","37","0","171"
"35","35","encoding","encoding","260","E36.jpg","1",".","37","0","523"
"35","35","encoding","encoding","261","F45.jpg","3",".","37","0","748"
"35","35","encoding","encoding","262","F7.jpg","3",".","37","0","428"
"35","35","encoding","encoding","263","F74.jpg","3",".","37","0","620"
"35","35","encoding","encoding","265","E19.jpg","1",".","37","0","666"
"35","35","encoding","encoding","266","F7.jpg","3",".","37","0","586"
"35","35","encoding","encoding","267","F26.jpg","3",".","37","0","602"
"35","35","encoding","encoding","268","E67.jpg","1",".","37","0","507"
"35","35","encoding","encoding","269","F67.jpg","3",".","37","0","747"
"35","35","encoding","encoding","270","F44.jpg","3",".","37","0","891"
"35","35","encoding","encoding","271","F28.jpg","3",".","37","0","620"
"35","35","encoding","encoding","272","F52.jpg","3",".","37","0","588"
"35","35","encoding","encoding","273","F53.jpg","3",".","37","0","701"
"35","35","encoding","encoding","274","F14.jpg","3",".","37","0","829"
"35","35","encoding","encoding","275","F28.jpg","3",".","0","0","1000"
"35","35","encoding","encoding","276","E76.jpg","1",".","37","0","702"
"35","35","encoding","encoding","277","E7.jpg","1",".","37","0","734"
"35","35","encoding","encoding","278","F49.jpg","3",".","37","0","783"
"35","35","encoding","encoding","279","F34.jpg","3",".","37","0","655"
"35","35","encoding","encoding","280","F30.jpg","3",".","36","0","911"
"35","35","encoding","encoding","281","F75.jpg","3",".","37","0","576"
"35","35","encoding","encoding","282","F45.jpg","3",".","37","0","736"
"35","35","encoding","encoding","283","F63.jpg","3",".","37","0","672"
"35","35","encoding","encoding","284","F18.jpg","3",".","37","0","353"
"35","35","encoding","encoding","285","F34.jpg","3",".","37","0","433"
"35","35","encoding","encoding","286","F21.jpg","3",".","37","0","498"
"35","35","encoding","encoding","287","F61.jpg","3",".","36","0","962"
"35","35","encoding","encoding","288","F42.jpg","3",".","37","0","882"
"35","35","encoding","encoding","289","F9.jpg","3",".","36","0","819"
"35","35","encoding","encoding","290","F25.jpg","3",".","37","0","547"
"35","35","encoding","encoding","291","F43.jpg","3",".","37","0","755"
"35","35","encoding","encoding","292","E27.jpg","1",".","36","0","740"
"35","35","encoding","encoding","293","F60.jpg","3",".","37","0","420"
"35","35","encoding","encoding","294","E63.jpg","1",".","37","0","677"
"35","35","encoding","encoding","295","F77.jpg","3",".","37","0","709"
"35","35","encoding","encoding","296","F40.jpg","3",".","37","0","726"
"35","35","encoding","encoding","297","E45.jpg","1",".","37","0","662"
"35","35","encoding","encoding","298","F42.jpg","3",".","37","0","534"
"35","35","encoding","encoding","299","F26.jpg","3",".","37","0","615"
"35","35","encoding","encoding","300","F16.jpg","3",".","36","0","695"
"35","35","encoding","encoding","301","F11.jpg","3",".","37","0","759"
"35","35","encoding","encoding","302","F13.jpg","3",".","37","0","664"
"35","35","encoding","encoding","303","F38.jpg","3",".","37","0","584"
"35","35","encoding","encoding","304","E32.jpg","1",".","36","0","697"
"35","35","encoding","encoding","305","F12.jpg","3",".","37","0","473"
"35","35","encoding","encoding","306","F16.jpg","3",".","36","0","649"
"35","35","encoding","encoding","307","F10.jpg","3",".","37","0","714"
"35","35","encoding","encoding","308","F3.jpg","3",".","37","0","650"
"35","35","encoding","encoding","309","F32.jpg","3",".","37","0","778"
"35","35","encoding","encoding","310","F2.jpg","3",".","37","0","811"
"35","35","encoding","encoding","311","E40.jpg","1",".","37","0","667"
"35","35","encoding","encoding","312","E71.jpg","1",".","37","0","652"
"35","35","encoding","encoding","313","F11.jpg","3",".","37","0","636"
"35","35","encoding","encoding","314","F71.jpg","3",".","37","0","476"
"35","35","encoding","encoding","315","F9.jpg","3",".","36","0","701"
"35","35","encoding","encoding","316","F0.jpg","3",".","37","0","477"
"35","35","encoding","encoding","317","F44.jpg","3",".","37","0","301"
"35","35","encoding","encoding","318","F19.jpg","3",".","37","0","510"
"35","35","encoding","encoding","319","F17.jpg","3",".","37","0","414"
"35","35","encoding","encoding","320","F20.jpg","3",".","37","0","671"
"35","35","encoding","encoding","321","F51.jpg","3",".","0","0","1000"
"35","35","encoding","encoding","322","F65.jpg","3",".","37","0","719"
"35","35","encoding","encoding","323","E3.jpg","1",".","37","0","736"
"35","35","encoding","encoding","324","F41.jpg","3",".","37","0","704"
"35","35","encoding","encoding","325","F27.jpg","",".","37","0","513"
"35","35","retrieval","old_object","1","E47.jpg",".","1","37","0","1268"
"35","35","retrieval","new_object","2","H70.jpg",".",".","37","1","1061"
"35","35","retrieval","old_object","3","F72.jpg",".","3","37","0","1239"
"35","35","retrieval","new_object","4","G47.jpg",".",".","37","1","1080"
"35","35","retrieval","old_object","5","E44.jpg",".","1","37","0","1017"
"35","35","retrieval","new_object","6","H64.jpg",".",".","36","0","1659"
"35","35","retrieval","new_object","7","G76.jpg",".",".","37","1","1228"
"35","35","retrieval","new_object","8","H29.jpg",".",".","36","0","1614"
"35","35","retrieval","new_object","9","G60.jpg",".",".","36","0","1231"
"35","35","retrieval","new_object","10","H50.jpg",".",".","36","0","1441"
"35","35","retrieval","new_object","11","G8.jpg",".",".","37","1","1538"
"35","35","retrieval","old_object","12","E79.jpg",".","1","36","1","819"
"35","35","retrieval","old_object","13","E34.jpg",".","1","37","0","853"
"35","35","retrieval","old_object","14","F15.jpg",".","3","37","0","422"
"35","35","retrieval","new_object","15","G69.jpg",".",".","37","1","568"
"35","35","retrieval","new_object","16","G28.jpg",".",".","37","1","473"
"35","35","retrieval","new_object","17","H32.jpg",".",".","37","1","667"
"35","35","retrieval","old_object","18","E22.jpg",".","1","37","0","492"
"35","35","retrieval","old_object","19","E71.jpg",".","1","37","0","621"
"35","35","retrieval","old_object","20","E60.jpg",".","1","37","0","591"
"35","35","retrieval","old_object","21","E8.jpg",".","1","37","0","704"
"35","35","retrieval","new_object","22","H16.jpg",".",".","37","1","514"
"35","35","retrieval","old_object","23","F8.jpg",".","3","37","0","691"
"35","35","retrieval","old_object","24","F74.jpg",".","3","37","0","468"
"35","35","retrieval","old_object","25","E77.jpg",".","1","37","0","502"
"35","35","retrieval","new_object","26","G79.jpg",".",".","37","1","775"
"35","35","retrieval","new_object","27","H45.jpg",".",".","37","1","649"
"35","35","retrieval","new_object","28","H34.jpg",".",".","37","1","826"
"35","35","retrieval","new_object","29","G6.jpg",".",".","37","1","1132"
"35","35","retrieval","old_object","30","F43.jpg",".","3","37","0","637"
"35","35","retrieval","new_object","31","H53.jpg",".",".","37","1","974"
"35","35","retrieval","old_object","32","F29.jpg",".","3","37","0","576"
"35","35","retrieval","new_object","33","H22.jpg",".",".","37","1","705"
"35","35","retrieval","new_object","34","G73.jpg",".",".","37","1","563"
"35","35","retrieval","new_object","35","G54.jpg",".",".","37","1","1412"
"35","35","retrieval","new_object","36","H56.jpg",".",".","37","1","1014"
"35","35","retrieval","old_object","37","F33.jpg",".","3","37","0","823"
"35","35","retrieval","new_object","38","G68.jpg",".",".","37","1","696"
"35","35","retrieval","new_object","39","G1.jpg",".",".","37","1","473"
"35","35","retrieval","new_object","40","G3.jpg",".",".","37","1","1034"
"35","35","retrieval","new_object","41","G61.jpg",".",".","37","1","685"
"35","35","retrieval","old_object","42","F66.jpg",".","3","37","0","1069"
"35","35","retrieval","old_object","43","E67.jpg",".","1","37","0","398"
"35","35","retrieval","old_object","44","E18.jpg",".","1","0","0","2000"
"35","35","retrieval","new_object","45","H60.jpg",".",".","37","1","177"
"35","35","retrieval","old_object","46","E28.jpg",".","1","0","0","2000"
"35","35","retrieval","old_object","47","F54.jpg",".","3","0","0","2000"
"35","35","retrieval","old_object","48","F2.jpg",".","3","0","0","2000"
"35","35","retrieval","new_object","49","G14.jpg",".",".","37","1","1543"
"35","35","retrieval","new_object","50","H39.jpg",".",".","37","1","744"
"35","35","retrieval","new_object","51","G25.jpg",".",".","37","1","1658"
"35","35","retrieval","old_object","52","E14.jpg",".","1","37","0","907"
"35","35","retrieval","old_object","53","E32.jpg",".","1","36","1","957"
"35","35","retrieval","new_object","54","G46.jpg",".",".","37","1","974"
"35","35","retrieval","new_object","55","H10.jpg",".",".","37","1","1344"
"35","35","retrieval","old_object","56","F76.jpg",".","3","0","0","2000"
"35","35","retrieval","new_object","57","G53.jpg",".",".","37","1","434"
"35","35","retrieval","old_object","58","F21.jpg",".","3","37","0","708"
"35","35","retrieval","old_object","59","E64.jpg",".","1","37","0","517"
"35","35","retrieval","new_object","60","G2.jpg",".",".","37","1","983"
"35","35","retrieval","new_object","61","H12.jpg",".",".","37","1","1416"
"35","35","retrieval","old_object","62","F35.jpg",".","3","37","0","1370"
"35","35","retrieval","new_object","63","H23.jpg",".",".","37","1","1051"
"35","35","retrieval","new_object","64","G33.jpg",".",".","37","1","1196"
"35","35","retrieval","new_object","65","G31.jpg",".",".","37","1","1822"
"35","35","retrieval","new_object","67","G16.jpg",".",".","37","1","747"
"35","35","retrieval","new_object","68","H17.jpg",".",".","37","1","605"
"35","35","retrieval","old_object","69","F6.jpg",".","3","37","0","910"
"35","35","retrieval","old_object","70","F75.jpg",".","3","37","0","688"
"35","35","retrieval","new_object","71","H24.jpg",".",".","37","1","1681"
"35","35","retrieval","new_object","72","H69.jpg",".",".","0","0","2000"
"35","35","retrieval","old_object","73","F62.jpg",".","3","0","0","2000"
"35","35","retrieval","new_object","74","G45.jpg",".",".","37","1","773"
"35","35","retrieval","old_object","75","E21.jpg",".","1","37","0","1095"
"35","35","retrieval","old_object","76","E53.jpg",".","1","36","1","712"
"35","35","retrieval","new_object","77","G65.jpg",".",".","37","1","825"
"35","35","retrieval","old_object","78","E58.jpg",".","1","37","0","811"
"35","35","retrieval","old_object","79","F79.jpg",".","3","37","0","844"
"35","35","retrieval","new_object","80","H48.jpg",".",".","37","1","989"
"35","35","retrieval","new_object","81","G78.jpg",".",".","0","0","2000"
"35","35","retrieval","new_object","82","H9.jpg",".",".","0","0","2000"
"35","35","retrieval","new_object","83","G72.jpg",".",".","37","1","625"
"35","35","retrieval","new_object","84","G58.jpg",".",".","37","1","1075"
"35","35","retrieval","new_object","85","H43.jpg",".",".","37","1","868"
"35","35","retrieval","old_object","86","E42.jpg",".","1","37","0","1829"
"35","35","retrieval","old_object","87","E70.jpg",".","1","36","1","1047"
"35","35","retrieval","new_object","88","G44.jpg",".",".","0","0","2000"
"35","35","retrieval","new_object","89","H5.jpg",".",".","37","1","1594"
"35","35","retrieval","old_object","90","F4.jpg",".","3","37","0","635"
"35","35","retrieval","old_object","91","F56.jpg",".","3","37","0","700"
"35","35","retrieval","new_object","92","G4.jpg",".",".","37","1","382"
"35","35","retrieval","new_object","93","H31.jpg",".",".","37","1","527"
"35","35","retrieval","old_object","94","E12.jpg",".","1","37","0","689"
"35","35","retrieval","old_object","95","F10.jpg",".","3","37","0","658"
"35","35","retrieval","new_object","96","G37.jpg",".",".","37","1","452"
"35","35","retrieval","old_object","97","F71.jpg",".","3","37","0","613"
"35","35","retrieval","new_object","98","G11.jpg",".",".","37","1","662"
"35","35","retrieval","old_object","99","F31.jpg",".","3","37","0","1528"
"35","35","retrieval","new_object","100","H8.jpg",".",".","37","1","265"
"35","35","retrieval","old_object","101","E62.jpg",".","1","37","0","827"
"35","35","retrieval","old_object","102","E15.jpg",".","1","37","0","748"
"35","35","retrieval","old_object","103","E2.jpg",".","1","37","0","574"
"35","35","retrieval","old_object","104","F5.jpg",".","3","36","1","1087"
"35","35","retrieval","old_object","105","E5.jpg",".","1","36","1","864"
"35","35","retrieval","new_object","106","G7.jpg",".",".","37","1","1250"
"35","35","retrieval","old_object","107","F57.jpg",".","3","37","0","1699"
"35","35","retrieval","old_object","108","E36.jpg",".","1","37","0","1925"
"35","35","retrieval","new_object","109","G23.jpg",".",".","37","1","998"
"35","35","retrieval","old_object","110","E9.jpg",".","1","37","0","648"
"35","35","retrieval","new_object","111","G64.jpg",".",".","37","1","969"
"35","35","retrieval","old_object","112","E75.jpg",".","1","37","0","954"
"35","35","retrieval","new_object","113","G30.jpg",".",".","37","1","1388"
"35","35","retrieval","old_object","114","E63.jpg",".","1","37","0","1725"
"35","35","retrieval","old_object","115","E61.jpg",".","1","37","0","1343"
"35","35","retrieval","old_object","116","E4.jpg",".","1","37","0","912"
"35","35","retrieval","old_object","117","F36.jpg",".","3","37","0","625"
"35","35","retrieval","old_object","118","E50.jpg",".","1","37","0","643"
"35","35","retrieval","old_object","119","F34.jpg",".","3","37","0","499"
"35","35","retrieval","old_object","120","F47.jpg",".","3","0","0","2000"
"35","35","retrieval","old_object","121","E43.jpg",".","1","37","0","1846"
"35","35","retrieval","new_object","122","G51.jpg",".",".","37","1","664"
"35","35","retrieval","new_object","123","H25.jpg",".",".","37","1","409"
"35","35","retrieval","new_object","124","H38.jpg",".",".","37","1","1594"
"35","35","retrieval","new_object","125","H27.jpg",".",".","37","1","797"
"35","35","retrieval","new_object","126","G34.jpg",".",".","37","1","541"
"35","35","retrieval","old_object","127","E11.jpg",".","1","37","0","943"
"35","35","retrieval","new_object","128","G26.jpg",".",".","37","1","880"
"35","35","retrieval","new_object","129","G70.jpg",".",".","37","1","929"
"35","35","retrieval","old_object","130","F24.jpg",".","3","37","0","787"
"35","35","retrieval","old_object","131","F78.jpg",".","3","37","0","612"
"35","35","retrieval","new_object","133","H57.jpg",".",".","37","1","1369"
"35","35","retrieval","old_object","134","E23.jpg",".","1","37","0","778"
"35","35","retrieval","old_object","135","F65.jpg",".","3","37","0","1452"
"35","35","retrieval","new_object","136","G67.jpg",".",".","37","1","1181"
"35","35","retrieval","new_object","137","G77.jpg",".",".","37","1","1342"
"35","35","retrieval","new_object","138","H61.jpg",".",".","37","1","704"
"35","35","retrieval","new_object","139","H76.jpg",".",".","37","1","849"
"35","35","retrieval","new_object","140","H37.jpg",".",".","37","1","659"
"35","35","retrieval","old_object","141","F26.jpg",".","3","37","0","1140"
"35","35","retrieval","old_object","142","E59.jpg",".","1","37","0","726"
"35","35","retrieval","old_object","143","F58.jpg",".","3","37","0","551"
"35","35","retrieval","old_object","144","E13.jpg",".","1","36","1","936"
"35","35","retrieval","old_object","145","F7.jpg",".","3","37","0","586"
"35","35","retrieval","old_object","146","F9.jpg",".","3","36","1","859"
"35","35","retrieval","new_object","147","G50.jpg",".",".","37","1","1229"
"35","35","retrieval","old_object","148","E74.jpg",".","1","37","0","1662"
"35","35","retrieval","old_object","149","F73.jpg",".","3","0","0","2000"
"35","35","retrieval","new_object","150","G43.jpg",".",".","37","1","689"
"35","35","retrieval","new_object","151","H44.jpg",".",".","37","1","402"
"35","35","retrieval","new_object","152","G18.jpg",".",".","37","1","1012"
"35","35","retrieval","new_object","153","H36.jpg",".",".","37","1","821"
"35","35","retrieval","old_object","154","F39.jpg",".","3","36","1","1879"
"35","35","retrieval","new_object","155","H73.jpg",".",".","0","0","2000"
"35","35","retrieval","old_object","156","F3.jpg",".","3","37","0","1209"
"35","35","retrieval","new_object","157","G63.jpg",".",".","36","0","1243"
"35","35","retrieval","old_object","158","F28.jpg",".","3","0","0","2000"
"35","35","retrieval","old_object","159","F30.jpg",".","3","36","1","269"
"35","35","retrieval","old_object","160","E10.jpg",".","1","37","0","1278"
"35","35","retrieval","old_object","161","E78.jpg",".","1","0","0","2000"
"35","35","retrieval","new_object","162","G5.jpg",".",".","0","0","2000"
"35","35","retrieval","new_object","163","H71.jpg",".",".","37","1","1586"
"35","35","retrieval","new_object","164","G29.jpg",".",".","37","1","1316"
"35","35","retrieval","old_object","165","E25.jpg",".","1","37","0","1573"
"35","35","retrieval","old_object","166","E19.jpg",".","1","37","0","887"
"35","35","retrieval","old_object","167","F53.jpg",".","3","37","0","1448"
"35","35","retrieval","new_object","168","G21.jpg",".",".","37","1","1306"
"35","35","retrieval","new_object","169","H28.jpg",".",".","36","0","955"
"35","35","retrieval","old_object","170","F61.jpg",".","3","37","0","1436"
"35","35","retrieval","old_object","171","F41.jpg",".","3","37","0","1038"
"35","35","retrieval","old_object","172","E57.jpg",".","1","37","0","543"
"35","35","retrieval","old_object","173","F49.jpg",".","3","37","0","449"
"35","35","retrieval","new_object","174","H62.jpg",".",".","37","1","1058"
"35","35","retrieval","old_object","175","E65.jpg",".","1","37","0","1204"
"35","35","retrieval","new_object","176","G38.jpg",".",".","36","0","1109"
"35","35","retrieval","old_object","177","F52.jpg",".","3","37","0","662"
"35","35","retrieval","old_object","178","E68.jpg",".","1","37","0","456"
"35","35","retrieval","new_object","179","H66.jpg",".",".","37","1","633"
"35","35","retrieval","old_object","180","F63.jpg",".","3","37","0","587"
"35","35","retrieval","old_object","181","F1.jpg",".","3","37","0","284"
"35","35","retrieval","old_object","182","F64.jpg",".","3","0","0","2000"
"35","35","retrieval","old_object","183","F20.jpg",".","3","37","0","1279"
"35","35","retrieval","new_object","184","H26.jpg",".",".","37","1","1120"
"35","35","retrieval","old_object","185","F22.jpg",".","3","36","1","850"
"35","35","retrieval","new_object","186","G62.jpg",".",".","36","0","1715"
"35","35","retrieval","old_object","187","E17.jpg",".","1","0","0","2000"
"35","35","retrieval","new_object","188","G13.jpg",".",".","0","0","2000"
"35","35","retrieval","new_object","189","G17.jpg",".",".","0","0","2000"
"35","35","retrieval","new_object","190","G9.jpg",".",".","0","0","2000"
"35","35","retrieval","new_object","191","H15.jpg",".",".","0","0","2000"
"35","35","retrieval","new_object","192","H19.jpg",".",".","36","0","572"
"35","35","retrieval","old_object","193","F37.jpg",".","3","0","0","2000"
"35","35","retrieval","new_object","194","H30.jpg",".",".","37","1","223"
"35","35","retrieval","new_object","195","H20.jpg",".",".","37","1","720"
"35","35","retrieval","new_object","196","G35.jpg",".",".","37","1","849"
"35","35","retrieval","old_object","197","E73.jpg",".","1","0","0","2000"
"35","35","retrieval","new_object","199","H13.jpg",".",".","37","1","1467"
"35","35","retrieval","new_object","200","H51.jpg",".",".","37","1","557"
"35","35","retrieval","old_object","201","E66.jpg",".","1","36","1","782"
"35","35","retrieval","new_object","202","G20.jpg",".",".","37","1","623"
"35","35","retrieval","new_object","203","H18.jpg",".",".","37","1","513"
"35","35","retrieval","old_object","204","E0.jpg",".","1","37","0","690"
"35","35","retrieval","new_object","205","H3.jpg",".",".","37","1","516"
"35","35","retrieval","new_object","206","H46.jpg",".",".","37","1","309"
"35","35","retrieval","old_object","207","F59.jpg",".","3","37","0","359"
"35","35","retrieval","old_object","208","F46.jpg",".","3","37","0","616"
"35","35","retrieval","new_object","209","H42.jpg",".",".","37","1","857"
"35","35","retrieval","old_object","210","E52.jpg",".","1","37","0","427"
"35","35","retrieval","old_object","211","E26.jpg",".","1","0","0","2000"
"35","35","retrieval","old_object","212","F51.jpg",".","3","36","1","862"
"35","35","retrieval","old_object","213","E51.jpg",".","1","37","0","623"
"35","35","retrieval","new_object","214","G42.jpg",".",".","36","0","800"
"35","35","retrieval","new_object","215","H33.jpg",".",".","37","1","706"
"35","35","retrieval","old_object","216","F23.jpg",".","3","37","0","531"
"35","35","retrieval","new_object","217","H75.jpg",".",".","37","1","564"
"35","35","retrieval","new_object","218","H4.jpg",".",".","37","1","917"
"35","35","retrieval","new_object","219","H74.jpg",".",".","37","1","711"
"35","35","retrieval","old_object","220","F70.jpg",".","3","36","1","600"
"35","35","retrieval","new_object","221","G27.jpg",".",".","37","1","393"
"35","35","retrieval","new_object","222","G24.jpg",".",".","37","1","331"
"35","35","retrieval","old_object","223","F18.jpg",".","3","37","0","444"
"35","35","retrieval","old_object","224","E54.jpg",".","1","37","0","638"
"35","35","retrieval","new_object","225","G36.jpg",".",".","37","1","335"
"35","35","retrieval","old_object","226","E16.jpg",".","1","37","0","1105"
"35","35","retrieval","old_object","227","F42.jpg",".","3","37","0","610"
"35","35","retrieval","old_object","228","E33.jpg",".","1","37","0","627"
"35","35","retrieval","new_object","229","H63.jpg",".",".","37","1","741"
"35","35","retrieval","old_object","230","E20.jpg",".","1","37","0","630"
"35","35","retrieval","new_object","231","H40.jpg",".",".","37","1","760"
"35","35","retrieval","new_object","232","G75.jpg",".",".","36","0","681"
"35","35","retrieval","old_object","233","E69.jpg",".","1","37","0","730"
"35","35","retrieval","old_object","234","E24.jpg",".","1","37","0","620"
"35","35","retrieval","new_object","235","G32.jpg",".",".","37","1","493"
"35","35","retrieval","new_object","236","H1.jpg",".",".","37","1","703"
"35","35","retrieval","new_object","237","H35.jpg",".",".","37","1","320"
"35","35","retrieval","old_object","238","E72.jpg",".","1","36","1","850"
"35","35","retrieval","new_object","239","H11.jpg",".",".","37","1","563"
"35","35","retrieval","new_object","240","G49.jpg",".",".","37","1","660"
"35","35","retrieval","old_object","241","E41.jpg",".","1","37","0","454"
"35","35","retrieval","old_object","242","F77.jpg",".","3","37","0","455"
"35","35","retrieval","new_object","243","G57.jpg",".",".","37","1","569"
"35","35","retrieval","new_object","244","H2.jpg",".",".","37","1","554"
"35","35","retrieval","old_object","245","E76.jpg",".","1","37","0","524"
"35","35","retrieval","old_object","246","F69.jpg",".","3","37","0","429"
"35","35","retrieval","new_object","247","G40.jpg",".",".","37","1","782"
"35","35","retrieval","old_object","248","F44.jpg",".","3","37","0","656"
"35","35","retrieval","new_object","249","G39.jpg",".",".","37","1","449"
"35","35","retrieval","new_object","250","H49.jpg",".",".","37","1","403"
"35","35","retrieval","old_object","251","F40.jpg",".","3","37","0","548"
"35","35","retrieval","new_object","252","G71.jpg",".",".","37","1","294"
"35","35","retrieval","old_object","253","E35.jpg",".","1","37","0","359"
"35","35","retrieval","old_object","254","E55.jpg",".","1","37","0","552"
"35","35","retrieval","new_object","255","H67.jpg",".",".","37","1","794"
"35","35","retrieval","new_object","256","G52.jpg",".",".","37","1","570"
"35","35","retrieval","old_object","257","E45.jpg",".","1","37","0","445"
"35","35","retrieval","new_object","258","G48.jpg",".",".","37","1","461"
"35","35","retrieval","new_object","259","G19.jpg",".",".","37","1","398"
"35","35","retrieval","new_object","260","H7.jpg",".",".","37","1","385"
"35","35","retrieval","old_object","261","F38.jpg",".","3","37","0","578"
"35","35","retrieval","old_object","262","F12.jpg",".","3","37","0","403"
"35","35","retrieval","old_object","263","E7.jpg",".","1","37","0","372"
"35","35","retrieval","new_object","265","H72.jpg",".",".","37","1","671"
"35","35","retrieval","new_object","266","G55.jpg",".",".","37","1","449"
"35","35","retrieval","old_object","267","E46.jpg",".","1","37","0","594"
"35","35","retrieval","new_object","268","H79.jpg",".",".","37","1","483"
"35","35","retrieval","new_object","269","G0.jpg",".",".","37","1","341"
"35","35","retrieval","old_object","270","F68.jpg",".","3","37","0","566"
"35","35","retrieval","new_object","271","H41.jpg",".",".","37","1","552"
"35","35","retrieval","old_object","272","F48.jpg",".","3","37","0","537"
"35","35","retrieval","old_object","273","F50.jpg",".","3","37","0","347"
"35","35","retrieval","old_object","274","F13.jpg",".","3","37","0","540"
"35","35","retrieval","new_object","275","H47.jpg",".",".","37","1","381"
"35","35","retrieval","old_object","276","E3.jpg",".","1","37","0","639"
"35","35","retrieval","old_object","277","E40.jpg",".","1","37","0","416"
"35","35","retrieval","old_object","278","F55.jpg",".","3","37","0","498"
"35","35","retrieval","old_object","279","F60.jpg",".","3","37","0","323"
"35","35","retrieval","old_object","280","E1.jpg",".","1","37","0","597"
"35","35","retrieval","old_object","281","F67.jpg",".","3","37","0","502"
"35","35","retrieval","old_object","282","E39.jpg",".","1","37","0","439"
"35","35","retrieval","new_object","283","H78.jpg",".",".","37","1","537"
"35","35","retrieval","old_object","284","F11.jpg",".","3","37","0","458"
"35","35","retrieval","old_object","285","E30.jpg",".","1","37","0","540"
"35","35","retrieval","old_object","286","F14.jpg",".","3","37","0","477"
"35","35","retrieval","old_object","287","F27.jpg",".","3","37","0","430"
"35","35","retrieval","old_object","288","F17.jpg",".","3","37","0","352"
"35","35","retrieval","new_object","289","H68.jpg",".",".","37","1","465"
"35","35","retrieval","old_object","290","E56.jpg",".","1","37","0","499"
"35","35","retrieval","old_object","291","E31.jpg",".","1","37","0","436"
"35","35","retrieval","new_object","292","H0.jpg",".",".","37","1","326"
"35","35","retrieval","new_object","293","G15.jpg",".",".","37","1","471"
"35","35","retrieval","new_object","294","H65.jpg",".",".","37","1","488"
"35","35","retrieval","new_object","295","G74.jpg",".",".","37","1","362"
"35","35","retrieval","old_object","296","F16.jpg",".","3","36","1","667"
"35","35","retrieval","old_object","297","F45.jpg",".","3","37","0","605"
"35","35","retrieval","old_object","298","E29.jpg",".","1","37","0","526"
"35","35","retrieval","new_object","299","G22.jpg",".",".","37","1","350"
"35","35","retrieval","new_object","300","H52.jpg",".",".","37","1","432"
"35","35","retrieval","new_object","301","H59.jpg",".",".","37","1","673"
"35","35","retrieval","old_object","302","E48.jpg",".","1","37","0","419"
"35","35","retrieval","new_object","303","H77.jpg",".",".","37","1","564"
"35","35","retrieval","old_object","304","F19.jpg",".","3","37","0","806"
"35","35","retrieval","old_object","305","F0.jpg",".","3","37","0","487"
"35","35","retrieval","new_object","306","G41.jpg",".",".","37","1","392"
"35","35","retrieval","old_object","307","E6.jpg",".","1","37","0","378"
"35","35","retrieval","old_object","308","E37.jpg",".","1","37","0","651"
"35","35","retrieval","new_object","309","H21.jpg",".",".","37","1","461"
"35","35","retrieval","new_object","310","H14.jpg",".",".","37","1","382"
"35","35","retrieval","old_object","311","E38.jpg",".","1","37","0","640"
"35","35","retrieval","new_object","312","G59.jpg",".",".","37","1","801"
"35","35","retrieval","new_object","313","G10.jpg",".",".","37","1","451"
"35","35","retrieval","new_object","314","H55.jpg",".",".","37","1","420"
"35","35","retrieval","new_object","315","H58.jpg",".",".","0","0","2000"
"35","35","retrieval","new_object","316","G66.jpg",".",".","37","1","791"
"35","35","retrieval","old_object","317","E27.jpg",".","1","36","1","632"
"35","35","retrieval","old_object","318","E49.jpg",".","1","0","0","2000"
"35","35","retrieval","new_object","319","H54.jpg",".",".","36","0","907"
"35","35","retrieval","old_object","320","F32.jpg",".","3","37","0","492"
"35","35","retrieval","new_object","321","G56.jpg",".",".","37","1","654"
"35","35","retrieval","new_object","322","G12.jpg",".",".","37","1","655"
"35","35","retrieval","old_object","323","F25.jpg",".","3","37","0","577"
"35","35","retrieval","new_object","324","H6.jpg",".",".","37","1","466"
"35","35","retrieval","old_object","325","E47.jpg",".","","37","0","420"
"35","35","demographics_block","gender","1",".",".",".","female","1","16500"
"35","35","demographics_block","age","1",".",".",".","34","1","16500"
"35","35","demographics_block","education","1",".",".",".","16","1","16500"
"35","35","demographics_block","left_right_handed","2",".",".",".","Right","1","11754"
"35","35","demographics_block","raceoption1","2",".",".",".","","1","11754"
"35","35","demographics_block","raceoption2","2",".",".",".","","1","11754"
"35","35","demographics_block","raceoption3","2",".",".",".","","1","11754"
"35","35","demographics_block","raceoption4","2",".",".",".","","1","11754"
"35","35","demographics_block","raceoption5","2",".",".",".","","1","11754"
"35","35","demographics_block","raceoption6","2",".",".",".","5","1","11754"
"35","35","demographics_block","raceoption7","2",".",".",".","","1","11754"
"35","35","demographics_block","raceoption8","2",".",".",".","","1","11754"
"35","35","demographics_block","raceoption9","2",".",".",".","","1","11754"
"35","35","demographics_block","raceother","2",".",".",".","","1","11754"
"35","35","demographics_block","raceother","2",".",".",".","","1","11754"
"35","35","demographics_block","english_language","2",".",".",".","Yes","1","11754"
"35","35","demographics_block","other","2",".",".",".","","1","11754"
"35","35","demographics_block","eyesight","3",".",".",".","Yes","1","12780"
"35","35","demographics_block","colorblind","3",".",".",".","No","1","12780"
