"group","subject","blockcode","trialcode","trialnum","stimulus","encoding_condition","old_object_condition","response","correct","latency"
"8","8","encoding","encoding","1","F27.jpg","3",".","0","0","1000"
"8","8","encoding","encoding","2","E16.jpg","1",".","37","0","522"
"8","8","encoding","encoding","3","E54.jpg","1",".","37","0","504"
"8","8","encoding","encoding","4","F51.jpg","3",".","37","0","513"
"8","8","encoding","encoding","5","F54.jpg","3",".","37","0","748"
"8","8","encoding","encoding","6","F23.jpg","3",".","37","0","657"
"8","8","encoding","encoding","7","E26.jpg","1",".","37","0","265"
"8","8","encoding","encoding","8","F6.jpg","3",".","37","0","62"
"8","8","encoding","encoding","9","F8.jpg","3",".","37","0","15"
"8","8","encoding","encoding","10","E12.jpg","1",".","0","0","1000"
"8","8","encoding","encoding","11","F79.jpg","3",".","37","0","171"
"8","8","encoding","encoding","12","E22.jpg","1",".","37","0","889"
"8","8","encoding","encoding","13","F67.jpg","3",".","37","0","692"
"8","8","encoding","encoding","14","F68.jpg","3",".","37","0","623"
"8","8","encoding","encoding","15","F29.jpg","3",".","37","0","558"
"8","8","encoding","encoding","16","F0.jpg","3",".","37","0","746"
"8","8","encoding","encoding","17","E50.jpg","1",".","37","0","597"
"8","8","encoding","encoding","18","F69.jpg","3",".","36","0","677"
"8","8","encoding","encoding","19","F8.jpg","3",".","37","0","555"
"8","8","encoding","encoding","20","F39.jpg","3",".","37","0","534"
"8","8","encoding","encoding","21","F25.jpg","3",".","37","0","609"
"8","8","encoding","encoding","22","F9.jpg","3",".","36","0","687"
"8","8","encoding","encoding","23","E14.jpg","1",".","37","0","793"
"8","8","encoding","encoding","24","F43.jpg","3",".","0","0","1000"
"8","8","encoding","encoding","25","F45.jpg","3",".","37","0","880"
"8","8","encoding","encoding","26","E56.jpg","1",".","37","0","561"
"8","8","encoding","encoding","27","E53.jpg","1",".","36","0","706"
"8","8","encoding","encoding","28","F52.jpg","3",".","37","0","567"
"8","8","encoding","encoding","29","F14.jpg","3",".","37","0","619"
"8","8","encoding","encoding","30","F78.jpg","3",".","37","0","566"
"8","8","encoding","encoding","31","F50.jpg","3",".","37","0","691"
"8","8","encoding","encoding","32","F75.jpg","3",".","37","0","951"
"8","8","encoding","encoding","33","F28.jpg","3",".","37","0","608"
"8","8","encoding","encoding","34","E51.jpg","1",".","37","0","643"
"8","8","encoding","encoding","35","F55.jpg","3",".","37","0","659"
"8","8","encoding","encoding","36","F65.jpg","3",".","37","0","537"
"8","8","encoding","encoding","37","E17.jpg","1",".","37","0","917"
"8","8","encoding","encoding","38","E49.jpg","1",".","37","0","713"
"8","8","encoding","encoding","39","F70.jpg","3",".","36","0","587"
"8","8","encoding","encoding","40","F54.jpg","3",".","36","0","747"
"8","8","encoding","encoding","41","F39.jpg","3",".","36","0","751"
"8","8","encoding","encoding","42","F73.jpg","3",".","37","0","552"
"8","8","encoding","encoding","43","F6.jpg","3",".","37","0","566"
"8","8","encoding","encoding","44","F35.jpg","3",".","37","0","567"
"8","8","encoding","encoding","45","F54.jpg","3",".","36","0","751"
"8","8","encoding","encoding","46","E5.jpg","1",".","36","0","604"
"8","8","encoding","encoding","47","E60.jpg","1",".","37","0","612"
"8","8","encoding","encoding","48","F5.jpg","3",".","37","0","649"
"8","8","encoding","encoding","49","F14.jpg","3",".","0","0","1000"
"8","8","encoding","encoding","50","F40.jpg","3",".","37","0","612"
"8","8","encoding","encoding","51","F34.jpg","3",".","37","0","537"
"8","8","encoding","encoding","52","F33.jpg","3",".","37","0","525"
"8","8","encoding","encoding","53","F12.jpg","3",".","37","0","610"
"8","8","encoding","encoding","54","F41.jpg","3",".","37","0","764"
"8","8","encoding","encoding","55","F3.jpg","3",".","37","0","539"
"8","8","encoding","encoding","56","E47.jpg","1",".","37","0","573"
"8","8","encoding","encoding","57","F5.jpg","3",".","37","0","436"
"8","8","encoding","encoding","58","E73.jpg","1",".","37","0","557"
"8","8","encoding","encoding","59","F79.jpg","3",".","37","0","562"
"8","8","encoding","encoding","60","F65.jpg","3",".","0","0","1000"
"8","8","encoding","encoding","61","F37.jpg","3",".","37","0","631"
"8","8","encoding","encoding","62","F41.jpg","3",".","37","0","658"
"8","8","encoding","encoding","63","F0.jpg","3",".","37","0","748"
"8","8","encoding","encoding","64","F18.jpg","3",".","37","0","561"
"8","8","encoding","encoding","65","E59.jpg","1",".","0","0","1000"
"8","8","encoding","encoding","67","F15.jpg","3",".","0","0","1000"
"8","8","encoding","encoding","68","F16.jpg","3",".","37","0","138"
"8","8","encoding","encoding","69","F37.jpg","3",".","0","0","1000"
"8","8","encoding","encoding","70","F37.jpg","3",".","0","0","1000"
"8","8","encoding","encoding","71","E23.jpg","1",".","0","0","1000"
"8","8","encoding","encoding","72","E29.jpg","1",".","0","0","1000"
"8","8","encoding","encoding","73","E31.jpg","1",".","0","0","1000"
"8","8","encoding","encoding","74","F49.jpg","3",".","0","0","1000"
"8","8","encoding","encoding","75","F46.jpg","3",".","0","0","1000"
"8","8","encoding","encoding","76","E11.jpg","1",".","0","0","1000"
"8","8","encoding","encoding","77","F18.jpg","3",".","0","0","1000"
"8","8","encoding","encoding","78","F4.jpg","3",".","37","0","685"
"8","8","encoding","encoding","79","F74.jpg","3",".","37","0","599"
"8","8","encoding","encoding","80","F29.jpg","3",".","37","0","842"
"8","8","encoding","encoding","81","F59.jpg","3",".","37","0","767"
"8","8","encoding","encoding","82","F22.jpg","3",".","0","0","1000"
"8","8","encoding","encoding","83","E35.jpg","1",".","0","0","1000"
"8","8","encoding","encoding","84","F50.jpg","3",".","0","0","1000"
"8","8","encoding","encoding","85","F72.jpg","3",".","0","0","1000"
"8","8","encoding","encoding","86","F64.jpg","3",".","37","0","518"
"8","8","encoding","encoding","87","F35.jpg","3",".","37","0","553"
"8","8","encoding","encoding","88","E43.jpg","1",".","37","0","771"
"8","8","encoding","encoding","89","F40.jpg","3",".","37","0","611"
"8","8","encoding","encoding","90","F77.jpg","3",".","37","0","737"
"8","8","encoding","encoding","91","E44.jpg","1",".","0","0","1000"
"8","8","encoding","encoding","92","F31.jpg","3",".","37","0","742"
"8","8","encoding","encoding","93","E6.jpg","1",".","37","0","755"
"8","8","encoding","encoding","94","F69.jpg","3",".","36","0","773"
"8","8","encoding","encoding","95","F66.jpg","3",".","37","0","702"
"8","8","encoding","encoding","96","E77.jpg","1",".","37","0","792"
"8","8","encoding","encoding","97","F38.jpg","3",".","0","0","1000"
"8","8","encoding","encoding","98","E72.jpg","1",".","36","0","722"
"8","8","encoding","encoding","99","E69.jpg","1",".","37","0","925"
"8","8","encoding","encoding","100","E30.jpg","1",".","37","0","956"
"8","8","encoding","encoding","101","F76.jpg","3",".","37","0","915"
"8","8","encoding","encoding","102","F60.jpg","3",".","0","0","1000"
"8","8","encoding","encoding","103","F7.jpg","3",".","37","0","971"
"8","8","encoding","encoding","104","E58.jpg","1",".","37","0","947"
"8","8","encoding","encoding","105","F2.jpg","3",".","0","0","1000"
"8","8","encoding","encoding","106","F55.jpg","3",".","0","0","1000"
"8","8","encoding","encoding","107","F35.jpg","3",".","37","0","763"
"8","8","encoding","encoding","108","F71.jpg","3",".","37","0","523"
"8","8","encoding","encoding","109","E4.jpg","1",".","37","0","596"
"8","8","encoding","encoding","110","E48.jpg","1",".","37","0","787"
"8","8","encoding","encoding","111","F33.jpg","3",".","37","0","523"
"8","8","encoding","encoding","112","F36.jpg","3",".","37","0","538"
"8","8","encoding","encoding","113","F36.jpg","3",".","37","0","539"
"8","8","encoding","encoding","114","F64.jpg","3",".","0","0","1000"
"8","8","encoding","encoding","115","F68.jpg","3",".","37","0","562"
"8","8","encoding","encoding","116","F29.jpg","3",".","37","0","499"
"8","8","encoding","encoding","117","E66.jpg","1",".","36","0","745"
"8","8","encoding","encoding","118","E57.jpg","1",".","37","0","607"
"8","8","encoding","encoding","119","E33.jpg","1",".","37","0","564"
"8","8","encoding","encoding","120","F24.jpg","3",".","37","0","496"
"8","8","encoding","encoding","121","F50.jpg","3",".","37","0","560"
"8","8","encoding","encoding","122","E38.jpg","1",".","37","0","816"
"8","8","encoding","encoding","123","E52.jpg","1",".","0","0","1000"
"8","8","encoding","encoding","124","F31.jpg","3",".","0","0","1000"
"8","8","encoding","encoding","125","F4.jpg","3",".","37","0","583"
"8","8","encoding","encoding","126","E34.jpg","1",".","37","0","772"
"8","8","encoding","encoding","127","F48.jpg","3",".","37","0","575"
"8","8","encoding","encoding","128","F76.jpg","3",".","37","0","640"
"8","8","encoding","encoding","129","F1.jpg","3",".","37","0","633"
"8","8","encoding","encoding","130","F47.jpg","3",".","37","0","582"
"8","8","encoding","encoding","131","E9.jpg","1",".","37","0","555"
"8","8","encoding","encoding","133","F75.jpg","3",".","37","0","865"
"8","8","encoding","encoding","134","E39.jpg","1",".","37","0","706"
"8","8","encoding","encoding","135","F62.jpg","3",".","37","0","743"
"8","8","encoding","encoding","136","F77.jpg","3",".","37","0","645"
"8","8","encoding","encoding","137","E55.jpg","1",".","0","0","1000"
"8","8","encoding","encoding","138","F30.jpg","3",".","36","0","798"
"8","8","encoding","encoding","139","F56.jpg","3",".","36","0","678"
"8","8","encoding","encoding","140","F57.jpg","3",".","37","0","588"
"8","8","encoding","encoding","141","E68.jpg","1",".","36","0","814"
"8","8","encoding","encoding","142","F66.jpg","3",".","37","0","518"
"8","8","encoding","encoding","143","F53.jpg","3",".","37","0","476"
"8","8","encoding","encoding","144","F58.jpg","3",".","37","0","859"
"8","8","encoding","encoding","145","F23.jpg","3",".","37","0","503"
"8","8","encoding","encoding","146","F21.jpg","3",".","37","0","478"
"8","8","encoding","encoding","147","F57.jpg","3",".","37","0","490"
"8","8","encoding","encoding","148","F39.jpg","3",".","37","0","760"
"8","8","encoding","encoding","149","F22.jpg","3",".","37","0","683"
"8","8","encoding","encoding","150","F49.jpg","3",".","37","0","603"
"8","8","encoding","encoding","151","E20.jpg","1",".","37","0","757"
"8","8","encoding","encoding","152","F56.jpg","3",".","36","0","599"
"8","8","encoding","encoding","153","F70.jpg","3",".","36","0","605"
"8","8","encoding","encoding","154","F60.jpg","3",".","37","0","619"
"8","8","encoding","encoding","155","F63.jpg","3",".","37","0","581"
"8","8","encoding","encoding","156","F57.jpg","3",".","37","0","797"
"8","8","encoding","encoding","157","F63.jpg","3",".","0","0","1000"
"8","8","encoding","encoding","158","F27.jpg","3",".","37","0","531"
"8","8","encoding","encoding","159","F58.jpg","3",".","37","0","555"
"8","8","encoding","encoding","160","F55.jpg","3",".","37","0","529"
"8","8","encoding","encoding","161","F47.jpg","3",".","37","0","644"
"8","8","encoding","encoding","162","F13.jpg","3",".","37","0","988"
"8","8","encoding","encoding","163","F1.jpg","3",".","0","0","1000"
"8","8","encoding","encoding","164","E28.jpg","1",".","37","0","594"
"8","8","encoding","encoding","165","F10.jpg","3",".","0","0","1000"
"8","8","encoding","encoding","166","F27.jpg","3",".","0","0","1000"
"8","8","encoding","encoding","167","F36.jpg","3",".","37","0","949"
"8","8","encoding","encoding","168","F62.jpg","3",".","0","0","1000"
"8","8","encoding","encoding","169","F59.jpg","3",".","37","0","927"
"8","8","encoding","encoding","170","E74.jpg","1",".","37","0","636"
"8","8","encoding","encoding","171","F46.jpg","3",".","37","0","588"
"8","8","encoding","encoding","172","F52.jpg","3",".","37","0","689"
"8","8","encoding","encoding","173","F59.jpg","3",".","37","0","573"
"8","8","encoding","encoding","174","F71.jpg","3",".","37","0","489"
"8","8","encoding","encoding","175","E10.jpg","1",".","37","0","642"
"8","8","encoding","encoding","176","F1.jpg","3",".","37","0","481"
"8","8","encoding","encoding","177","F74.jpg","3",".","37","0","513"
"8","8","encoding","encoding","178","F15.jpg","3",".","37","0","735"
"8","8","encoding","encoding","179","F68.jpg","3",".","37","0","528"
"8","8","encoding","encoding","180","F78.jpg","3",".","0","0","1000"
"8","8","encoding","encoding","181","F24.jpg","3",".","0","0","1000"
"8","8","encoding","encoding","182","F25.jpg","3",".","37","0","517"
"8","8","encoding","encoding","183","F56.jpg","3",".","36","0","732"
"8","8","encoding","encoding","184","F69.jpg","3",".","36","0","730"
"8","8","encoding","encoding","185","E78.jpg","1",".","37","0","756"
"8","8","encoding","encoding","186","E25.jpg","1",".","37","0","919"
"8","8","encoding","encoding","187","F64.jpg","3",".","37","0","880"
"8","8","encoding","encoding","188","E41.jpg","1",".","37","0","607"
"8","8","encoding","encoding","189","E42.jpg","1",".","37","0","674"
"8","8","encoding","encoding","190","F11.jpg","3",".","37","0","613"
"8","8","encoding","encoding","191","F66.jpg","3",".","37","0","617"
"8","8","encoding","encoding","192","F32.jpg","3",".","37","0","564"
"8","8","encoding","encoding","193","E46.jpg","1",".","37","0","792"
"8","8","encoding","encoding","194","E1.jpg","1",".","37","0","507"
"8","8","encoding","encoding","195","E21.jpg","1",".","37","0","583"
"8","8","encoding","encoding","196","F53.jpg","3",".","37","0","482"
"8","8","encoding","encoding","197","F62.jpg","3",".","37","0","592"
"8","8","encoding","encoding","199","E15.jpg","1",".","37","0","967"
"8","8","encoding","encoding","200","E13.jpg","1",".","36","0","606"
"8","8","encoding","encoding","201","F73.jpg","3",".","37","0","658"
"8","8","encoding","encoding","202","F33.jpg","3",".","37","0","486"
"8","8","encoding","encoding","203","F17.jpg","3",".","37","0","698"
"8","8","encoding","encoding","204","E65.jpg","1",".","37","0","907"
"8","8","encoding","encoding","205","F13.jpg","3",".","37","0","546"
"8","8","encoding","encoding","206","F23.jpg","3",".","37","0","716"
"8","8","encoding","encoding","207","F10.jpg","3",".","37","0","588"
"8","8","encoding","encoding","208","F48.jpg","3",".","37","0","525"
"8","8","encoding","encoding","209","E64.jpg","1",".","37","0","597"
"8","8","encoding","encoding","210","F38.jpg","3",".","37","0","619"
"8","8","encoding","encoding","211","F15.jpg","3",".","37","0","612"
"8","8","encoding","encoding","212","F30.jpg","3",".","37","0","514"
"8","8","encoding","encoding","213","F5.jpg","3",".","37","0","556"
"8","8","encoding","encoding","214","E37.jpg","1",".","37","0","643"
"8","8","encoding","encoding","215","F26.jpg","3",".","37","0","858"
"8","8","encoding","encoding","216","F22.jpg","3",".","37","0","682"
"8","8","encoding","encoding","217","F4.jpg","3",".","37","0","600"
"8","8","encoding","encoding","218","F17.jpg","3",".","37","0","500"
"8","8","encoding","encoding","219","F48.jpg","3",".","37","0","902"
"8","8","encoding","encoding","220","F6.jpg","3",".","37","0","955"
"8","8","encoding","encoding","221","F21.jpg","3",".","37","0","694"
"8","8","encoding","encoding","222","F72.jpg","3",".","37","0","591"
"8","8","encoding","encoding","223","E75.jpg","1",".","36","0","937"
"8","8","encoding","encoding","224","F73.jpg","3",".","37","0","632"
"8","8","encoding","encoding","225","E61.jpg","1",".","37","0","554"
"8","8","encoding","encoding","226","E24.jpg","1",".","37","0","518"
"8","8","encoding","encoding","227","F72.jpg","3",".","0","0","1000"
"8","8","encoding","encoding","228","F78.jpg","3",".","37","0","526"
"8","8","encoding","encoding","229","F24.jpg","3",".","37","0","488"
"8","8","encoding","encoding","230","F79.jpg","3",".","37","0","657"
"8","8","encoding","encoding","231","E2.jpg","1",".","37","0","606"
"8","8","encoding","encoding","232","F51.jpg","3",".","36","0","643"
"8","8","encoding","encoding","233","E0.jpg","1",".","37","0","898"
"8","8","encoding","encoding","234","F70.jpg","3",".","36","0","585"
"8","8","encoding","encoding","235","F46.jpg","3",".","36","0","731"
"8","8","encoding","encoding","236","E79.jpg","1",".","36","0","601"
"8","8","encoding","encoding","237","F19.jpg","3",".","36","0","730"
"8","8","encoding","encoding","238","F47.jpg","3",".","37","0","582"
"8","8","encoding","encoding","239","F8.jpg","3",".","37","0","523"
"8","8","encoding","encoding","240","E70.jpg","1",".","36","0","747"
"8","8","encoding","encoding","241","F61.jpg","3",".","36","0","672"
"8","8","encoding","encoding","242","F76.jpg","3",".","37","0","773"
"8","8","encoding","encoding","243","F3.jpg","3",".","37","0","615"
"8","8","encoding","encoding","244","F58.jpg","3",".","0","0","1000"
"8","8","encoding","encoding","245","F20.jpg","3",".","37","0","203"
"8","8","encoding","encoding","246","F32.jpg","3",".","37","0","778"
"8","8","encoding","encoding","247","E18.jpg","1",".","37","0","759"
"8","8","encoding","encoding","248","F20.jpg","3",".","0","0","1000"
"8","8","encoding","encoding","249","F61.jpg","3",".","0","0","1000"
"8","8","encoding","encoding","250","E62.jpg","1",".","36","0","33"
"8","8","encoding","encoding","251","F44.jpg","3",".","37","0","577"
"8","8","encoding","encoding","252","F19.jpg","3",".","36","0","770"
"8","8","encoding","encoding","253","E8.jpg","1",".","37","0","924"
"8","8","encoding","encoding","254","F67.jpg","3",".","37","0","552"
"8","8","encoding","encoding","255","F2.jpg","3",".","37","0","577"
"8","8","encoding","encoding","256","F42.jpg","3",".","37","0","908"
"8","8","encoding","encoding","257","F31.jpg","3",".","37","0","589"
"8","8","encoding","encoding","258","F43.jpg","3",".","37","0","576"
"8","8","encoding","encoding","259","F12.jpg","3",".","37","0","592"
"8","8","encoding","encoding","260","E36.jpg","1",".","37","0","586"
"8","8","encoding","encoding","261","F45.jpg","3",".","37","0","514"
"8","8","encoding","encoding","262","F7.jpg","3",".","37","0","501"
"8","8","encoding","encoding","263","F74.jpg","3",".","37","0","533"
"8","8","encoding","encoding","265","E19.jpg","1",".","37","0","494"
"8","8","encoding","encoding","266","F7.jpg","3",".","37","0","532"
"8","8","encoding","encoding","267","F26.jpg","3",".","37","0","552"
"8","8","encoding","encoding","268","E67.jpg","1",".","37","0","673"
"8","8","encoding","encoding","269","F67.jpg","3",".","37","0","807"
"8","8","encoding","encoding","270","F44.jpg","3",".","37","0","598"
"8","8","encoding","encoding","271","F28.jpg","3",".","37","0","736"
"8","8","encoding","encoding","272","F52.jpg","3",".","0","0","1000"
"8","8","encoding","encoding","273","F53.jpg","3",".","37","0","450"
"8","8","encoding","encoding","274","F14.jpg","3",".","37","0","631"
"8","8","encoding","encoding","275","F28.jpg","3",".","37","0","939"
"8","8","encoding","encoding","276","E76.jpg","1",".","0","0","1000"
"8","8","encoding","encoding","277","E7.jpg","1",".","36","0","726"
"8","8","encoding","encoding","278","F49.jpg","3",".","37","0","549"
"8","8","encoding","encoding","279","F34.jpg","3",".","37","0","785"
"8","8","encoding","encoding","280","F30.jpg","3",".","0","0","1000"
"8","8","encoding","encoding","281","F75.jpg","3",".","0","0","1000"
"8","8","encoding","encoding","282","F45.jpg","3",".","0","0","1000"
"8","8","encoding","encoding","283","F63.jpg","3",".","37","0","522"
"8","8","encoding","encoding","284","F18.jpg","3",".","0","0","1000"
"8","8","encoding","encoding","285","F34.jpg","3",".","37","0","50"
"8","8","encoding","encoding","286","F21.jpg","3",".","37","0","674"
"8","8","encoding","encoding","287","F61.jpg","3",".","0","0","1000"
"8","8","encoding","encoding","288","F42.jpg","3",".","37","0","850"
"8","8","encoding","encoding","289","F9.jpg","3",".","0","0","1000"
"8","8","encoding","encoding","290","F25.jpg","3",".","37","0","626"
"8","8","encoding","encoding","291","F43.jpg","3",".","37","0","903"
"8","8","encoding","encoding","292","E27.jpg","1",".","36","0","645"
"8","8","encoding","encoding","293","F60.jpg","3",".","37","0","815"
"8","8","encoding","encoding","294","E63.jpg","1",".","0","0","1000"
"8","8","encoding","encoding","295","F77.jpg","3",".","0","0","1000"
"8","8","encoding","encoding","296","F40.jpg","3",".","37","0","375"
"8","8","encoding","encoding","297","E45.jpg","1",".","0","0","1000"
"8","8","encoding","encoding","298","F42.jpg","3",".","37","0","739"
"8","8","encoding","encoding","299","F26.jpg","3",".","0","0","1000"
"8","8","encoding","encoding","300","F16.jpg","3",".","36","0","666"
"8","8","encoding","encoding","301","F11.jpg","3",".","0","0","1000"
"8","8","encoding","encoding","302","F13.jpg","3",".","0","0","1000"
"8","8","encoding","encoding","303","F38.jpg","3",".","37","0","554"
"8","8","encoding","encoding","304","E32.jpg","1",".","36","0","619"
"8","8","encoding","encoding","305","F12.jpg","3",".","37","0","798"
"8","8","encoding","encoding","306","F16.jpg","3",".","36","0","917"
"8","8","encoding","encoding","307","F10.jpg","3",".","37","0","553"
"8","8","encoding","encoding","308","F3.jpg","3",".","37","0","552"
"8","8","encoding","encoding","309","F32.jpg","3",".","37","0","532"
"8","8","encoding","encoding","310","F2.jpg","3",".","37","0","696"
"8","8","encoding","encoding","311","E40.jpg","1",".","37","0","545"
"8","8","encoding","encoding","312","E71.jpg","1",".","37","0","757"
"8","8","encoding","encoding","313","F11.jpg","3",".","37","0","759"
"8","8","encoding","encoding","314","F71.jpg","3",".","0","0","1000"
"8","8","encoding","encoding","315","F9.jpg","3",".","0","0","1000"
"8","8","encoding","encoding","316","F0.jpg","3",".","37","0","586"
"8","8","encoding","encoding","317","F44.jpg","3",".","37","0","595"
"8","8","encoding","encoding","318","F19.jpg","3",".","0","0","1000"
"8","8","encoding","encoding","319","F17.jpg","3",".","37","0","442"
"8","8","encoding","encoding","320","F20.jpg","3",".","37","0","651"
"8","8","encoding","encoding","321","F51.jpg","3",".","36","0","882"
"8","8","encoding","encoding","322","F65.jpg","3",".","0","0","1000"
"8","8","encoding","encoding","323","E3.jpg","1",".","37","0","447"
"8","8","encoding","encoding","324","F41.jpg","3",".","37","0","586"
"8","8","encoding","encoding","325","F27.jpg","",".","37","0","780"
"8","8","retrieval","old_object","1","E47.jpg",".","1","37","0","1330"
"8","8","retrieval","new_object","2","G19.jpg",".",".","37","1","615"
"8","8","retrieval","old_object","3","F72.jpg",".","3","36","1","823"
"8","8","retrieval","new_object","4","H31.jpg",".",".","37","1","615"
"8","8","retrieval","old_object","5","E44.jpg",".","1","36","1","887"
"8","8","retrieval","old_object","6","E79.jpg",".","1","36","1","817"
"8","8","retrieval","new_object","7","H33.jpg",".",".","37","1","710"
"8","8","retrieval","old_object","8","E34.jpg",".","1","37","0","573"
"8","8","retrieval","new_object","9","H47.jpg",".",".","36","0","963"
"8","8","retrieval","old_object","10","F15.jpg",".","3","36","1","784"
"8","8","retrieval","new_object","11","G58.jpg",".",".","37","1","794"
"8","8","retrieval","new_object","12","G39.jpg",".",".","37","1","987"
"8","8","retrieval","old_object","13","E22.jpg",".","1","36","1","887"
"8","8","retrieval","new_object","14","G38.jpg",".",".","37","1","916"
"8","8","retrieval","old_object","15","E71.jpg",".","1","36","1","815"
"8","8","retrieval","new_object","16","H9.jpg",".",".","0","0","2000"
"8","8","retrieval","old_object","17","E60.jpg",".","1","36","1","836"
"8","8","retrieval","old_object","18","E8.jpg",".","1","36","1","773"
"8","8","retrieval","new_object","19","G18.jpg",".",".","37","1","736"
"8","8","retrieval","old_object","20","F8.jpg",".","3","36","1","780"
"8","8","retrieval","new_object","21","G48.jpg",".",".","37","1","1053"
"8","8","retrieval","new_object","22","H78.jpg",".",".","37","1","1356"
"8","8","retrieval","old_object","23","F74.jpg",".","3","36","1","1208"
"8","8","retrieval","new_object","24","H42.jpg",".",".","37","1","1391"
"8","8","retrieval","old_object","25","E77.jpg",".","1","36","1","753"
"8","8","retrieval","new_object","26","G7.jpg",".",".","37","1","912"
"8","8","retrieval","new_object","27","G67.jpg",".",".","36","0","1086"
"8","8","retrieval","new_object","28","H62.jpg",".",".","37","1","1159"
"8","8","retrieval","old_object","29","F43.jpg",".","3","36","1","889"
"8","8","retrieval","new_object","30","H67.jpg",".",".","37","1","1333"
"8","8","retrieval","new_object","31","G72.jpg",".",".","37","1","861"
"8","8","retrieval","new_object","32","G46.jpg",".",".","0","0","2000"
"8","8","retrieval","old_object","33","F29.jpg",".","3","37","0","1194"
"8","8","retrieval","old_object","34","F33.jpg",".","3","36","1","766"
"8","8","retrieval","new_object","35","G70.jpg",".",".","36","0","1002"
"8","8","retrieval","old_object","36","F66.jpg",".","3","36","1","764"
"8","8","retrieval","old_object","37","E67.jpg",".","1","36","1","1098"
"8","8","retrieval","old_object","38","E18.jpg",".","1","36","1","606"
"8","8","retrieval","old_object","39","E28.jpg",".","1","36","1","632"
"8","8","retrieval","new_object","40","G65.jpg",".",".","37","1","962"
"8","8","retrieval","old_object","41","F54.jpg",".","3","36","1","657"
"8","8","retrieval","old_object","42","F2.jpg",".","3","36","1","722"
"8","8","retrieval","new_object","43","H40.jpg",".",".","37","1","893"
"8","8","retrieval","old_object","44","E14.jpg",".","1","36","1","823"
"8","8","retrieval","new_object","45","G44.jpg",".",".","37","1","961"
"8","8","retrieval","old_object","46","E32.jpg",".","1","36","1","692"
"8","8","retrieval","new_object","47","G14.jpg",".",".","0","0","2000"
"8","8","retrieval","new_object","48","H49.jpg",".",".","36","0","1328"
"8","8","retrieval","new_object","49","G63.jpg",".",".","0","0","2000"
"8","8","retrieval","new_object","50","H66.jpg",".",".","37","1","734"
"8","8","retrieval","old_object","51","F76.jpg",".","3","37","0","1221"
"8","8","retrieval","old_object","52","F21.jpg",".","3","37","0","884"
"8","8","retrieval","old_object","53","E64.jpg",".","1","37","0","852"
"8","8","retrieval","old_object","54","F35.jpg",".","3","37","0","678"
"8","8","retrieval","new_object","55","H76.jpg",".",".","37","1","778"
"8","8","retrieval","new_object","56","H50.jpg",".",".","36","0","1047"
"8","8","retrieval","old_object","57","F6.jpg",".","3","36","1","824"
"8","8","retrieval","new_object","58","H1.jpg",".",".","37","1","753"
"8","8","retrieval","new_object","59","G47.jpg",".",".","37","1","894"
"8","8","retrieval","new_object","60","G5.jpg",".",".","37","1","811"
"8","8","retrieval","old_object","61","F75.jpg",".","3","36","1","1118"
"8","8","retrieval","new_object","62","G8.jpg",".",".","37","1","1146"
"8","8","retrieval","new_object","63","H55.jpg",".",".","37","1","793"
"8","8","retrieval","new_object","64","H71.jpg",".",".","36","0","990"
"8","8","retrieval","old_object","65","F62.jpg",".","3","36","1","980"
"8","8","retrieval","old_object","67","E21.jpg",".","1","36","1","796"
"8","8","retrieval","old_object","68","E53.jpg",".","1","36","1","590"
"8","8","retrieval","new_object","69","G45.jpg",".",".","37","1","713"
"8","8","retrieval","new_object","70","H30.jpg",".",".","37","1","983"
"8","8","retrieval","new_object","71","G4.jpg",".",".","37","1","814"
"8","8","retrieval","new_object","72","G66.jpg",".",".","37","1","1271"
"8","8","retrieval","old_object","73","E58.jpg",".","1","36","1","810"
"8","8","retrieval","old_object","74","F79.jpg",".","3","36","1","985"
"8","8","retrieval","new_object","75","H17.jpg",".",".","37","1","754"
"8","8","retrieval","old_object","76","E42.jpg",".","1","37","0","915"
"8","8","retrieval","new_object","77","G77.jpg",".",".","37","1","774"
"8","8","retrieval","old_object","78","E70.jpg",".","1","36","1","983"
"8","8","retrieval","new_object","79","G27.jpg",".",".","37","1","800"
"8","8","retrieval","new_object","80","G71.jpg",".",".","37","1","795"
"8","8","retrieval","new_object","81","H37.jpg",".",".","37","1","751"
"8","8","retrieval","old_object","82","F4.jpg",".","3","36","1","953"
"8","8","retrieval","old_object","83","F56.jpg",".","3","36","1","614"
"8","8","retrieval","old_object","84","E12.jpg",".","1","36","1","1124"
"8","8","retrieval","old_object","85","F10.jpg",".","3","36","1","796"
"8","8","retrieval","new_object","86","H74.jpg",".",".","0","0","2000"
"8","8","retrieval","new_object","87","G29.jpg",".",".","37","1","941"
"8","8","retrieval","old_object","88","F71.jpg",".","3","36","1","750"
"8","8","retrieval","new_object","89","G20.jpg",".",".","36","0","670"
"8","8","retrieval","old_object","90","F31.jpg",".","3","36","1","690"
"8","8","retrieval","new_object","91","H60.jpg",".",".","36","0","771"
"8","8","retrieval","old_object","92","E62.jpg",".","1","36","1","757"
"8","8","retrieval","new_object","93","H32.jpg",".",".","37","1","974"
"8","8","retrieval","new_object","94","G76.jpg",".",".","36","0","1206"
"8","8","retrieval","new_object","95","G49.jpg",".",".","37","1","1444"
"8","8","retrieval","new_object","96","H58.jpg",".",".","37","1","752"
"8","8","retrieval","new_object","97","G33.jpg",".",".","37","1","1070"
"8","8","retrieval","old_object","98","E15.jpg",".","1","36","1","880"
"8","8","retrieval","old_object","99","E2.jpg",".","1","37","0","802"
"8","8","retrieval","new_object","100","H15.jpg",".",".","37","1","937"
"8","8","retrieval","old_object","101","F5.jpg",".","3","37","0","545"
"8","8","retrieval","old_object","102","E5.jpg",".","1","36","1","779"
"8","8","retrieval","old_object","103","F57.jpg",".","3","36","1","868"
"8","8","retrieval","new_object","104","H11.jpg",".",".","37","1","705"
"8","8","retrieval","new_object","105","H26.jpg",".",".","37","1","725"
"8","8","retrieval","old_object","106","E36.jpg",".","1","36","1","872"
"8","8","retrieval","old_object","107","E9.jpg",".","1","36","1","1502"
"8","8","retrieval","new_object","108","G68.jpg",".",".","36","0","1452"
"8","8","retrieval","old_object","109","E75.jpg",".","1","36","1","1150"
"8","8","retrieval","new_object","110","H4.jpg",".",".","37","1","1455"
"8","8","retrieval","new_object","111","H36.jpg",".",".","37","1","921"
"8","8","retrieval","new_object","112","G22.jpg",".",".","37","1","962"
"8","8","retrieval","new_object","113","H14.jpg",".",".","37","1","685"
"8","8","retrieval","old_object","114","E63.jpg",".","1","36","1","735"
"8","8","retrieval","new_object","115","G59.jpg",".",".","36","0","1216"
"8","8","retrieval","new_object","116","H61.jpg",".",".","37","1","1095"
"8","8","retrieval","old_object","117","E61.jpg",".","1","37","0","982"
"8","8","retrieval","new_object","118","H46.jpg",".",".","0","0","2000"
"8","8","retrieval","old_object","119","E4.jpg",".","1","0","0","2000"
"8","8","retrieval","new_object","120","G10.jpg",".",".","37","1","709"
"8","8","retrieval","old_object","121","F36.jpg",".","3","36","1","687"
"8","8","retrieval","new_object","122","G31.jpg",".",".","37","1","704"
"8","8","retrieval","old_object","123","E50.jpg",".","1","36","1","863"
"8","8","retrieval","new_object","124","H12.jpg",".",".","37","1","786"
"8","8","retrieval","new_object","125","H57.jpg",".",".","37","1","1493"
"8","8","retrieval","new_object","126","G53.jpg",".",".","37","1","1103"
"8","8","retrieval","new_object","127","G74.jpg",".",".","37","1","1272"
"8","8","retrieval","old_object","128","F34.jpg",".","3","36","1","825"
"8","8","retrieval","old_object","129","F47.jpg",".","3","37","0","827"
"8","8","retrieval","new_object","130","H45.jpg",".",".","37","1","693"
"8","8","retrieval","old_object","131","E43.jpg",".","1","36","1","832"
"8","8","retrieval","old_object","133","E11.jpg",".","1","37","0","757"
"8","8","retrieval","new_object","134","G54.jpg",".",".","36","0","787"
"8","8","retrieval","new_object","135","H77.jpg",".",".","37","1","754"
"8","8","retrieval","old_object","136","F24.jpg",".","3","36","1","970"
"8","8","retrieval","new_object","137","H0.jpg",".",".","37","1","903"
"8","8","retrieval","old_object","138","F78.jpg",".","3","36","1","787"
"8","8","retrieval","old_object","139","E23.jpg",".","1","37","0","678"
"8","8","retrieval","new_object","140","H10.jpg",".",".","37","1","644"
"8","8","retrieval","new_object","141","H5.jpg",".",".","37","1","584"
"8","8","retrieval","old_object","142","F65.jpg",".","3","36","1","676"
"8","8","retrieval","new_object","143","H29.jpg",".",".","37","1","805"
"8","8","retrieval","new_object","144","H52.jpg",".",".","36","0","1363"
"8","8","retrieval","new_object","145","G35.jpg",".",".","37","1","1016"
"8","8","retrieval","old_object","146","F26.jpg",".","3","37","0","621"
"8","8","retrieval","new_object","147","G16.jpg",".",".","36","0","1324"
"8","8","retrieval","new_object","148","H64.jpg",".",".","37","1","602"
"8","8","retrieval","new_object","149","H25.jpg",".",".","36","0","829"
"8","8","retrieval","old_object","150","E59.jpg",".","1","37","0","1090"
"8","8","retrieval","new_object","151","H44.jpg",".",".","37","1","1368"
"8","8","retrieval","old_object","152","F58.jpg",".","3","37","0","663"
"8","8","retrieval","new_object","153","G73.jpg",".",".","37","1","803"
"8","8","retrieval","old_object","154","E13.jpg",".","1","36","1","592"
"8","8","retrieval","old_object","155","F7.jpg",".","3","36","1","969"
"8","8","retrieval","old_object","156","F9.jpg",".","3","0","0","2000"
"8","8","retrieval","new_object","157","G41.jpg",".",".","36","0","588"
"8","8","retrieval","new_object","158","H6.jpg",".",".","37","1","712"
"8","8","retrieval","new_object","159","H35.jpg",".",".","37","1","803"
"8","8","retrieval","new_object","160","H34.jpg",".",".","37","1","838"
"8","8","retrieval","old_object","161","E74.jpg",".","1","37","0","986"
"8","8","retrieval","old_object","162","F73.jpg",".","3","36","1","850"
"8","8","retrieval","old_object","163","F39.jpg",".","3","36","1","747"
"8","8","retrieval","new_object","164","H28.jpg",".",".","37","1","751"
"8","8","retrieval","old_object","165","F3.jpg",".","3","36","1","1062"
"8","8","retrieval","new_object","166","H16.jpg",".",".","36","0","1934"
"8","8","retrieval","new_object","167","G57.jpg",".",".","36","0","1149"
"8","8","retrieval","new_object","168","G3.jpg",".",".","37","1","645"
"8","8","retrieval","old_object","169","F28.jpg",".","3","0","0","2000"
"8","8","retrieval","new_object","170","H2.jpg",".",".","36","0","1252"
"8","8","retrieval","old_object","171","F30.jpg",".","3","36","1","897"
"8","8","retrieval","new_object","172","G26.jpg",".",".","36","0","892"
"8","8","retrieval","new_object","173","G56.jpg",".",".","37","1","784"
"8","8","retrieval","new_object","174","G78.jpg",".",".","37","1","864"
"8","8","retrieval","old_object","175","E10.jpg",".","1","36","1","1865"
"8","8","retrieval","new_object","176","H48.jpg",".",".","0","0","2000"
"8","8","retrieval","old_object","177","E78.jpg",".","1","0","0","2000"
"8","8","retrieval","new_object","178","H75.jpg",".",".","37","1","1516"
"8","8","retrieval","old_object","179","E25.jpg",".","1","36","1","988"
"8","8","retrieval","old_object","180","E19.jpg",".","1","37","0","1259"
"8","8","retrieval","old_object","181","F53.jpg",".","3","37","0","617"
"8","8","retrieval","new_object","182","H24.jpg",".",".","37","1","1736"
"8","8","retrieval","new_object","183","H43.jpg",".",".","36","0","967"
"8","8","retrieval","old_object","184","F61.jpg",".","3","36","1","1584"
"8","8","retrieval","old_object","185","F41.jpg",".","3","36","1","1057"
"8","8","retrieval","old_object","186","E57.jpg",".","1","36","1","1452"
"8","8","retrieval","new_object","187","G17.jpg",".",".","37","1","1946"
"8","8","retrieval","new_object","188","H39.jpg",".",".","37","1","837"
"8","8","retrieval","old_object","189","F49.jpg",".","3","36","1","859"
"8","8","retrieval","new_object","190","H68.jpg",".",".","37","1","1365"
"8","8","retrieval","new_object","191","H70.jpg",".",".","37","1","667"
"8","8","retrieval","old_object","192","E65.jpg",".","1","37","0","756"
"8","8","retrieval","new_object","193","H20.jpg",".",".","37","1","909"
"8","8","retrieval","old_object","194","F52.jpg",".","3","37","0","587"
"8","8","retrieval","old_object","195","E68.jpg",".","1","0","0","2000"
"8","8","retrieval","old_object","196","F63.jpg",".","3","36","1","761"
"8","8","retrieval","new_object","197","H73.jpg",".",".","0","0","2000"
"8","8","retrieval","old_object","199","F1.jpg",".","3","0","0","2000"
"8","8","retrieval","old_object","200","F64.jpg",".","3","0","0","2000"
"8","8","retrieval","new_object","201","G23.jpg",".",".","0","0","2000"
"8","8","retrieval","new_object","202","G61.jpg",".",".","0","0","2000"
"8","8","retrieval","new_object","203","H41.jpg",".",".","0","0","2000"
"8","8","retrieval","new_object","204","H27.jpg",".",".","37","1","923"
"8","8","retrieval","old_object","205","F20.jpg",".","3","37","0","1088"
"8","8","retrieval","new_object","206","G11.jpg",".",".","37","1","652"
"8","8","retrieval","old_object","207","F22.jpg",".","3","36","1","1660"
"8","8","retrieval","new_object","208","H56.jpg",".",".","37","1","1234"
"8","8","retrieval","new_object","209","G25.jpg",".",".","37","1","627"
"8","8","retrieval","old_object","210","E17.jpg",".","1","37","0","1090"
"8","8","retrieval","new_object","211","G24.jpg",".",".","37","1","902"
"8","8","retrieval","new_object","212","G64.jpg",".",".","37","1","963"
"8","8","retrieval","new_object","213","H23.jpg",".",".","37","1","791"
"8","8","retrieval","new_object","214","H59.jpg",".",".","37","1","1152"
"8","8","retrieval","new_object","215","G12.jpg",".",".","36","0","952"
"8","8","retrieval","new_object","216","G1.jpg",".",".","37","1","901"
"8","8","retrieval","new_object","217","G15.jpg",".",".","37","1","699"
"8","8","retrieval","old_object","218","F37.jpg",".","3","36","1","786"
"8","8","retrieval","new_object","219","G36.jpg",".",".","37","1","953"
"8","8","retrieval","new_object","220","G6.jpg",".",".","36","0","991"
"8","8","retrieval","old_object","221","E73.jpg",".","1","36","1","1458"
"8","8","retrieval","new_object","222","H51.jpg",".",".","37","1","908"
"8","8","retrieval","old_object","223","E66.jpg",".","1","36","1","688"
"8","8","retrieval","old_object","224","E0.jpg",".","1","36","1","902"
"8","8","retrieval","old_object","225","F59.jpg",".","3","36","1","754"
"8","8","retrieval","old_object","226","F46.jpg",".","3","36","1","680"
"8","8","retrieval","old_object","227","E52.jpg",".","1","36","1","485"
"8","8","retrieval","new_object","228","G62.jpg",".",".","36","0","881"
"8","8","retrieval","old_object","229","E26.jpg",".","1","36","1","739"
"8","8","retrieval","new_object","230","H13.jpg",".",".","37","1","868"
"8","8","retrieval","new_object","231","H53.jpg",".",".","37","1","932"
"8","8","retrieval","old_object","232","F51.jpg",".","3","36","1","654"
"8","8","retrieval","old_object","233","E51.jpg",".","1","36","1","995"
"8","8","retrieval","old_object","234","F23.jpg",".","3","36","1","783"
"8","8","retrieval","old_object","235","F70.jpg",".","3","36","1","557"
"8","8","retrieval","old_object","236","F18.jpg",".","3","36","1","1645"
"8","8","retrieval","new_object","237","G75.jpg",".",".","0","0","2000"
"8","8","retrieval","new_object","238","G37.jpg",".",".","37","1","1548"
"8","8","retrieval","old_object","239","E54.jpg",".","1","36","1","1005"
"8","8","retrieval","old_object","240","E16.jpg",".","1","0","0","2000"
"8","8","retrieval","old_object","241","F42.jpg",".","3","36","1","924"
"8","8","retrieval","new_object","242","G28.jpg",".",".","37","1","1438"
"8","8","retrieval","old_object","243","E33.jpg",".","1","36","1","1418"
"8","8","retrieval","old_object","244","E20.jpg",".","1","0","0","2000"
"8","8","retrieval","old_object","245","E69.jpg",".","1","0","0","2000"
"8","8","retrieval","new_object","246","G69.jpg",".",".","37","1","902"
"8","8","retrieval","old_object","247","E24.jpg",".","1","37","0","1204"
"8","8","retrieval","new_object","248","H18.jpg",".",".","37","1","735"
"8","8","retrieval","new_object","249","G40.jpg",".",".","37","1","855"
"8","8","retrieval","old_object","250","E72.jpg",".","1","36","1","758"
"8","8","retrieval","new_object","251","H79.jpg",".",".","37","1","1186"
"8","8","retrieval","new_object","252","H7.jpg",".",".","37","1","730"
"8","8","retrieval","old_object","253","E41.jpg",".","1","36","1","1865"
"8","8","retrieval","old_object","254","F77.jpg",".","3","36","1","923"
"8","8","retrieval","new_object","255","G2.jpg",".",".","37","1","950"
"8","8","retrieval","old_object","256","E76.jpg",".","1","37","0","703"
"8","8","retrieval","old_object","257","F69.jpg",".","3","36","1","616"
"8","8","retrieval","new_object","258","G55.jpg",".",".","37","1","1130"
"8","8","retrieval","old_object","259","F44.jpg",".","3","36","1","865"
"8","8","retrieval","new_object","260","G42.jpg",".",".","36","0","704"
"8","8","retrieval","old_object","261","F40.jpg",".","3","37","0","623"
"8","8","retrieval","old_object","262","E35.jpg",".","1","37","0","853"
"8","8","retrieval","old_object","263","E55.jpg",".","1","36","1","990"
"8","8","retrieval","old_object","265","E45.jpg",".","1","37","0","1141"
"8","8","retrieval","old_object","266","F38.jpg",".","3","36","1","948"
"8","8","retrieval","new_object","267","G52.jpg",".",".","0","0","2000"
"8","8","retrieval","old_object","268","F12.jpg",".","3","0","0","2000"
"8","8","retrieval","old_object","269","E7.jpg",".","1","36","1","1061"
"8","8","retrieval","old_object","270","E46.jpg",".","1","36","1","908"
"8","8","retrieval","old_object","271","F68.jpg",".","3","36","1","1028"
"8","8","retrieval","new_object","272","G34.jpg",".",".","37","1","748"
"8","8","retrieval","old_object","273","F48.jpg",".","3","36","1","821"
"8","8","retrieval","old_object","274","F50.jpg",".","3","36","1","1782"
"8","8","retrieval","old_object","275","F13.jpg",".","3","36","1","768"
"8","8","retrieval","old_object","276","E3.jpg",".","1","36","1","777"
"8","8","retrieval","old_object","277","E40.jpg",".","1","37","0","1143"
"8","8","retrieval","new_object","278","H63.jpg",".",".","36","0","1375"
"8","8","retrieval","old_object","279","F55.jpg",".","3","36","1","1206"
"8","8","retrieval","new_object","280","H65.jpg",".",".","37","1","1088"
"8","8","retrieval","new_object","281","H8.jpg",".",".","36","0","922"
"8","8","retrieval","new_object","282","H38.jpg",".",".","37","1","1072"
"8","8","retrieval","old_object","283","F60.jpg",".","3","36","1","723"
"8","8","retrieval","old_object","284","E1.jpg",".","1","36","1","1087"
"8","8","retrieval","old_object","285","F67.jpg",".","3","36","1","800"
"8","8","retrieval","old_object","286","E39.jpg",".","1","37","0","1019"
"8","8","retrieval","new_object","287","H22.jpg",".",".","0","0","2000"
"8","8","retrieval","old_object","288","F11.jpg",".","3","36","1","946"
"8","8","retrieval","old_object","289","E30.jpg",".","1","36","1","1697"
"8","8","retrieval","old_object","290","F14.jpg",".","3","0","0","2000"
"8","8","retrieval","old_object","291","F27.jpg",".","3","36","1","1983"
"8","8","retrieval","old_object","292","F17.jpg",".","3","36","1","1920"
"8","8","retrieval","new_object","293","H3.jpg",".",".","36","0","928"
"8","8","retrieval","new_object","294","G60.jpg",".",".","37","1","903"
"8","8","retrieval","old_object","295","E56.jpg",".","1","37","0","1048"
"8","8","retrieval","old_object","296","E31.jpg",".","1","37","0","872"
"8","8","retrieval","new_object","297","G21.jpg",".",".","37","1","1378"
"8","8","retrieval","new_object","298","G51.jpg",".",".","36","0","1721"
"8","8","retrieval","new_object","299","G0.jpg",".",".","37","1","1456"
"8","8","retrieval","new_object","300","G43.jpg",".",".","36","0","723"
"8","8","retrieval","new_object","301","H21.jpg",".",".","37","1","768"
"8","8","retrieval","old_object","302","F16.jpg",".","3","36","1","749"
"8","8","retrieval","old_object","303","F45.jpg",".","3","36","1","1207"
"8","8","retrieval","old_object","304","E29.jpg",".","1","36","1","873"
"8","8","retrieval","new_object","305","G13.jpg",".",".","37","1","935"
"8","8","retrieval","old_object","306","E48.jpg",".","1","0","0","2000"
"8","8","retrieval","old_object","307","F19.jpg",".","3","0","0","2000"
"8","8","retrieval","old_object","308","F0.jpg",".","3","36","1","907"
"8","8","retrieval","old_object","309","E6.jpg",".","1","36","1","567"
"8","8","retrieval","new_object","310","H69.jpg",".",".","36","0","1064"
"8","8","retrieval","old_object","311","E37.jpg",".","1","0","0","2000"
"8","8","retrieval","new_object","312","H54.jpg",".",".","37","1","1537"
"8","8","retrieval","new_object","313","H19.jpg",".",".","37","1","784"
"8","8","retrieval","old_object","314","E38.jpg",".","1","36","1","781"
"8","8","retrieval","new_object","315","G50.jpg",".",".","37","1","835"
"8","8","retrieval","old_object","316","E27.jpg",".","1","36","1","919"
"8","8","retrieval","old_object","317","E49.jpg",".","1","36","1","683"
"8","8","retrieval","old_object","318","F32.jpg",".","3","0","0","2000"
"8","8","retrieval","new_object","319","G9.jpg",".",".","37","1","1582"
"8","8","retrieval","new_object","320","H72.jpg",".",".","0","0","2000"
"8","8","retrieval","new_object","321","G79.jpg",".",".","37","1","1965"
"8","8","retrieval","old_object","322","F25.jpg",".","3","36","1","1450"
"8","8","retrieval","new_object","323","G32.jpg",".",".","37","1","797"
"8","8","retrieval","new_object","324","G30.jpg",".",".","37","1","816"
"8","8","retrieval","old_object","325","E47.jpg",".","","36","1","746"
"8","8","demographics_block","gender","1",".",".",".","female","1","22329"
"8","8","demographics_block","age","1",".",".",".","30","1","22329"
"8","8","demographics_block","education","1",".",".",".","degree","1","22329"
"8","8","demographics_block","left_right_handed","2",".",".",".","Right","1","8153"
"8","8","demographics_block","raceoption1","2",".",".",".","","1","8153"
"8","8","demographics_block","raceoption2","2",".",".",".","","1","8153"
"8","8","demographics_block","raceoption3","2",".",".",".","","1","8153"
"8","8","demographics_block","raceoption4","2",".",".",".","3","1","8153"
"8","8","demographics_block","raceoption5","2",".",".",".","","1","8153"
"8","8","demographics_block","raceoption6","2",".",".",".","","1","8153"
"8","8","demographics_block","raceoption7","2",".",".",".","","1","8153"
"8","8","demographics_block","raceoption8","2",".",".",".","","1","8153"
"8","8","demographics_block","raceoption9","2",".",".",".","","1","8153"
"8","8","demographics_block","raceother","2",".",".",".","","1","8153"
"8","8","demographics_block","raceother","2",".",".",".","","1","8153"
"8","8","demographics_block","english_language","2",".",".",".","Yes","1","8153"
"8","8","demographics_block","other","2",".",".",".","","1","8153"
"8","8","demographics_block","eyesight","3",".",".",".","No","1","5636"
"8","8","demographics_block","colorblind","3",".",".",".","No","1","5636"
"16","16","encoding","encoding","1","F27.jpg","3",".","0","0","1000"
"16","16","encoding","encoding","2","E16.jpg","1",".","0","0","1000"
"16","16","encoding","encoding","3","E54.jpg","1",".","0","0","1000"
"16","16","encoding","encoding","4","F51.jpg","3",".","0","0","1000"
"16","16","encoding","encoding","5","F54.jpg","3",".","0","0","1000"
"16","16","encoding","encoding","6","F23.jpg","3",".","37","0","920"
"16","16","encoding","encoding","7","E26.jpg","1",".","0","0","1000"
"16","16","encoding","encoding","8","F6.jpg","3",".","0","0","1000"
"16","16","encoding","encoding","9","F8.jpg","3",".","0","0","1000"
"16","16","encoding","encoding","10","E12.jpg","1",".","0","0","1000"
"16","16","encoding","encoding","11","F79.jpg","3",".","0","0","1000"
"16","16","encoding","encoding","12","E22.jpg","1",".","0","0","1000"
"16","16","encoding","encoding","13","F67.jpg","3",".","37","0","962"
"16","16","encoding","encoding","14","F68.jpg","3",".","37","0","946"
"16","16","encoding","encoding","15","F29.jpg","3",".","0","0","1000"
"16","16","encoding","encoding","16","F0.jpg","3",".","37","0","975"
"16","16","encoding","encoding","17","E50.jpg","1",".","0","0","1000"
"16","16","encoding","encoding","18","F69.jpg","3",".","0","0","1000"
"16","16","encoding","encoding","19","F8.jpg","3",".","37","0","951"
"16","16","encoding","encoding","20","F39.jpg","3",".","36","0","942"
"16","16","encoding","encoding","21","F25.jpg","3",".","37","0","952"
"16","16","encoding","encoding","22","F9.jpg","3",".","36","0","913"
"16","16","encoding","encoding","23","E14.jpg","1",".","0","0","1000"
"16","16","encoding","encoding","24","F43.jpg","3",".","37","0","959"
"16","16","encoding","encoding","25","F45.jpg","3",".","37","0","845"
"16","16","encoding","encoding","26","E56.jpg","1",".","37","0","878"
"16","16","encoding","encoding","27","E53.jpg","1",".","36","0","824"
"16","16","encoding","encoding","28","F52.jpg","3",".","37","0","874"
"16","16","encoding","encoding","29","F14.jpg","3",".","37","0","785"
"16","16","encoding","encoding","30","F78.jpg","3",".","37","0","764"
"16","16","encoding","encoding","31","F50.jpg","3",".","37","0","868"
"16","16","encoding","encoding","32","F75.jpg","3",".","37","0","838"
"16","16","encoding","encoding","33","F28.jpg","3",".","0","0","1000"
"16","16","encoding","encoding","34","E51.jpg","1",".","37","0","978"
"16","16","encoding","encoding","35","F55.jpg","3",".","37","0","943"
"16","16","encoding","encoding","36","F65.jpg","3",".","37","0","890"
"16","16","encoding","encoding","37","E17.jpg","1",".","37","0","948"
"16","16","encoding","encoding","38","E49.jpg","1",".","37","0","958"
"16","16","encoding","encoding","39","F70.jpg","3",".","36","0","879"
"16","16","encoding","encoding","40","F54.jpg","3",".","37","0","936"
"16","16","encoding","encoding","41","F39.jpg","3",".","36","0","885"
"16","16","encoding","encoding","42","F73.jpg","3",".","37","0","853"
"16","16","encoding","encoding","43","F6.jpg","3",".","37","0","870"
"16","16","encoding","encoding","44","F35.jpg","3",".","37","0","823"
"16","16","encoding","encoding","45","F54.jpg","3",".","36","0","830"
"16","16","encoding","encoding","46","E5.jpg","1",".","36","0","916"
"16","16","encoding","encoding","47","E60.jpg","1",".","37","0","791"
"16","16","encoding","encoding","48","F5.jpg","3",".","36","0","837"
"16","16","encoding","encoding","49","F14.jpg","3",".","37","0","881"
"16","16","encoding","encoding","50","F40.jpg","3",".","0","0","1000"
"16","16","encoding","encoding","51","F34.jpg","3",".","37","0","791"
"16","16","encoding","encoding","52","F33.jpg","3",".","37","0","819"
"16","16","encoding","encoding","53","F12.jpg","3",".","37","0","788"
"16","16","encoding","encoding","54","F41.jpg","3",".","0","0","1000"
"16","16","encoding","encoding","55","F3.jpg","3",".","37","0","862"
"16","16","encoding","encoding","56","E47.jpg","1",".","37","0","901"
"16","16","encoding","encoding","57","F5.jpg","3",".","36","0","826"
"16","16","encoding","encoding","58","E73.jpg","1",".","37","0","854"
"16","16","encoding","encoding","59","F79.jpg","3",".","0","0","1000"
"16","16","encoding","encoding","60","F65.jpg","3",".","37","0","858"
"16","16","encoding","encoding","61","F37.jpg","3",".","37","0","849"
"16","16","encoding","encoding","62","F41.jpg","3",".","0","0","1000"
"16","16","encoding","encoding","63","F0.jpg","3",".","37","0","899"
"16","16","encoding","encoding","64","F18.jpg","3",".","37","0","820"
"16","16","encoding","encoding","65","E59.jpg","1",".","37","0","755"
"16","16","encoding","encoding","67","F15.jpg","3",".","37","0","883"
"16","16","encoding","encoding","68","F16.jpg","3",".","36","0","870"
"16","16","encoding","encoding","69","F37.jpg","3",".","37","0","825"
"16","16","encoding","encoding","70","F37.jpg","3",".","37","0","771"
"16","16","encoding","encoding","71","E23.jpg","1",".","37","0","783"
"16","16","encoding","encoding","72","E29.jpg","1",".","37","0","791"
"16","16","encoding","encoding","73","E31.jpg","1",".","0","0","1000"
"16","16","encoding","encoding","74","F49.jpg","3",".","37","0","882"
"16","16","encoding","encoding","75","F46.jpg","3",".","37","0","831"
"16","16","encoding","encoding","76","E11.jpg","1",".","0","0","1000"
"16","16","encoding","encoding","77","F18.jpg","3",".","37","0","839"
"16","16","encoding","encoding","78","F4.jpg","3",".","37","0","793"
"16","16","encoding","encoding","79","F74.jpg","3",".","37","0","783"
"16","16","encoding","encoding","80","F29.jpg","3",".","37","0","819"
"16","16","encoding","encoding","81","F59.jpg","3",".","37","0","810"
"16","16","encoding","encoding","82","F22.jpg","3",".","36","0","813"
"16","16","encoding","encoding","83","E35.jpg","1",".","37","0","813"
"16","16","encoding","encoding","84","F50.jpg","3",".","37","0","761"
"16","16","encoding","encoding","85","F72.jpg","3",".","37","0","781"
"16","16","encoding","encoding","86","F64.jpg","3",".","37","0","800"
"16","16","encoding","encoding","87","F35.jpg","3",".","37","0","793"
"16","16","encoding","encoding","88","E43.jpg","1",".","37","0","771"
"16","16","encoding","encoding","89","F40.jpg","3",".","37","0","739"
"16","16","encoding","encoding","90","F77.jpg","3",".","37","0","777"
"16","16","encoding","encoding","91","E44.jpg","1",".","37","0","841"
"16","16","encoding","encoding","92","F31.jpg","3",".","37","0","844"
"16","16","encoding","encoding","93","E6.jpg","1",".","37","0","866"
"16","16","encoding","encoding","94","F69.jpg","3",".","36","0","968"
"16","16","encoding","encoding","95","F66.jpg","3",".","37","0","922"
"16","16","encoding","encoding","96","E77.jpg","1",".","37","0","910"
"16","16","encoding","encoding","97","F38.jpg","3",".","37","0","843"
"16","16","encoding","encoding","98","E72.jpg","1",".","36","0","921"
"16","16","encoding","encoding","99","E69.jpg","1",".","36","0","935"
"16","16","encoding","encoding","100","E30.jpg","1",".","37","0","868"
"16","16","encoding","encoding","101","F76.jpg","3",".","37","0","836"
"16","16","encoding","encoding","102","F60.jpg","3",".","37","0","820"
"16","16","encoding","encoding","103","F7.jpg","3",".","0","0","1000"
"16","16","encoding","encoding","104","E58.jpg","1",".","37","0","876"
"16","16","encoding","encoding","105","F2.jpg","3",".","37","0","809"
"16","16","encoding","encoding","106","F55.jpg","3",".","37","0","765"
"16","16","encoding","encoding","107","F35.jpg","3",".","37","0","716"
"16","16","encoding","encoding","108","F71.jpg","3",".","37","0","711"
"16","16","encoding","encoding","109","E4.jpg","1",".","37","0","817"
"16","16","encoding","encoding","110","E48.jpg","1",".","37","0","856"
"16","16","encoding","encoding","111","F33.jpg","3",".","37","0","787"
"16","16","encoding","encoding","112","F36.jpg","3",".","37","0","771"
"16","16","encoding","encoding","113","F36.jpg","3",".","37","0","775"
"16","16","encoding","encoding","114","F64.jpg","3",".","37","0","717"
"16","16","encoding","encoding","115","F68.jpg","3",".","37","0","738"
"16","16","encoding","encoding","116","F29.jpg","3",".","37","0","813"
"16","16","encoding","encoding","117","E66.jpg","1",".","36","0","858"
"16","16","encoding","encoding","118","E57.jpg","1",".","37","0","843"
"16","16","encoding","encoding","119","E33.jpg","1",".","37","0","747"
"16","16","encoding","encoding","120","F24.jpg","3",".","37","0","736"
"16","16","encoding","encoding","121","F50.jpg","3",".","37","0","767"
"16","16","encoding","encoding","122","E38.jpg","1",".","0","0","1000"
"16","16","encoding","encoding","123","E52.jpg","1",".","36","0","903"
"16","16","encoding","encoding","124","F31.jpg","3",".","37","0","802"
"16","16","encoding","encoding","125","F4.jpg","3",".","37","0","750"
"16","16","encoding","encoding","126","E34.jpg","1",".","37","0","823"
"16","16","encoding","encoding","127","F48.jpg","3",".","37","0","760"
"16","16","encoding","encoding","128","F76.jpg","3",".","37","0","745"
"16","16","encoding","encoding","129","F1.jpg","3",".","37","0","781"
"16","16","encoding","encoding","130","F47.jpg","3",".","37","0","726"
"16","16","encoding","encoding","131","E9.jpg","1",".","37","0","742"
"16","16","encoding","encoding","133","F75.jpg","3",".","37","0","758"
"16","16","encoding","encoding","134","E39.jpg","1",".","37","0","754"
"16","16","encoding","encoding","135","F62.jpg","3",".","37","0","708"
"16","16","encoding","encoding","136","F77.jpg","3",".","36","0","865"
"16","16","encoding","encoding","137","E55.jpg","1",".","37","0","849"
"16","16","encoding","encoding","138","F30.jpg","3",".","36","0","837"
"16","16","encoding","encoding","139","F56.jpg","3",".","37","0","716"
"16","16","encoding","encoding","140","F57.jpg","3",".","37","0","791"
"16","16","encoding","encoding","141","E68.jpg","1",".","37","0","827"
"16","16","encoding","encoding","142","F66.jpg","3",".","37","0","751"
"16","16","encoding","encoding","143","F53.jpg","3",".","37","0","748"
"16","16","encoding","encoding","144","F58.jpg","3",".","0","0","1000"
"16","16","encoding","encoding","145","F23.jpg","3",".","37","0","884"
"16","16","encoding","encoding","146","F21.jpg","3",".","37","0","846"
"16","16","encoding","encoding","147","F57.jpg","3",".","37","0","763"
"16","16","encoding","encoding","148","F39.jpg","3",".","36","0","831"
"16","16","encoding","encoding","149","F22.jpg","3",".","0","0","1000"
"16","16","encoding","encoding","150","F49.jpg","3",".","37","0","938"
"16","16","encoding","encoding","151","E20.jpg","1",".","0","0","1000"
"16","16","encoding","encoding","152","F56.jpg","3",".","0","0","1000"
"16","16","encoding","encoding","153","F70.jpg","3",".","36","0","946"
"16","16","encoding","encoding","154","F60.jpg","3",".","37","0","792"
"16","16","encoding","encoding","155","F63.jpg","3",".","37","0","768"
"16","16","encoding","encoding","156","F57.jpg","3",".","37","0","715"
"16","16","encoding","encoding","157","F63.jpg","3",".","37","0","755"
"16","16","encoding","encoding","158","F27.jpg","3",".","37","0","807"
"16","16","encoding","encoding","159","F58.jpg","3",".","37","0","918"
"16","16","encoding","encoding","160","F55.jpg","3",".","37","0","835"
"16","16","encoding","encoding","161","F47.jpg","3",".","37","0","792"
"16","16","encoding","encoding","162","F13.jpg","3",".","37","0","761"
"16","16","encoding","encoding","163","F1.jpg","3",".","37","0","727"
"16","16","encoding","encoding","164","E28.jpg","1",".","37","0","701"
"16","16","encoding","encoding","165","F10.jpg","3",".","37","0","758"
"16","16","encoding","encoding","166","F27.jpg","3",".","37","0","766"
"16","16","encoding","encoding","167","F36.jpg","3",".","37","0","715"
"16","16","encoding","encoding","168","F62.jpg","3",".","37","0","733"
"16","16","encoding","encoding","169","F59.jpg","3",".","37","0","735"
"16","16","encoding","encoding","170","E74.jpg","1",".","37","0","754"
"16","16","encoding","encoding","171","F46.jpg","3",".","37","0","930"
"16","16","encoding","encoding","172","F52.jpg","3",".","37","0","833"
"16","16","encoding","encoding","173","F59.jpg","3",".","37","0","851"
"16","16","encoding","encoding","174","F71.jpg","3",".","37","0","766"
"16","16","encoding","encoding","175","E10.jpg","1",".","37","0","817"
"16","16","encoding","encoding","176","F1.jpg","3",".","37","0","735"
"16","16","encoding","encoding","177","F74.jpg","3",".","37","0","740"
"16","16","encoding","encoding","178","F15.jpg","3",".","37","0","666"
"16","16","encoding","encoding","179","F68.jpg","3",".","37","0","679"
"16","16","encoding","encoding","180","F78.jpg","3",".","37","0","743"
"16","16","encoding","encoding","181","F24.jpg","3",".","37","0","692"
"16","16","encoding","encoding","182","F25.jpg","3",".","37","0","727"
"16","16","encoding","encoding","183","F56.jpg","3",".","37","0","611"
"16","16","encoding","encoding","184","F69.jpg","3",".","37","0","985"
"16","16","encoding","encoding","185","E78.jpg","1",".","37","0","812"
"16","16","encoding","encoding","186","E25.jpg","1",".","37","0","807"
"16","16","encoding","encoding","187","F64.jpg","3",".","37","0","775"
"16","16","encoding","encoding","188","E41.jpg","1",".","37","0","850"
"16","16","encoding","encoding","189","E42.jpg","1",".","37","0","785"
"16","16","encoding","encoding","190","F11.jpg","3",".","37","0","788"
"16","16","encoding","encoding","191","F66.jpg","3",".","37","0","712"
"16","16","encoding","encoding","192","F32.jpg","3",".","37","0","749"
"16","16","encoding","encoding","193","E46.jpg","1",".","37","0","706"
"16","16","encoding","encoding","194","E1.jpg","1",".","36","0","947"
"16","16","encoding","encoding","195","E21.jpg","1",".","37","0","943"
"16","16","encoding","encoding","196","F53.jpg","3",".","37","0","860"
"16","16","encoding","encoding","197","F62.jpg","3",".","0","0","1000"
"16","16","encoding","encoding","199","E15.jpg","1",".","0","0","1000"
"16","16","encoding","encoding","200","E13.jpg","1",".","0","0","1000"
"16","16","encoding","encoding","201","F73.jpg","3",".","37","0","911"
"16","16","encoding","encoding","202","F33.jpg","3",".","37","0","732"
"16","16","encoding","encoding","203","F17.jpg","3",".","37","0","739"
"16","16","encoding","encoding","204","E65.jpg","1",".","0","0","1000"
"16","16","encoding","encoding","205","F13.jpg","3",".","37","0","852"
"16","16","encoding","encoding","206","F23.jpg","3",".","37","0","691"
"16","16","encoding","encoding","207","F10.jpg","3",".","37","0","842"
"16","16","encoding","encoding","208","F48.jpg","3",".","37","0","698"
"16","16","encoding","encoding","209","E64.jpg","1",".","37","0","671"
"16","16","encoding","encoding","210","F38.jpg","3",".","37","0","716"
"16","16","encoding","encoding","211","F15.jpg","3",".","37","0","816"
"16","16","encoding","encoding","212","F30.jpg","3",".","36","0","855"
"16","16","encoding","encoding","213","F5.jpg","3",".","36","0","929"
"16","16","encoding","encoding","214","E37.jpg","1",".","37","0","905"
"16","16","encoding","encoding","215","F26.jpg","3",".","37","0","815"
"16","16","encoding","encoding","216","F22.jpg","3",".","36","0","777"
"16","16","encoding","encoding","217","F4.jpg","3",".","37","0","780"
"16","16","encoding","encoding","218","F17.jpg","3",".","37","0","754"
"16","16","encoding","encoding","219","F48.jpg","3",".","37","0","731"
"16","16","encoding","encoding","220","F6.jpg","3",".","37","0","705"
"16","16","encoding","encoding","221","F21.jpg","3",".","37","0","680"
"16","16","encoding","encoding","222","F72.jpg","3",".","37","0","695"
"16","16","encoding","encoding","223","E75.jpg","1",".","36","0","873"
"16","16","encoding","encoding","224","F73.jpg","3",".","37","0","724"
"16","16","encoding","encoding","225","E61.jpg","1",".","0","0","1000"
"16","16","encoding","encoding","226","E24.jpg","1",".","0","0","1000"
"16","16","encoding","encoding","227","F72.jpg","3",".","37","0","860"
"16","16","encoding","encoding","228","F78.jpg","3",".","37","0","745"
"16","16","encoding","encoding","229","F24.jpg","3",".","37","0","781"
"16","16","encoding","encoding","230","F79.jpg","3",".","37","0","915"
"16","16","encoding","encoding","231","E2.jpg","1",".","0","0","1000"
"16","16","encoding","encoding","232","F51.jpg","3",".","36","0","884"
"16","16","encoding","encoding","233","E0.jpg","1",".","37","0","822"
"16","16","encoding","encoding","234","F70.jpg","3",".","36","0","866"
"16","16","encoding","encoding","235","F46.jpg","3",".","36","0","965"
"16","16","encoding","encoding","236","E79.jpg","1",".","36","0","917"
"16","16","encoding","encoding","237","F19.jpg","3",".","36","0","934"
"16","16","encoding","encoding","238","F47.jpg","3",".","37","0","818"
"16","16","encoding","encoding","239","F8.jpg","3",".","37","0","696"
"16","16","encoding","encoding","240","E70.jpg","1",".","36","0","815"
"16","16","encoding","encoding","241","F61.jpg","3",".","0","0","1000"
"16","16","encoding","encoding","242","F76.jpg","3",".","37","0","743"
"16","16","encoding","encoding","243","F3.jpg","3",".","37","0","733"
"16","16","encoding","encoding","244","F58.jpg","3",".","37","0","807"
"16","16","encoding","encoding","245","F20.jpg","3",".","37","0","858"
"16","16","encoding","encoding","246","F32.jpg","3",".","37","0","747"
"16","16","encoding","encoding","247","E18.jpg","1",".","37","0","707"
"16","16","encoding","encoding","248","F20.jpg","3",".","37","0","791"
"16","16","encoding","encoding","249","F61.jpg","3",".","37","0","791"
"16","16","encoding","encoding","250","E62.jpg","1",".","37","0","694"
"16","16","encoding","encoding","251","F44.jpg","3",".","37","0","922"
"16","16","encoding","encoding","252","F19.jpg","3",".","36","0","886"
"16","16","encoding","encoding","253","E8.jpg","1",".","0","0","1000"
"16","16","encoding","encoding","254","F67.jpg","3",".","37","0","844"
"16","16","encoding","encoding","255","F2.jpg","3",".","37","0","840"
"16","16","encoding","encoding","256","F42.jpg","3",".","37","0","763"
"16","16","encoding","encoding","257","F31.jpg","3",".","37","0","716"
"16","16","encoding","encoding","258","F43.jpg","3",".","37","0","740"
"16","16","encoding","encoding","259","F12.jpg","3",".","37","0","723"
"16","16","encoding","encoding","260","E36.jpg","1",".","37","0","701"
"16","16","encoding","encoding","261","F45.jpg","3",".","37","0","684"
"16","16","encoding","encoding","262","F7.jpg","3",".","37","0","809"
"16","16","encoding","encoding","263","F74.jpg","3",".","37","0","734"
"16","16","encoding","encoding","265","E19.jpg","1",".","37","0","819"
"16","16","encoding","encoding","266","F7.jpg","3",".","37","0","828"
"16","16","encoding","encoding","267","F26.jpg","3",".","37","0","747"
"16","16","encoding","encoding","268","E67.jpg","1",".","37","0","679"
"16","16","encoding","encoding","269","F67.jpg","3",".","37","0","700"
"16","16","encoding","encoding","270","F44.jpg","3",".","37","0","624"
"16","16","encoding","encoding","271","F28.jpg","3",".","37","0","681"
"16","16","encoding","encoding","272","F52.jpg","3",".","37","0","739"
"16","16","encoding","encoding","273","F53.jpg","3",".","37","0","671"
"16","16","encoding","encoding","274","F14.jpg","3",".","37","0","728"
"16","16","encoding","encoding","275","F28.jpg","3",".","37","0","655"
"16","16","encoding","encoding","276","E76.jpg","1",".","37","0","733"
"16","16","encoding","encoding","277","E7.jpg","1",".","0","0","1000"
"16","16","encoding","encoding","278","F49.jpg","3",".","37","0","778"
"16","16","encoding","encoding","279","F34.jpg","3",".","37","0","790"
"16","16","encoding","encoding","280","F30.jpg","3",".","36","0","744"
"16","16","encoding","encoding","281","F75.jpg","3",".","37","0","721"
"16","16","encoding","encoding","282","F45.jpg","3",".","37","0","710"
"16","16","encoding","encoding","283","F63.jpg","3",".","37","0","692"
"16","16","encoding","encoding","284","F18.jpg","3",".","37","0","731"
"16","16","encoding","encoding","285","F34.jpg","3",".","37","0","649"
"16","16","encoding","encoding","286","F21.jpg","3",".","37","0","777"
"16","16","encoding","encoding","287","F61.jpg","3",".","37","0","961"
"16","16","encoding","encoding","288","F42.jpg","3",".","37","0","745"
"16","16","encoding","encoding","289","F9.jpg","3",".","36","0","740"
"16","16","encoding","encoding","290","F25.jpg","3",".","37","0","749"
"16","16","encoding","encoding","291","F43.jpg","3",".","37","0","691"
"16","16","encoding","encoding","292","E27.jpg","1",".","37","0","694"
"16","16","encoding","encoding","293","F60.jpg","3",".","37","0","772"
"16","16","encoding","encoding","294","E63.jpg","1",".","0","0","1000"
"16","16","encoding","encoding","295","F77.jpg","3",".","37","0","834"
"16","16","encoding","encoding","296","F40.jpg","3",".","37","0","808"
"16","16","encoding","encoding","297","E45.jpg","1",".","37","0","747"
"16","16","encoding","encoding","298","F42.jpg","3",".","37","0","696"
"16","16","encoding","encoding","299","F26.jpg","3",".","37","0","748"
"16","16","encoding","encoding","300","F16.jpg","3",".","36","0","713"
"16","16","encoding","encoding","301","F11.jpg","3",".","37","0","689"
"16","16","encoding","encoding","302","F13.jpg","3",".","37","0","733"
"16","16","encoding","encoding","303","F38.jpg","3",".","37","0","699"
"16","16","encoding","encoding","304","E32.jpg","1",".","36","0","691"
"16","16","encoding","encoding","305","F12.jpg","3",".","37","0","683"
"16","16","encoding","encoding","306","F16.jpg","3",".","36","0","748"
"16","16","encoding","encoding","307","F10.jpg","3",".","37","0","716"
"16","16","encoding","encoding","308","F3.jpg","3",".","37","0","666"
"16","16","encoding","encoding","309","F32.jpg","3",".","37","0","705"
"16","16","encoding","encoding","310","F2.jpg","3",".","37","0","742"
"16","16","encoding","encoding","311","E40.jpg","1",".","37","0","725"
"16","16","encoding","encoding","312","E71.jpg","1",".","37","0","638"
"16","16","encoding","encoding","313","F11.jpg","3",".","37","0","682"
"16","16","encoding","encoding","314","F71.jpg","3",".","37","0","654"
"16","16","encoding","encoding","315","F9.jpg","3",".","36","0","749"
"16","16","encoding","encoding","316","F0.jpg","3",".","37","0","736"
"16","16","encoding","encoding","317","F44.jpg","3",".","37","0","910"
"16","16","encoding","encoding","318","F19.jpg","3",".","0","0","1000"
"16","16","encoding","encoding","319","F17.jpg","3",".","37","0","754"
"16","16","encoding","encoding","320","F20.jpg","3",".","37","0","776"
"16","16","encoding","encoding","321","F51.jpg","3",".","36","0","897"
"16","16","encoding","encoding","322","F65.jpg","3",".","37","0","741"
"16","16","encoding","encoding","323","E3.jpg","1",".","36","0","937"
"16","16","encoding","encoding","324","F41.jpg","3",".","37","0","944"
"16","16","encoding","encoding","325","F27.jpg","",".","37","0","731"
"16","16","retrieval","new_object","1","G41.jpg",".",".","36","0","1089"
"16","16","retrieval","old_object","2","E47.jpg",".","1","37","0","1450"
"16","16","retrieval","old_object","3","F72.jpg",".","3","37","0","1434"
"16","16","retrieval","old_object","4","E44.jpg",".","1","36","1","1138"
"16","16","retrieval","old_object","5","E79.jpg",".","1","36","1","1161"
"16","16","retrieval","old_object","6","E34.jpg",".","1","36","1","1150"
"16","16","retrieval","old_object","7","F15.jpg",".","3","36","1","1171"
"16","16","retrieval","old_object","8","E22.jpg",".","1","36","1","1169"
"16","16","retrieval","new_object","9","G72.jpg",".",".","37","1","1053"
"16","16","retrieval","new_object","10","G76.jpg",".",".","37","1","957"
"16","16","retrieval","old_object","11","E71.jpg",".","1","36","1","1038"
"16","16","retrieval","new_object","12","G17.jpg",".",".","37","1","1091"
"16","16","retrieval","new_object","13","H15.jpg",".",".","37","1","1075"
"16","16","retrieval","old_object","14","E60.jpg",".","1","36","1","1188"
"16","16","retrieval","old_object","15","E8.jpg",".","1","36","1","1087"
"16","16","retrieval","new_object","16","G65.jpg",".",".","37","1","1027"
"16","16","retrieval","new_object","17","G27.jpg",".",".","37","1","894"
"16","16","retrieval","new_object","18","H56.jpg",".",".","37","1","972"
"16","16","retrieval","new_object","19","G42.jpg",".",".","37","1","1049"
"16","16","retrieval","new_object","20","G19.jpg",".",".","37","1","1012"
"16","16","retrieval","old_object","21","F8.jpg",".","3","36","1","1036"
"16","16","retrieval","old_object","22","F74.jpg",".","3","36","1","944"
"16","16","retrieval","old_object","23","E77.jpg",".","1","37","0","1181"
"16","16","retrieval","old_object","24","F43.jpg",".","3","36","1","1110"
"16","16","retrieval","new_object","25","G61.jpg",".",".","37","1","988"
"16","16","retrieval","old_object","26","F29.jpg",".","3","36","1","1049"
"16","16","retrieval","new_object","27","H38.jpg",".",".","37","1","920"
"16","16","retrieval","old_object","28","F33.jpg",".","3","36","1","1094"
"16","16","retrieval","old_object","29","F66.jpg",".","3","36","1","1108"
"16","16","retrieval","new_object","30","G26.jpg",".",".","37","1","1064"
"16","16","retrieval","new_object","31","H0.jpg",".",".","37","1","959"
"16","16","retrieval","new_object","32","H36.jpg",".",".","37","1","1117"
"16","16","retrieval","new_object","33","G9.jpg",".",".","37","1","995"
"16","16","retrieval","new_object","34","H60.jpg",".",".","36","0","1046"
"16","16","retrieval","new_object","35","H63.jpg",".",".","37","1","1041"
"16","16","retrieval","old_object","36","E67.jpg",".","1","36","1","1177"
"16","16","retrieval","new_object","37","G14.jpg",".",".","37","1","942"
"16","16","retrieval","old_object","38","E18.jpg",".","1","36","1","1047"
"16","16","retrieval","new_object","39","H68.jpg",".",".","37","1","981"
"16","16","retrieval","old_object","40","E28.jpg",".","1","36","1","1016"
"16","16","retrieval","old_object","41","F54.jpg",".","3","36","1","1012"
"16","16","retrieval","old_object","42","F2.jpg",".","3","36","1","1137"
"16","16","retrieval","old_object","43","E14.jpg",".","1","37","0","997"
"16","16","retrieval","old_object","44","E32.jpg",".","1","36","1","990"
"16","16","retrieval","new_object","45","H57.jpg",".",".","37","1","1002"
"16","16","retrieval","new_object","46","H6.jpg",".",".","37","1","1030"
"16","16","retrieval","old_object","47","F76.jpg",".","3","36","1","994"
"16","16","retrieval","new_object","48","G79.jpg",".",".","37","1","991"
"16","16","retrieval","new_object","49","H19.jpg",".",".","37","1","925"
"16","16","retrieval","new_object","50","G63.jpg",".",".","36","0","1212"
"16","16","retrieval","old_object","51","F21.jpg",".","3","36","1","1120"
"16","16","retrieval","old_object","52","E64.jpg",".","1","36","1","1151"
"16","16","retrieval","new_object","53","G40.jpg",".",".","37","1","1086"
"16","16","retrieval","old_object","54","F35.jpg",".","3","36","1","1029"
"16","16","retrieval","old_object","55","F6.jpg",".","3","36","1","997"
"16","16","retrieval","old_object","56","F75.jpg",".","3","36","1","1019"
"16","16","retrieval","new_object","57","G43.jpg",".",".","37","1","922"
"16","16","retrieval","old_object","58","F62.jpg",".","3","36","1","982"
"16","16","retrieval","old_object","59","E21.jpg",".","1","36","1","1180"
"16","16","retrieval","old_object","60","E53.jpg",".","1","36","1","1146"
"16","16","retrieval","new_object","61","G2.jpg",".",".","37","1","1060"
"16","16","retrieval","new_object","62","G1.jpg",".",".","37","1","965"
"16","16","retrieval","old_object","63","E58.jpg",".","1","36","1","1096"
"16","16","retrieval","old_object","64","F79.jpg",".","3","36","1","1118"
"16","16","retrieval","new_object","65","H24.jpg",".",".","37","1","1053"
"16","16","retrieval","old_object","67","E42.jpg",".","1","36","1","1307"
"16","16","retrieval","new_object","68","H12.jpg",".",".","37","1","1054"
"16","16","retrieval","new_object","69","H47.jpg",".",".","37","1","893"
"16","16","retrieval","old_object","70","E70.jpg",".","1","36","1","1177"
"16","16","retrieval","new_object","71","G78.jpg",".",".","37","1","893"
"16","16","retrieval","old_object","72","F4.jpg",".","3","36","1","994"
"16","16","retrieval","old_object","73","F56.jpg",".","3","36","1","992"
"16","16","retrieval","old_object","74","E12.jpg",".","1","37","0","1041"
"16","16","retrieval","old_object","75","F10.jpg",".","3","36","1","1106"
"16","16","retrieval","old_object","76","F71.jpg",".","3","36","1","1188"
"16","16","retrieval","new_object","77","G69.jpg",".",".","36","0","1287"
"16","16","retrieval","new_object","78","H37.jpg",".",".","37","1","1153"
"16","16","retrieval","new_object","79","G58.jpg",".",".","37","1","1101"
"16","16","retrieval","new_object","80","G7.jpg",".",".","37","1","1022"
"16","16","retrieval","old_object","81","F31.jpg",".","3","36","1","1034"
"16","16","retrieval","new_object","82","G20.jpg",".",".","37","1","1003"
"16","16","retrieval","old_object","83","E62.jpg",".","1","36","1","1127"
"16","16","retrieval","new_object","84","H4.jpg",".",".","37","1","997"
"16","16","retrieval","new_object","85","H22.jpg",".",".","37","1","1201"
"16","16","retrieval","old_object","86","E15.jpg",".","1","36","1","1151"
"16","16","retrieval","new_object","87","H71.jpg",".",".","37","1","1037"
"16","16","retrieval","old_object","88","E2.jpg",".","1","36","1","1055"
"16","16","retrieval","old_object","89","F5.jpg",".","3","36","1","978"
"16","16","retrieval","old_object","90","E5.jpg",".","1","37","0","1195"
"16","16","retrieval","new_object","91","H55.jpg",".",".","37","1","1114"
"16","16","retrieval","old_object","92","F57.jpg",".","3","36","1","1034"
"16","16","retrieval","new_object","93","G23.jpg",".",".","37","1","897"
"16","16","retrieval","new_object","94","G75.jpg",".",".","37","1","1058"
"16","16","retrieval","new_object","95","H23.jpg",".",".","37","1","865"
"16","16","retrieval","old_object","96","E36.jpg",".","1","37","0","996"
"16","16","retrieval","new_object","97","H72.jpg",".",".","37","1","979"
"16","16","retrieval","old_object","98","E9.jpg",".","1","37","0","942"
"16","16","retrieval","new_object","99","H39.jpg",".",".","37","1","950"
"16","16","retrieval","new_object","100","G77.jpg",".",".","37","1","1163"
"16","16","retrieval","new_object","101","G59.jpg",".",".","37","1","990"
"16","16","retrieval","new_object","102","H46.jpg",".",".","37","1","967"
"16","16","retrieval","old_object","103","E75.jpg",".","1","36","1","1024"
"16","16","retrieval","old_object","104","E63.jpg",".","1","36","1","1077"
"16","16","retrieval","new_object","105","H27.jpg",".",".","37","1","1090"
"16","16","retrieval","new_object","106","H7.jpg",".",".","37","1","984"
"16","16","retrieval","new_object","107","G36.jpg",".",".","37","1","895"
"16","16","retrieval","old_object","108","E61.jpg",".","1","36","1","1014"
"16","16","retrieval","old_object","109","E4.jpg",".","1","37","0","1063"
"16","16","retrieval","old_object","110","F36.jpg",".","3","36","1","1016"
"16","16","retrieval","old_object","111","E50.jpg",".","1","36","1","1120"
"16","16","retrieval","new_object","112","H31.jpg",".",".","37","1","974"
"16","16","retrieval","new_object","113","H3.jpg",".",".","37","1","1079"
"16","16","retrieval","old_object","114","F34.jpg",".","3","36","1","996"
"16","16","retrieval","new_object","115","G6.jpg",".",".","37","1","908"
"16","16","retrieval","old_object","116","F47.jpg",".","3","36","1","1063"
"16","16","retrieval","old_object","117","E43.jpg",".","1","36","1","1303"
"16","16","retrieval","old_object","118","E11.jpg",".","1","36","1","1474"
"16","16","retrieval","new_object","119","G22.jpg",".",".","37","1","1065"
"16","16","retrieval","new_object","120","G3.jpg",".",".","37","1","1063"
"16","16","retrieval","new_object","121","G13.jpg",".",".","37","1","1075"
"16","16","retrieval","old_object","122","F24.jpg",".","3","36","1","1011"
"16","16","retrieval","new_object","123","H67.jpg",".",".","37","1","927"
"16","16","retrieval","old_object","124","F78.jpg",".","3","36","1","1039"
"16","16","retrieval","old_object","125","E23.jpg",".","1","36","1","952"
"16","16","retrieval","new_object","126","G71.jpg",".",".","37","1","964"
"16","16","retrieval","old_object","127","F65.jpg",".","3","36","1","1035"
"16","16","retrieval","new_object","128","H40.jpg",".",".","37","1","920"
"16","16","retrieval","new_object","129","H32.jpg",".",".","37","1","884"
"16","16","retrieval","new_object","130","G39.jpg",".",".","37","1","1069"
"16","16","retrieval","old_object","131","F26.jpg",".","3","36","1","1127"
"16","16","retrieval","old_object","133","E59.jpg",".","1","37","0","1117"
"16","16","retrieval","old_object","134","F58.jpg",".","3","36","1","1028"
"16","16","retrieval","old_object","135","E13.jpg",".","1","36","1","1008"
"16","16","retrieval","new_object","136","G48.jpg",".",".","37","1","1072"
"16","16","retrieval","new_object","137","G52.jpg",".",".","37","1","1032"
"16","16","retrieval","old_object","138","F7.jpg",".","3","36","1","1017"
"16","16","retrieval","new_object","139","G33.jpg",".",".","37","1","1003"
"16","16","retrieval","old_object","140","F9.jpg",".","3","36","1","1064"
"16","16","retrieval","old_object","141","E74.jpg",".","1","36","1","1143"
"16","16","retrieval","old_object","142","F73.jpg",".","3","36","1","1077"
"16","16","retrieval","old_object","143","F39.jpg",".","3","36","1","1093"
"16","16","retrieval","new_object","144","G8.jpg",".",".","37","1","1086"
"16","16","retrieval","new_object","145","H61.jpg",".",".","37","1","1028"
"16","16","retrieval","old_object","146","F3.jpg",".","3","36","1","974"
"16","16","retrieval","new_object","147","G47.jpg",".",".","37","1","977"
"16","16","retrieval","old_object","148","F28.jpg",".","3","36","1","1200"
"16","16","retrieval","old_object","149","F30.jpg",".","3","36","1","1000"
"16","16","retrieval","old_object","150","E10.jpg",".","1","36","1","1099"
"16","16","retrieval","new_object","151","H54.jpg",".",".","37","1","1106"
"16","16","retrieval","new_object","152","G37.jpg",".",".","37","1","975"
"16","16","retrieval","old_object","153","E78.jpg",".","1","36","1","1053"
"16","16","retrieval","old_object","154","E25.jpg",".","1","37","0","1091"
"16","16","retrieval","old_object","155","E19.jpg",".","1","36","1","1162"
"16","16","retrieval","new_object","156","H76.jpg",".",".","37","1","1044"
"16","16","retrieval","new_object","157","H77.jpg",".",".","37","1","1057"
"16","16","retrieval","old_object","158","F53.jpg",".","3","36","1","1118"
"16","16","retrieval","old_object","159","F61.jpg",".","3","36","1","1054"
"16","16","retrieval","new_object","160","G11.jpg",".",".","37","1","1107"
"16","16","retrieval","old_object","161","F41.jpg",".","3","36","1","999"
"16","16","retrieval","new_object","162","H79.jpg",".",".","37","1","1039"
"16","16","retrieval","old_object","163","E57.jpg",".","1","36","1","1241"
"16","16","retrieval","new_object","164","H52.jpg",".",".","37","1","1074"
"16","16","retrieval","old_object","165","F49.jpg",".","3","36","1","1037"
"16","16","retrieval","old_object","166","E65.jpg",".","1","37","0","1081"
"16","16","retrieval","new_object","167","H35.jpg",".",".","37","1","1218"
"16","16","retrieval","old_object","168","F52.jpg",".","3","36","1","1121"
"16","16","retrieval","new_object","169","G38.jpg",".",".","37","1","969"
"16","16","retrieval","old_object","170","E68.jpg",".","1","36","1","934"
"16","16","retrieval","old_object","171","F63.jpg",".","3","36","1","972"
"16","16","retrieval","old_object","172","F1.jpg",".","3","36","1","1037"
"16","16","retrieval","new_object","173","H51.jpg",".",".","37","1","990"
"16","16","retrieval","new_object","174","H13.jpg",".",".","37","1","932"
"16","16","retrieval","new_object","175","H20.jpg",".",".","37","1","920"
"16","16","retrieval","old_object","176","F64.jpg",".","3","36","1","1125"
"16","16","retrieval","old_object","177","F20.jpg",".","3","36","1","1051"
"16","16","retrieval","new_object","178","G49.jpg",".",".","37","1","1081"
"16","16","retrieval","old_object","179","F22.jpg",".","3","36","1","1055"
"16","16","retrieval","new_object","180","H58.jpg",".",".","37","1","958"
"16","16","retrieval","old_object","181","E17.jpg",".","1","36","1","1056"
"16","16","retrieval","new_object","182","H62.jpg",".",".","37","1","958"
"16","16","retrieval","new_object","183","G70.jpg",".",".","37","1","1060"
"16","16","retrieval","old_object","184","F37.jpg",".","3","36","1","1200"
"16","16","retrieval","new_object","185","H44.jpg",".",".","37","1","1048"
"16","16","retrieval","old_object","186","E73.jpg",".","1","37","0","975"
"16","16","retrieval","new_object","187","H34.jpg",".",".","37","1","1045"
"16","16","retrieval","new_object","188","G18.jpg",".",".","37","1","1071"
"16","16","retrieval","new_object","189","G60.jpg",".",".","37","1","1129"
"16","16","retrieval","old_object","190","E66.jpg",".","1","36","1","1180"
"16","16","retrieval","new_object","191","H5.jpg",".",".","37","1","1023"
"16","16","retrieval","new_object","192","H41.jpg",".",".","37","1","983"
"16","16","retrieval","old_object","193","E0.jpg",".","1","36","1","1088"
"16","16","retrieval","new_object","194","G46.jpg",".",".","37","1","965"
"16","16","retrieval","new_object","195","H30.jpg",".",".","37","1","1030"
"16","16","retrieval","new_object","196","H28.jpg",".",".","37","1","959"
"16","16","retrieval","new_object","197","G53.jpg",".",".","37","1","912"
"16","16","retrieval","new_object","199","G44.jpg",".",".","37","1","913"
"16","16","retrieval","old_object","200","F59.jpg",".","3","36","1","1018"
"16","16","retrieval","old_object","201","F46.jpg",".","3","36","1","1045"
"16","16","retrieval","old_object","202","E52.jpg",".","1","37","0","1210"
"16","16","retrieval","new_object","203","H49.jpg",".",".","37","1","1061"
"16","16","retrieval","new_object","204","G30.jpg",".",".","37","1","867"
"16","16","retrieval","new_object","205","H50.jpg",".",".","37","1","919"
"16","16","retrieval","new_object","206","H2.jpg",".",".","37","1","995"
"16","16","retrieval","new_object","207","H9.jpg",".",".","37","1","832"
"16","16","retrieval","old_object","208","E26.jpg",".","1","37","0","1022"
"16","16","retrieval","old_object","209","F51.jpg",".","3","36","1","1007"
"16","16","retrieval","new_object","210","H70.jpg",".",".","37","1","1027"
"16","16","retrieval","old_object","211","E51.jpg",".","1","36","1","1085"
"16","16","retrieval","new_object","212","H45.jpg",".",".","37","1","894"
"16","16","retrieval","old_object","213","F23.jpg",".","3","36","1","981"
"16","16","retrieval","new_object","214","G35.jpg",".",".","37","1","902"
"16","16","retrieval","new_object","215","G66.jpg",".",".","37","1","1035"
"16","16","retrieval","old_object","216","F70.jpg",".","3","36","1","861"
"16","16","retrieval","new_object","217","G56.jpg",".",".","37","1","871"
"16","16","retrieval","new_object","218","G57.jpg",".",".","37","1","1285"
"16","16","retrieval","new_object","219","H42.jpg",".",".","37","1","1348"
"16","16","retrieval","old_object","220","F18.jpg",".","3","36","1","1029"
"16","16","retrieval","new_object","221","H18.jpg",".",".","37","1","1005"
"16","16","retrieval","old_object","222","E54.jpg",".","1","36","1","1256"
"16","16","retrieval","old_object","223","E16.jpg",".","1","36","1","1140"
"16","16","retrieval","new_object","224","G5.jpg",".",".","37","1","1037"
"16","16","retrieval","new_object","225","H66.jpg",".",".","37","1","1267"
"16","16","retrieval","old_object","226","F42.jpg",".","3","36","1","1073"
"16","16","retrieval","new_object","227","G51.jpg",".",".","37","1","1025"
"16","16","retrieval","old_object","228","E33.jpg",".","1","36","1","1161"
"16","16","retrieval","new_object","229","H10.jpg",".",".","37","1","1248"
"16","16","retrieval","old_object","230","E20.jpg",".","1","37","0","1054"
"16","16","retrieval","new_object","231","H74.jpg",".",".","37","1","1002"
"16","16","retrieval","new_object","232","G74.jpg",".",".","37","1","1152"
"16","16","retrieval","new_object","233","G0.jpg",".",".","37","1","957"
"16","16","retrieval","old_object","234","E69.jpg",".","1","36","1","1024"
"16","16","retrieval","old_object","235","E24.jpg",".","1","36","1","1051"
"16","16","retrieval","old_object","236","E72.jpg",".","1","36","1","1049"
"16","16","retrieval","new_object","237","G32.jpg",".",".","37","1","1083"
"16","16","retrieval","new_object","238","G21.jpg",".",".","37","1","972"
"16","16","retrieval","old_object","239","E41.jpg",".","1","36","1","1010"
"16","16","retrieval","new_object","240","H48.jpg",".",".","37","1","935"
"16","16","retrieval","new_object","241","G29.jpg",".",".","37","1","890"
"16","16","retrieval","new_object","242","H69.jpg",".",".","37","1","928"
"16","16","retrieval","new_object","243","G10.jpg",".",".","37","1","944"
"16","16","retrieval","old_object","244","F77.jpg",".","3","36","1","957"
"16","16","retrieval","old_object","245","E76.jpg",".","1","36","1","1171"
"16","16","retrieval","old_object","246","F69.jpg",".","3","36","1","1020"
"16","16","retrieval","old_object","247","F44.jpg",".","3","36","1","1038"
"16","16","retrieval","old_object","248","F40.jpg",".","3","36","1","1145"
"16","16","retrieval","old_object","249","E35.jpg",".","1","36","1","1048"
"16","16","retrieval","old_object","250","E55.jpg",".","1","36","1","1078"
"16","16","retrieval","new_object","251","H59.jpg",".",".","37","1","1142"
"16","16","retrieval","old_object","252","E45.jpg",".","1","36","1","1107"
"16","16","retrieval","old_object","253","F38.jpg",".","3","36","1","1153"
"16","16","retrieval","new_object","254","G4.jpg",".",".","37","1","1005"
"16","16","retrieval","old_object","255","F12.jpg",".","3","37","0","1151"
"16","16","retrieval","old_object","256","E7.jpg",".","1","36","1","1058"
"16","16","retrieval","new_object","257","H33.jpg",".",".","37","1","923"
"16","16","retrieval","new_object","258","G50.jpg",".",".","37","1","1094"
"16","16","retrieval","old_object","259","E46.jpg",".","1","36","1","1385"
"16","16","retrieval","new_object","260","G15.jpg",".",".","37","1","1097"
"16","16","retrieval","old_object","261","F68.jpg",".","3","36","1","1139"
"16","16","retrieval","new_object","262","G34.jpg",".",".","37","1","1048"
"16","16","retrieval","old_object","263","F48.jpg",".","3","36","1","1116"
"16","16","retrieval","old_object","265","F50.jpg",".","3","36","1","1456"
"16","16","retrieval","new_object","266","H29.jpg",".",".","37","1","1002"
"16","16","retrieval","new_object","267","H21.jpg",".",".","37","1","986"
"16","16","retrieval","old_object","268","F13.jpg",".","3","36","1","1116"
"16","16","retrieval","old_object","269","E3.jpg",".","1","36","1","1155"
"16","16","retrieval","new_object","270","G16.jpg",".",".","37","1","1008"
"16","16","retrieval","new_object","271","G67.jpg",".",".","37","1","1110"
"16","16","retrieval","new_object","272","H53.jpg",".",".","37","1","1039"
"16","16","retrieval","old_object","273","E40.jpg",".","1","36","1","1025"
"16","16","retrieval","new_object","274","G68.jpg",".",".","37","1","1168"
"16","16","retrieval","old_object","275","F55.jpg",".","3","36","1","1089"
"16","16","retrieval","old_object","276","F60.jpg",".","3","36","1","1000"
"16","16","retrieval","old_object","277","E1.jpg",".","1","36","1","1025"
"16","16","retrieval","new_object","278","G73.jpg",".",".","37","1","1282"
"16","16","retrieval","old_object","279","F67.jpg",".","3","36","1","1105"
"16","16","retrieval","new_object","280","G62.jpg",".",".","37","1","1151"
"16","16","retrieval","new_object","281","H8.jpg",".",".","37","1","1049"
"16","16","retrieval","old_object","282","E39.jpg",".","1","36","1","1254"
"16","16","retrieval","old_object","283","F11.jpg",".","3","36","1","1257"
"16","16","retrieval","new_object","284","G64.jpg",".",".","37","1","1069"
"16","16","retrieval","new_object","285","H1.jpg",".",".","37","1","982"
"16","16","retrieval","new_object","286","G28.jpg",".",".","37","1","1053"
"16","16","retrieval","old_object","287","E30.jpg",".","1","37","0","1102"
"16","16","retrieval","new_object","288","H75.jpg",".",".","37","1","1121"
"16","16","retrieval","new_object","289","H73.jpg",".",".","37","1","1092"
"16","16","retrieval","new_object","290","H65.jpg",".",".","37","1","1005"
"16","16","retrieval","new_object","291","G24.jpg",".",".","37","1","1050"
"16","16","retrieval","old_object","292","F14.jpg",".","3","36","1","980"
"16","16","retrieval","old_object","293","F27.jpg",".","3","36","1","996"
"16","16","retrieval","new_object","294","G54.jpg",".",".","37","1","1026"
"16","16","retrieval","new_object","295","H25.jpg",".",".","37","1","1039"
"16","16","retrieval","new_object","296","G12.jpg",".",".","37","1","1017"
"16","16","retrieval","new_object","297","H43.jpg",".",".","36","0","1251"
"16","16","retrieval","old_object","298","F17.jpg",".","3","36","1","1171"
"16","16","retrieval","old_object","299","E56.jpg",".","1","36","1","1110"
"16","16","retrieval","old_object","300","E31.jpg",".","1","36","1","1103"
"16","16","retrieval","new_object","301","H26.jpg",".",".","37","1","959"
"16","16","retrieval","new_object","302","G25.jpg",".",".","37","1","1007"
"16","16","retrieval","new_object","303","H11.jpg",".",".","37","1","998"
"16","16","retrieval","new_object","304","G45.jpg",".",".","37","1","1270"
"16","16","retrieval","old_object","305","F16.jpg",".","3","36","1","919"
"16","16","retrieval","new_object","306","G55.jpg",".",".","37","1","922"
"16","16","retrieval","old_object","307","F45.jpg",".","3","36","1","1024"
"16","16","retrieval","new_object","308","H16.jpg",".",".","37","1","954"
"16","16","retrieval","old_object","309","E29.jpg",".","1","36","1","1206"
"16","16","retrieval","old_object","310","E48.jpg",".","1","36","1","1173"
"16","16","retrieval","old_object","311","F19.jpg",".","3","36","1","1073"
"16","16","retrieval","old_object","312","F0.jpg",".","3","36","1","1054"
"16","16","retrieval","old_object","313","E6.jpg",".","1","36","1","1049"
"16","16","retrieval","new_object","314","H78.jpg",".",".","36","0","1384"
"16","16","retrieval","old_object","315","E37.jpg",".","1","36","1","1067"
"16","16","retrieval","new_object","316","H17.jpg",".",".","37","1","1071"
"16","16","retrieval","new_object","317","H64.jpg",".",".","37","1","962"
"16","16","retrieval","old_object","318","E38.jpg",".","1","36","1","1000"
"16","16","retrieval","old_object","319","E27.jpg",".","1","37","0","1063"
"16","16","retrieval","old_object","320","E49.jpg",".","1","36","1","999"
"16","16","retrieval","new_object","321","G31.jpg",".",".","37","1","900"
"16","16","retrieval","old_object","322","F32.jpg",".","3","36","1","954"
"16","16","retrieval","new_object","323","H14.jpg",".",".","37","1","968"
"16","16","retrieval","new_object","324","H6.jpg",".",".","37","1","1020"
"16","16","retrieval","old_object","325","F25.jpg",".","3","36","1","1030"
"16","16","demographics_block","gender","1",".",".",".","Male","1","21787"
"16","16","demographics_block","age","1",".",".",".","36","1","21787"
"16","16","demographics_block","education","1",".",".",".","16","1","21787"
"16","16","demographics_block","left_right_handed","2",".",".",".","Right","1","14866"
"16","16","demographics_block","raceoption1","2",".",".",".","0","1","14866"
"16","16","demographics_block","raceoption2","2",".",".",".","","1","14866"
"16","16","demographics_block","raceoption3","2",".",".",".","","1","14866"
"16","16","demographics_block","raceoption4","2",".",".",".","","1","14866"
"16","16","demographics_block","raceoption5","2",".",".",".","","1","14866"
"16","16","demographics_block","raceoption6","2",".",".",".","","1","14866"
"16","16","demographics_block","raceoption7","2",".",".",".","","1","14866"
"16","16","demographics_block","raceoption8","2",".",".",".","","1","14866"
"16","16","demographics_block","raceoption9","2",".",".",".","","1","14866"
"16","16","demographics_block","raceother","2",".",".",".","","1","14866"
"16","16","demographics_block","raceother","2",".",".",".","","1","14866"
"16","16","demographics_block","english_language","2",".",".",".","Yes","1","14866"
"16","16","demographics_block","other","2",".",".",".","","1","14866"
"16","16","demographics_block","eyesight","3",".",".",".","Yes","1","7427"
"16","16","demographics_block","colorblind","3",".",".",".","No","1","7427"
"15","15","encoding","encoding","1","F27.jpg","3",".","0","0","1000"
"15","15","encoding","encoding","2","E16.jpg","1",".","0","0","1000"
"15","15","encoding","encoding","3","E54.jpg","1",".","0","0","1000"
"15","15","encoding","encoding","4","F51.jpg","3",".","0","0","1000"
"15","15","encoding","encoding","5","F54.jpg","3",".","0","0","1000"
"15","15","encoding","encoding","6","F23.jpg","3",".","0","0","1000"
"15","15","encoding","encoding","7","E26.jpg","1",".","0","0","1000"
"15","15","encoding","encoding","8","F6.jpg","3",".","0","0","1000"
"15","15","encoding","encoding","9","F8.jpg","3",".","0","0","1000"
"15","15","encoding","encoding","10","E12.jpg","1",".","0","0","1000"
"15","15","encoding","encoding","11","F79.jpg","3",".","0","0","1000"
"15","15","encoding","encoding","12","E22.jpg","1",".","0","0","1000"
"15","15","encoding","encoding","13","F67.jpg","3",".","0","0","1000"
"15","15","encoding","encoding","14","F68.jpg","3",".","0","0","1000"
"15","15","encoding","encoding","15","F29.jpg","3",".","0","0","1000"
"15","15","encoding","encoding","16","F0.jpg","3",".","0","0","1000"
"15","15","encoding","encoding","17","E50.jpg","1",".","37","0","856"
"15","15","encoding","encoding","18","F69.jpg","3",".","37","0","903"
"15","15","encoding","encoding","19","F8.jpg","3",".","37","0","933"
"15","15","encoding","encoding","20","F39.jpg","3",".","0","0","1000"
"15","15","encoding","encoding","21","F25.jpg","3",".","0","0","1000"
"15","15","encoding","encoding","22","F9.jpg","3",".","0","0","1000"
"15","15","encoding","encoding","23","E14.jpg","1",".","0","0","1000"
"15","15","encoding","encoding","24","F43.jpg","3",".","37","0","977"
"15","15","encoding","encoding","25","F45.jpg","3",".","37","0","914"
"15","15","encoding","encoding","26","E56.jpg","1",".","0","0","1000"
"15","15","encoding","encoding","27","E53.jpg","1",".","0","0","1000"
"15","15","encoding","encoding","28","F52.jpg","3",".","0","0","1000"
"15","15","encoding","encoding","29","F14.jpg","3",".","37","0","898"
"15","15","encoding","encoding","30","F78.jpg","3",".","0","0","1000"
"15","15","encoding","encoding","31","F50.jpg","3",".","0","0","1000"
"15","15","encoding","encoding","32","F75.jpg","3",".","37","0","868"
"15","15","encoding","encoding","33","F28.jpg","3",".","37","0","930"
"15","15","encoding","encoding","34","E51.jpg","1",".","37","0","832"
"15","15","encoding","encoding","35","F55.jpg","3",".","37","0","902"
"15","15","encoding","encoding","36","F65.jpg","3",".","37","0","803"
"15","15","encoding","encoding","37","E17.jpg","1",".","37","0","916"
"15","15","encoding","encoding","38","E49.jpg","1",".","37","0","903"
"15","15","encoding","encoding","39","F70.jpg","3",".","0","0","1000"
"15","15","encoding","encoding","40","F54.jpg","3",".","0","0","1000"
"15","15","encoding","encoding","41","F39.jpg","3",".","36","0","849"
"15","15","encoding","encoding","42","F73.jpg","3",".","0","0","1000"
"15","15","encoding","encoding","43","F6.jpg","3",".","37","0","876"
"15","15","encoding","encoding","44","F35.jpg","3",".","37","0","922"
"15","15","encoding","encoding","45","F54.jpg","3",".","0","0","1000"
"15","15","encoding","encoding","46","E5.jpg","1",".","36","0","831"
"15","15","encoding","encoding","47","E60.jpg","1",".","36","0","707"
"15","15","encoding","encoding","48","F5.jpg","3",".","0","0","1000"
"15","15","encoding","encoding","49","F14.jpg","3",".","0","0","1000"
"15","15","encoding","encoding","50","F40.jpg","3",".","0","0","1000"
"15","15","encoding","encoding","51","F34.jpg","3",".","37","0","833"
"15","15","encoding","encoding","52","F33.jpg","3",".","0","0","1000"
"15","15","encoding","encoding","53","F12.jpg","3",".","37","0","918"
"15","15","encoding","encoding","54","F41.jpg","3",".","0","0","1000"
"15","15","encoding","encoding","55","F3.jpg","3",".","37","0","890"
"15","15","encoding","encoding","56","E47.jpg","1",".","37","0","780"
"15","15","encoding","encoding","57","F5.jpg","3",".","0","0","1000"
"15","15","encoding","encoding","58","E73.jpg","1",".","0","0","1000"
