"group","subject","blockcode","trialcode","trialnum","stimulus","encoding_condition","old_object_condition","response","correct","latency"
"18","18","encoding","encoding","1","DeepFryer.jpg","3",".","37","0","819"
"18","18","encoding","encoding","2","VinylRecord.jpg","3",".","37","0","696"
"18","18","encoding","encoding","3","Suitcase.jpg","1",".","37","0","788"
"18","18","encoding","encoding","4","Cologne.jpg","3",".","37","0","791"
"18","18","encoding","encoding","5","DonaldDuck_Toy.jpg","3",".","37","0","803"
"18","18","encoding","encoding","6","Bag_Toiletry.jpg","1",".","37","0","445"
"18","18","encoding","encoding","7","Boat_Colourful.jpg","1",".","37","0","559"
"18","18","encoding","encoding","8","Bucket_WoodenLight.jpg","1",".","37","0","527"
"18","18","encoding","encoding","9","Piano_Upright.jpg","3",".","37","0","506"
"18","18","encoding","encoding","10","Jars_PetFood.jpg","1",".","37","0","778"
"18","18","encoding","encoding","11","RecorderInstrument.jpg","3",".","37","0","442"
"18","18","encoding","encoding","12","MortarPestle_WhiteMarble.jpg","3",".","37","0","702"
"18","18","encoding","encoding","13","Piano_Upright.jpg","3",".","37","0","513"
"18","18","encoding","encoding","14","SaladCaesar.jpg","3",".","0","0","1000"
"18","18","encoding","encoding","15","Snowpea.jpg","3",".","36","0","763"
"18","18","encoding","encoding","16","Puffin.jpg","1",".","36","0","868"
"18","18","encoding","encoding","17","IceCubes.jpg","3",".","37","0","712"
"18","18","encoding","encoding","18","Toy_Bat.jpg","3",".","36","0","792"
"18","18","encoding","encoding","19","RecorderInstrument.jpg","3",".","37","0","659"
"18","18","encoding","encoding","20","PersonWooden.jpg","3",".","37","0","492"
"18","18","encoding","encoding","21","Card_TwoSpade.jpg","3",".","37","0","269"
"18","18","encoding","encoding","22","Clamp_Screw.jpg","3",".","37","0","450"
"18","18","encoding","encoding","23","Car_Buggy.jpg","3",".","37","0","688"
"18","18","encoding","encoding","24","Sink_Kitchen.jpg","3",".","37","0","499"
"18","18","encoding","encoding","25","Box_WoodCrate.jpg","1",".","37","0","410"
"18","18","encoding","encoding","26","Ginger.jpg","3",".","36","0","839"
"18","18","encoding","encoding","27","Toy_Dog.jpg","3",".","37","0","841"
"18","18","encoding","encoding","28","NailFiles.jpg","3",".","37","0","652"
"18","18","encoding","encoding","29","Cologne.jpg","3",".","37","0","608"
"18","18","encoding","encoding","30","Tray_Medical.jpg","3",".","37","0","700"
"18","18","encoding","encoding","31","Stick_Stirring.jpg","1",".","37","0","546"
"18","18","encoding","encoding","32","Bicycle_Kids.jpg","3",".","37","0","479"
"18","18","encoding","encoding","33","Lips_Wax.jpg","3",".","37","0","863"
"18","18","encoding","encoding","34","MortarPestle_WhiteMarble.jpg","3",".","37","0","685"
"18","18","encoding","encoding","35","PersonWooden.jpg","3",".","37","0","529"
"18","18","encoding","encoding","36","Shrimp.jpg","3",".","36","0","599"
"18","18","encoding","encoding","37","Toy_Rooster.jpg","3",".","37","0","578"
"18","18","encoding","encoding","38","Box_Cutlery.jpg","3",".","37","0","613"
"18","18","encoding","encoding","39","Suit_Women.jpg","3",".","37","0","531"
"18","18","encoding","encoding","40","Decoration_ChristmasWhite.jpg","1",".","37","0","477"
"18","18","encoding","encoding","41","HairBand.jpg","1",".","37","0","366"
"18","18","encoding","encoding","42","Suit_Women.jpg","3",".","37","0","558"
"18","18","encoding","encoding","43","IroningBoard.jpg","3",".","37","0","493"
"18","18","encoding","encoding","44","Ruler_Wooden.jpg","1",".","37","0","495"
"18","18","encoding","encoding","45","Toy_Taxi.jpg","3",".","37","0","440"
"18","18","encoding","encoding","46","PaperTowel_Brown.jpg","3",".","37","0","487"
"18","18","encoding","encoding","47","Stick_IceHockey.jpg","3",".","37","0","556"
"18","18","encoding","encoding","48","Pouch_Red.jpg","1",".","37","0","884"
"18","18","encoding","encoding","49","Stool_Camping.jpg","3",".","37","0","582"
"18","18","encoding","encoding","50","HairClipper.jpg","3",".","37","0","517"
"18","18","encoding","encoding","51","PaperCutter.jpg","3",".","37","0","799"
"18","18","encoding","encoding","52","Toy_Ladybug.jpg","1",".","37","0","407"
"18","18","encoding","encoding","53","SnowmanDecor.jpg","3",".","37","0","690"
"18","18","encoding","encoding","54","Flashlight.jpg","1",".","37","0","422"
"18","18","encoding","encoding","55","RecorderInstrument.jpg","3",".","37","0","487"
"18","18","encoding","encoding","56","Hat_Feather.jpg","3",".","0","0","1000"
"18","18","encoding","encoding","57","Helicopter.jpg","1",".","37","0","574"
"18","18","encoding","encoding","58","Compressor.jpg","1",".","37","0","485"
"18","18","encoding","encoding","59","CarLighter.jpg","3",".","37","0","499"
"18","18","encoding","encoding","60","Mask_VenetianCat.jpg","3",".","37","0","343"
"18","18","encoding","encoding","61","Toy_BeadMaze.jpg","1",".","37","0","378"
"18","18","encoding","encoding","62","TelescopeSpacecraft.jpg","3",".","37","0","448"
"18","18","encoding","encoding","63","Boar.jpg","1",".","37","0","416"
"18","18","encoding","encoding","64","Toy_Bat.jpg","3",".","36","0","519"
"18","18","encoding","encoding","65","Cheeseburger.jpg","1",".","37","0","543"
"18","18","encoding","encoding","67","Card_Deck.jpg","3",".","37","0","689"
"18","18","encoding","encoding","68","CDstack.jpg","3",".","37","0","477"
"18","18","encoding","encoding","69","Speakers_Theatre.jpg","3",".","37","0","421"
"18","18","encoding","encoding","70","Carrot.jpg","1",".","36","0","682"
"18","18","encoding","encoding","71","Sandwich_Ham.jpg","3",".","37","0","674"
"18","18","encoding","encoding","72","Otoscope.jpg","1",".","37","0","597"
"18","18","encoding","encoding","73","TowelRack_Metal.jpg","1",".","0","0","1000"
"18","18","encoding","encoding","74","SoapDish.jpg","3",".","37","0","555"
"18","18","encoding","encoding","75","Toy_Firetruck.jpg","3",".","37","0","388"
"18","18","encoding","encoding","76","Ginger.jpg","3",".","36","0","570"
"18","18","encoding","encoding","77","RadioactiveContainer.jpg","1",".","37","0","515"
"18","18","encoding","encoding","78","OperaGlasses.jpg","3",".","37","0","561"
"18","18","encoding","encoding","79","FuzzyDice.jpg","3",".","37","0","688"
"18","18","encoding","encoding","80","PowderProtein.jpg","1",".","37","0","621"
"18","18","encoding","encoding","81","Garlic_Clove.jpg","3",".","36","0","668"
"18","18","encoding","encoding","82","Broccoli.jpg","1",".","36","0","703"
"18","18","encoding","encoding","83","EyeChart.jpg","3",".","37","0","526"
"18","18","encoding","encoding","84","Toy_Firetruck.jpg","3",".","37","0","842"
"18","18","encoding","encoding","85","DonaldDuck_Toy.jpg","3",".","37","0","776"
"18","18","encoding","encoding","86","Dice.jpg","3",".","37","0","767"
"18","18","encoding","encoding","87","MatchBook.jpg","1",".","37","0","555"
"18","18","encoding","encoding","88","Bowl_Chopsticks.jpg","3",".","37","0","467"
"18","18","encoding","encoding","89","Nail.jpg","3",".","37","0","536"
"18","18","encoding","encoding","90","Seeder.jpg","3",".","37","0","425"
"18","18","encoding","encoding","91","Car_Buggy.jpg","3",".","37","0","449"
"18","18","encoding","encoding","92","Shovel_Garden.jpg","1",".","37","0","575"
"18","18","encoding","encoding","93","Backhoe.jpg","1",".","37","0","475"
"18","18","encoding","encoding","94","Speakers_Theatre.jpg","3",".","37","0","410"
"18","18","encoding","encoding","95","SnowmanDecor.jpg","3",".","37","0","569"
"18","18","encoding","encoding","96","Cloud.jpg","3",".","37","0","458"
"18","18","encoding","encoding","97","Sandwich_Ham.jpg","3",".","0","0","1000"
"18","18","encoding","encoding","98","Stone_Spa.jpg","1",".","37","0","787"
"18","18","encoding","encoding","99","TelescopeSpacecraft.jpg","3",".","37","0","588"
"18","18","encoding","encoding","100","BrainSagittal.jpg","1",".","37","0","846"
"18","18","encoding","encoding","101","ColoringSet.jpg","3",".","0","0","1000"
"18","18","encoding","encoding","102","Toy_Wooden rings.jpg","3",".","37","0","559"
"18","18","encoding","encoding","103","Stool_Camping.jpg","3",".","37","0","582"
"18","18","encoding","encoding","104","Candleholder_LampShaped.jpg","3",".","37","0","494"
"18","18","encoding","encoding","105","FuzzyDice.jpg","3",".","37","0","621"
"18","18","encoding","encoding","106","PumpBreast.jpg","3",".","37","0","634"
"18","18","encoding","encoding","107","Lips_Wax.jpg","3",".","37","0","826"
"18","18","encoding","encoding","108","Canister_Tea.jpg","1",".","37","0","738"
"18","18","encoding","encoding","109","Pyramid.jpg","1",".","37","0","582"
"18","18","encoding","encoding","110","Dropper.jpg","3",".","37","0","595"
"18","18","encoding","encoding","111","Sphinx.jpg","1",".","37","0","484"
"18","18","encoding","encoding","112","Ginger.jpg","3",".","36","0","621"
"18","18","encoding","encoding","113","WalkieTalkie_Yellow.jpg","1",".","37","0","679"
"18","18","encoding","encoding","114","Snowpea.jpg","3",".","36","0","815"
"18","18","encoding","encoding","115","Pretzel_Sticks.jpg","3",".","0","0","1000"
"18","18","encoding","encoding","116","Celery.jpg","3",".","36","0","707"
"18","18","encoding","encoding","117","Toy_Dog.jpg","3",".","37","0","607"
"18","18","encoding","encoding","118","NailFiles.jpg","3",".","37","0","609"
"18","18","encoding","encoding","119","Toy_Firetruck.jpg","3",".","37","0","543"
"18","18","encoding","encoding","120","Mitt_Blue.jpg","3",".","37","0","804"
"18","18","encoding","encoding","121","Ostrich.jpg","1",".","36","0","772"
"18","18","encoding","encoding","122","LintRemover.jpg","3",".","37","0","774"
"18","18","encoding","encoding","123","Nail.jpg","3",".","37","0","505"
"18","18","encoding","encoding","124","LeafBlower.jpg","1",".","37","0","495"
"18","18","encoding","encoding","125","Piano_Upright.jpg","3",".","37","0","442"
"18","18","encoding","encoding","126","Pretzel_Sticks.jpg","3",".","37","0","892"
"18","18","encoding","encoding","127","Card_TwoSpade.jpg","3",".","37","0","457"
"18","18","encoding","encoding","128","Heater_ElectricUpright.jpg","1",".","37","0","425"
"18","18","encoding","encoding","129","Protractor.jpg","3",".","37","0","629"
"18","18","encoding","encoding","130","Drum_Ramadan.jpg","3",".","37","0","382"
"18","18","encoding","encoding","131","Lynx.jpg","1",".","36","0","766"
"18","18","encoding","encoding","133","Glasses_Sun.jpg","3",".","37","0","453"
"18","18","encoding","encoding","134","DeepFryer.jpg","3",".","37","0","465"
"18","18","encoding","encoding","135","Airplane_Small.jpg","3",".","37","0","557"
"18","18","encoding","encoding","136","Toy_Rooster.jpg","3",".","37","0","987"
"18","18","encoding","encoding","137","VacuumHose.jpg","3",".","37","0","594"
"18","18","encoding","encoding","138","TowelRack_Brown.jpg","1",".","37","0","383"
"18","18","encoding","encoding","139","Cloud.jpg","3",".","37","0","340"
"18","18","encoding","encoding","140","Lips_Wax.jpg","3",".","37","0","893"
"18","18","encoding","encoding","141","Box_Cutlery.jpg","3",".","37","0","648"
"18","18","encoding","encoding","142","Celery.jpg","3",".","36","0","593"
"18","18","encoding","encoding","143","Drum_Ramadan.jpg","3",".","37","0","526"
"18","18","encoding","encoding","144","Hat_Feather.jpg","3",".","37","0","832"
"18","18","encoding","encoding","145","Garlic_Clove.jpg","3",".","36","0","631"
"18","18","encoding","encoding","146","Seeder.jpg","3",".","37","0","565"
"18","18","encoding","encoding","147","Level.jpg","3",".","37","0","657"
"18","18","encoding","encoding","148","Coral.jpg","1",".","36","0","997"
"18","18","encoding","encoding","149","Lobster.jpg","1",".","36","0","695"
"18","18","encoding","encoding","150","Bagpipes.jpg","3",".","37","0","651"
"18","18","encoding","encoding","151","Makeup_Bag.jpg","3",".","37","0","833"
"18","18","encoding","encoding","152","IceCubes.jpg","3",".","0","0","1000"
"18","18","encoding","encoding","153","Card_Deck.jpg","3",".","37","0","578"
"18","18","encoding","encoding","154","Golf_Club.jpg","3",".","37","0","681"
"18","18","encoding","encoding","155","Makeup_Bag.jpg","3",".","37","0","401"
"18","18","encoding","encoding","156","PaperCutter.jpg","3",".","37","0","505"
"18","18","encoding","encoding","157","Shoes_Mould.jpg","1",".","37","0","833"
"18","18","encoding","encoding","158","Toy_Wooden rings.jpg","3",".","37","0","541"
"18","18","encoding","encoding","159","Sign_SlipperyRoad.jpg","1",".","37","0","520"
"18","18","encoding","encoding","160","Pear_Green.jpg","1",".","36","0","623"
"18","18","encoding","encoding","161","WaterCooler.jpg","1",".","37","0","659"
"18","18","encoding","encoding","162","Scorpion.jpg","1",".","36","0","628"
"18","18","encoding","encoding","163","Mat_Bamboo.jpg","1",".","37","0","596"
"18","18","encoding","encoding","164","ClothesDryingRack.jpg","3",".","37","0","575"
"18","18","encoding","encoding","165","Toy_Rooster.jpg","3",".","37","0","914"
"18","18","encoding","encoding","166","ComputerKey_Escape.jpg","3",".","37","0","871"
"18","18","encoding","encoding","167","Golf_Club.jpg","3",".","37","0","659"
"18","18","encoding","encoding","168","GrillRack.jpg","3",".","37","0","526"
"18","18","encoding","encoding","169","Desk_Office.jpg","1",".","37","0","449"
"18","18","encoding","encoding","170","Camera_Video.jpg","3",".","37","0","517"
"18","18","encoding","encoding","171","VacuumHose.jpg","3",".","37","0","632"
"18","18","encoding","encoding","172","Toy_BearBrownPlushie.jpg","1",".","37","0","453"
"18","18","encoding","encoding","173","Bowl_Chopsticks.jpg","3",".","37","0","478"
"18","18","encoding","encoding","174","HairClipper.jpg","3",".","37","0","592"
"18","18","encoding","encoding","175","MortarPestle_WhiteMarble.jpg","3",".","37","0","256"
"18","18","encoding","encoding","176","SaladCaesar.jpg","3",".","37","0","899"
"18","18","encoding","encoding","177","Car_Buggy.jpg","3",".","37","0","496"
"18","18","encoding","encoding","178","ComputerKey_Escape.jpg","3",".","37","0","419"
"18","18","encoding","encoding","179","Hat_Police.jpg","3",".","37","0","432"
"18","18","encoding","encoding","180","SoapDish.jpg","3",".","37","0","490"
"18","18","encoding","encoding","181","Golf_Club.jpg","3",".","37","0","672"
"18","18","encoding","encoding","182","Sink_Kitchen.jpg","3",".","37","0","674"
"18","18","encoding","encoding","183","Protractor.jpg","3",".","37","0","450"
"18","18","encoding","encoding","184","Dice.jpg","3",".","37","0","417"
"18","18","encoding","encoding","185","Seeder.jpg","3",".","37","0","577"
"18","18","encoding","encoding","186","Camera_Video.jpg","3",".","37","0","490"
"18","18","encoding","encoding","187","Computer_ExpansionCard.jpg","1",".","37","0","418"
"18","18","encoding","encoding","188","OperaGlasses.jpg","3",".","37","0","430"
"18","18","encoding","encoding","189","Makeup_Bag.jpg","3",".","37","0","410"
"18","18","encoding","encoding","190","Paddle_Canoe.jpg","1",".","37","0","266"
"18","18","encoding","encoding","191","Shrimp.jpg","3",".","36","0","853"
"18","18","encoding","encoding","192","Squash_Butternut.jpg","1",".","37","0","251"
"18","18","encoding","encoding","193","PaperTowel_Brown.jpg","3",".","37","0","653"
"18","18","encoding","encoding","194","FuzzyDice.jpg","3",".","37","0","532"
"18","18","encoding","encoding","195","Hat_Feather.jpg","3",".","37","0","589"
"18","18","encoding","encoding","196","Case_CD.jpg","1",".","37","0","613"
"18","18","encoding","encoding","197","Card_TwoSpade.jpg","3",".","37","0","649"
"18","18","encoding","encoding","199","PersonWooden.jpg","3",".","37","0","464"
"18","18","encoding","encoding","200","Garlic_Clove.jpg","3",".","37","0","438"
"18","18","encoding","encoding","201","Bagpipes.jpg","3",".","37","0","935"
"18","18","encoding","encoding","202","Shrimp.jpg","3",".","37","0","813"
"18","18","encoding","encoding","203","Balcony.jpg","1",".","37","0","600"
"18","18","encoding","encoding","204","PumpBreast.jpg","3",".","37","0","637"
"18","18","encoding","encoding","205","Airplane_Small.jpg","3",".","37","0","504"
"18","18","encoding","encoding","206","CarLighter.jpg","3",".","37","0","573"
"18","18","encoding","encoding","207","Tray_Medical.jpg","3",".","37","0","541"
"18","18","encoding","encoding","208","Puzzle_Animal.jpg","3",".","37","0","577"
"18","18","encoding","encoding","209","Bagpipes.jpg","3",".","37","0","500"
"18","18","encoding","encoding","210","PaperTowel_Brown.jpg","3",".","37","0","411"
"18","18","encoding","encoding","211","IroningBoard.jpg","3",".","37","0","435"
"18","18","encoding","encoding","212","Speakers_Theatre.jpg","3",".","37","0","460"
"18","18","encoding","encoding","213","Snorkle.jpg","3",".","37","0","619"
"18","18","encoding","encoding","214","Nail.jpg","3",".","37","0","486"
"18","18","encoding","encoding","215","Bowl_Chopsticks.jpg","3",".","37","0","533"
"18","18","encoding","encoding","216","Drum_Ramadan.jpg","3",".","37","0","556"
"18","18","encoding","encoding","217","ClothesDryingRack.jpg","3",".","37","0","592"
"18","18","encoding","encoding","218","Sink_Kitchen.jpg","3",".","37","0","718"
"18","18","encoding","encoding","219","Pretzel_Sticks.jpg","3",".","37","0","878"
"18","18","encoding","encoding","220","ClothesDryingRack.jpg","3",".","37","0","462"
"18","18","encoding","encoding","221","Protractor.jpg","3",".","37","0","408"
"18","18","encoding","encoding","222","Snorkle.jpg","3",".","37","0","465"
"18","18","encoding","encoding","223","Snorkle.jpg","3",".","37","0","445"
"18","18","encoding","encoding","224","VinylRecord.jpg","3",".","37","0","615"
"18","18","encoding","encoding","225","Bus_DoubleDecker.jpg","1",".","37","0","460"
"18","18","encoding","encoding","226","LintRemover.jpg","3",".","37","0","461"
"18","18","encoding","encoding","227","SaladCaesar.jpg","3",".","37","0","643"
"18","18","encoding","encoding","228","Puzzle_Animal.jpg","3",".","37","0","599"
"18","18","encoding","encoding","229","BowlingPin.jpg","1",".","37","0","534"
"18","18","encoding","encoding","230","CarLighter.jpg","3",".","37","0","604"
"18","18","encoding","encoding","231","CDstack.jpg","3",".","37","0","447"
"18","18","encoding","encoding","232","Mask_VenetianCat.jpg","3",".","37","0","551"
"18","18","encoding","encoding","233","Paddle_Ball.jpg","1",".","37","0","394"
"18","18","encoding","encoding","234","Stick_IceHockey.jpg","3",".","37","0","486"
"18","18","encoding","encoding","235","Fan_Straw.jpg","3",".","37","0","566"
"18","18","encoding","encoding","236","OperaGlasses.jpg","3",".","37","0","569"
"18","18","encoding","encoding","237","IceCubes.jpg","3",".","37","0","571"
"18","18","encoding","encoding","238","Bicycle_Kids.jpg","3",".","37","0","472"
"18","18","encoding","encoding","239","Card_Deck.jpg","3",".","37","0","416"
"18","18","encoding","encoding","240","Dragonfly.jpg","1",".","0","0","1000"
"18","18","encoding","encoding","241","GrillRack.jpg","3",".","37","0","646"
"18","18","encoding","encoding","242","Cloud.jpg","3",".","37","0","535"
"18","18","encoding","encoding","243","Toy_Taxi.jpg","3",".","37","0","401"
"18","18","encoding","encoding","244","Hat_Police.jpg","3",".","37","0","492"
"18","18","encoding","encoding","245","Bicycle_Kids.jpg","3",".","37","0","506"
"18","18","encoding","encoding","246","Clippers_Glass.jpg","1",".","37","0","721"
"18","18","encoding","encoding","247","IroningBoard.jpg","3",".","37","0","498"
"18","18","encoding","encoding","248","Toy_Bat.jpg","3",".","37","0","369"
"18","18","encoding","encoding","249","Blueberry.jpg","1",".","0","0","1000"
"18","18","encoding","encoding","250","Dog_Bulldog.jpg","1",".","36","0","480"
"18","18","encoding","encoding","251","Tape_Dispenser.jpg","1",".","37","0","639"
"18","18","encoding","encoding","252","Heater_Outdoor.jpg","1",".","37","0","822"
"18","18","encoding","encoding","253","Candleholder_LampShaped.jpg","3",".","37","0","631"
"18","18","encoding","encoding","254","Suit_Women.jpg","3",".","0","0","1000"
"18","18","encoding","encoding","255","Clamp_Screw.jpg","3",".","37","0","501"
"18","18","encoding","encoding","256","ColoringSet.jpg","3",".","37","0","659"
"18","18","encoding","encoding","257","ComputerKey_Escape.jpg","3",".","37","0","910"
"18","18","encoding","encoding","258","DonaldDuck_Toy.jpg","3",".","37","0","753"
"18","18","encoding","encoding","259","ShinPads.jpg","1",".","37","0","396"
"18","18","encoding","encoding","260","LintRemover.jpg","3",".","37","0","397"
"18","18","encoding","encoding","261","Candleholder_LampShaped.jpg","3",".","37","0","444"
"18","18","encoding","encoding","262","Mask_VenetianCat.jpg","3",".","37","0","480"
"18","18","encoding","encoding","263","FlintIgniter.jpg","1",".","37","0","571"
"18","18","encoding","encoding","265","Glasses_Sun.jpg","3",".","37","0","481"
"18","18","encoding","encoding","266","TelescopeSpacecraft.jpg","3",".","37","0","426"
"18","18","encoding","encoding","267","Puzzle_Animal.jpg","3",".","37","0","539"
"18","18","encoding","encoding","268","SnowmanDecor.jpg","3",".","37","0","542"
"18","18","encoding","encoding","269","Airplane_Small.jpg","3",".","37","0","565"
"18","18","encoding","encoding","270","Glove_Baseball.jpg","3",".","37","0","668"
"18","18","encoding","encoding","271","Neckrest.jpg","1",".","37","0","445"
"18","18","encoding","encoding","272","Clamp_Screw.jpg","3",".","37","0","549"
"18","18","encoding","encoding","273","Mitt_Blue.jpg","3",".","37","0","461"
"18","18","encoding","encoding","274","VacuumHose.jpg","3",".","37","0","451"
"18","18","encoding","encoding","275","Pasta_Fettuccine.jpg","1",".","36","0","757"
"18","18","encoding","encoding","276","Mitt_Blue.jpg","3",".","37","0","534"
"18","18","encoding","encoding","277","Toy_Taxi.jpg","3",".","37","0","547"
"18","18","encoding","encoding","278","Toy_Wooden rings.jpg","3",".","37","0","481"
"18","18","encoding","encoding","279","HairClipper.jpg","3",".","37","0","404"
"18","18","encoding","encoding","280","Camera_Video.jpg","3",".","37","0","529"
"18","18","encoding","encoding","281","Tray_Medical.jpg","3",".","37","0","654"
"18","18","encoding","encoding","282","Match.jpg","1",".","37","0","521"
"18","18","encoding","encoding","283","SoapDish.jpg","3",".","37","0","511"
"18","18","encoding","encoding","284","Stick_IceHockey.jpg","3",".","37","0","536"
"18","18","encoding","encoding","285","Walkman.jpg","1",".","37","0","550"
"18","18","encoding","encoding","286","Dice.jpg","3",".","37","0","461"
"18","18","encoding","encoding","287","Sandwich_Ham.jpg","3",".","37","0","801"
"18","18","encoding","encoding","288","Notepad.jpg","1",".","37","0","521"
"18","18","encoding","encoding","289","Dropper.jpg","3",".","37","0","522"
"18","18","encoding","encoding","290","Snowpea.jpg","3",".","37","0","468"
"18","18","encoding","encoding","291","Cologne.jpg","3",".","37","0","842"
"18","18","encoding","encoding","292","VinylRecord.jpg","3",".","37","0","583"
"18","18","encoding","encoding","293","Shirt_Tshirt.jpg","1",".","37","0","619"
"18","18","encoding","encoding","294","Toy_TrailerAirport.jpg","1",".","37","0","542"
"18","18","encoding","encoding","295","Glove_Baseball.jpg","3",".","37","0","555"
"18","18","encoding","encoding","296","WaterHeater.jpg","1",".","37","0","546"
"18","18","encoding","encoding","297","Celery.jpg","3",".","36","0","715"
"18","18","encoding","encoding","298","CDstack.jpg","3",".","37","0","593"
"18","18","encoding","encoding","299","Tray_Metal.jpg","1",".","37","0","607"
"18","18","encoding","encoding","300","PumpBreast.jpg","3",".","37","0","823"
"18","18","encoding","encoding","301","Fan_Straw.jpg","3",".","37","0","499"
"18","18","encoding","encoding","302","Coin.jpg","1",".","37","0","782"
"18","18","encoding","encoding","303","Barrel_Wine.jpg","1",".","37","0","570"
"18","18","encoding","encoding","304","Box_Cutlery.jpg","3",".","37","0","582"
"18","18","encoding","encoding","305","Level.jpg","3",".","37","0","742"
"18","18","encoding","encoding","306","Glasses_Sun.jpg","3",".","37","0","518"
"18","18","encoding","encoding","307","Fan_Straw.jpg","3",".","37","0","542"
"18","18","encoding","encoding","308","PaperCutter.jpg","3",".","37","0","555"
"18","18","encoding","encoding","309","Glove_Baseball.jpg","3",".","37","0","713"
"18","18","encoding","encoding","310","TreeStump.jpg","1",".","37","0","681"
"18","18","encoding","encoding","311","Toy_DonkeyFur.jpg","1",".","36","0","898"
"18","18","encoding","encoding","312","Toy_Christmastree.jpg","1",".","37","0","720"
"18","18","encoding","encoding","313","ColoringSet.jpg","3",".","37","0","609"
"18","18","encoding","encoding","314","Toy_Dog.jpg","3",".","37","0","488"
"18","18","encoding","encoding","315","EyeChart.jpg","3",".","37","0","624"
"18","18","encoding","encoding","316","NailFiles.jpg","3",".","37","0","626"
"18","18","encoding","encoding","317","GrillRack.jpg","3",".","37","0","639"
"18","18","encoding","encoding","318","Level.jpg","3",".","37","0","528"
"18","18","encoding","encoding","319","Hat_Police.jpg","3",".","37","0","586"
"18","18","encoding","encoding","320","Dropper.jpg","3",".","37","0","520"
"18","18","encoding","encoding","321","DeepFryer.jpg","3",".","37","0","487"
"18","18","encoding","encoding","322","ShoeLace_Flat.jpg","1",".","37","0","928"
"18","18","encoding","encoding","323","EyeChart.jpg","3",".","37","0","480"
"18","18","encoding","encoding","324","Stool_Camping.jpg","3",".","37","0","583"
"18","18","encoding","encoding","325","DeepFryer.jpg","",".","37","0","506"
"18","18","retrieval","old_object","1","Sign_SlipperyRoad.jpg",".","1","37","0","1234"
"18","18","retrieval","new_object","2","Radish.jpg",".",".","37","1","787"
"18","18","retrieval","new_object","3","Handbag.jpg",".",".","37","1","801"
"18","18","retrieval","new_object","4","DartBoard.jpg",".",".","37","1","535"
"18","18","retrieval","old_object","5","Tray_Medical.jpg",".","3","36","1","739"
"18","18","retrieval","new_object","6","Light_Fixtures.jpg",".",".","37","1","1058"
"18","18","retrieval","new_object","7","DoubleBass.jpg",".",".","37","1","823"
"18","18","retrieval","old_object","8","Box_Cutlery.jpg",".","3","36","1","715"
"18","18","retrieval","new_object","9","FireAlarm.jpg",".",".","37","1","694"
"18","18","retrieval","new_object","10","Lantern_Chinese.jpg",".",".","37","1","629"
"18","18","retrieval","old_object","11","Snowpea.jpg",".","3","36","1","575"
"18","18","retrieval","old_object","12","GrillRack.jpg",".","3","36","1","668"
"18","18","retrieval","new_object","13","PulleyWooden.jpg",".",".","37","1","795"
"18","18","retrieval","new_object","14","TortillaChip.jpg",".",".","37","1","719"
"18","18","retrieval","old_object","15","ShinPads.jpg",".","1","36","1","677"
"18","18","retrieval","new_object","16","Carousel.jpg",".",".","37","1","849"
"18","18","retrieval","new_object","17","Backpack_Suitcase.jpg",".",".","36","0","672"
"18","18","retrieval","old_object","18","Box_WoodCrate.jpg",".","1","37","0","765"
"18","18","retrieval","new_object","19","Gecko.jpg",".",".","37","1","677"
"18","18","retrieval","old_object","20","Cheeseburger.jpg",".","1","36","1","1107"
"18","18","retrieval","old_object","21","Boar.jpg",".","1","37","0","761"
"18","18","retrieval","old_object","22","PowderProtein.jpg",".","1","36","1","1248"
"18","18","retrieval","new_object","23","LicensePlate.jpg",".",".","37","1","677"
"18","18","retrieval","old_object","24","Shrimp.jpg",".","3","36","1","601"
"18","18","retrieval","old_object","25","Shirt_Tshirt.jpg",".","1","36","1","692"
"18","18","retrieval","new_object","26","Garlic_Whole.jpg",".",".","37","1","965"
"18","18","retrieval","old_object","27","Puzzle_Animal.jpg",".","3","37","0","586"
"18","18","retrieval","new_object","28","Barbecue_Charcoal.jpg",".",".","36","0","983"
"18","18","retrieval","new_object","29","Briefcase_Silver.jpg",".",".","36","0","603"
"18","18","retrieval","old_object","30","Clippers_Glass.jpg",".","1","37","0","594"
"18","18","retrieval","new_object","31","Helmet_Football.jpg",".",".","37","1","598"
"18","18","retrieval","new_object","32","Lollipop_Rainbow.jpg",".",".","37","1","679"
"18","18","retrieval","new_object","33","WateringCan_Antique.jpg",".",".","37","1","705"
"18","18","retrieval","new_object","34","WaterWell.jpg",".",".","37","1","730"
"18","18","retrieval","new_object","35","Wire_ElectricalSingle.jpg",".",".","37","1","750"
"18","18","retrieval","new_object","36","Bark.jpg",".",".","37","1","628"
"18","18","retrieval","old_object","37","BowlingPin.jpg",".","1","37","0","801"
"18","18","retrieval","new_object","38","Ship_Cruise.jpg",".",".","37","1","658"
"18","18","retrieval","new_object","39","BumperCar.jpg",".",".","37","1","660"
"18","18","retrieval","old_object","40","Broccoli.jpg",".","1","36","1","831"
"18","18","retrieval","new_object","41","Corkboard.jpg",".",".","36","0","1015"
"18","18","retrieval","new_object","42","Milkshake_Strawberry.jpg",".",".","37","1","613"
"18","18","retrieval","old_object","43","Toy_BearBrownPlushie.jpg",".","1","36","1","671"
"18","18","retrieval","old_object","44","Suitcase.jpg",".","1","36","1","707"
"18","18","retrieval","new_object","45","Toy_Truck.jpg",".",".","36","0","710"
"18","18","retrieval","old_object","46","Toy_Rooster.jpg",".","3","36","1","534"
"18","18","retrieval","old_object","47","Suit_Women.jpg",".","3","36","1","659"
"18","18","retrieval","new_object","48","Mug_Travel.jpg",".",".","37","1","909"
"18","18","retrieval","new_object","49","Amp.jpg",".",".","37","1","800"
"18","18","retrieval","new_object","50","Cinnamonroll.jpg",".",".","37","1","768"
"18","18","retrieval","old_object","51","PaperCutter.jpg",".","3","36","1","637"
"18","18","retrieval","new_object","52","Umbrella_Classic.jpg",".",".","36","0","595"
"18","18","retrieval","new_object","53","Castle_Sand.jpg",".",".","36","0","1542"
"18","18","retrieval","new_object","54","Scythe.jpg",".",".","37","1","994"
"18","18","retrieval","new_object","55","Walker_Blue.jpg",".",".","36","0","626"
"18","18","retrieval","old_object","56","Toy_Ladybug.jpg",".","1","37","0","854"
"18","18","retrieval","old_object","57","Carrot.jpg",".","1","36","1","698"
"18","18","retrieval","new_object","58","MetalDetector.jpg",".",".","37","1","1330"
"18","18","retrieval","new_object","59","Television.jpg",".",".","37","1","738"
"18","18","retrieval","old_object","60","Hat_Police.jpg",".","3","37","0","853"
"18","18","retrieval","new_object","61","SelfieStick.jpg",".",".","37","1","743"
"18","18","retrieval","new_object","62","Bird_Duck.jpg",".",".","37","1","746"
"18","18","retrieval","new_object","63","Spatula.jpg",".",".","37","1","614"
"18","18","retrieval","old_object","64","Coral.jpg",".","1","36","1","830"
"18","18","retrieval","new_object","65","Bread_Loaf.jpg",".",".","37","1","766"
"18","18","retrieval","old_object","67","Sphinx.jpg",".","1","37","0","890"
"18","18","retrieval","old_object","68","VinylRecord.jpg",".","3","37","0","590"
"18","18","retrieval","old_object","69","Shovel_Garden.jpg",".","1","37","0","648"
"18","18","retrieval","old_object","70","Hat_Feather.jpg",".","3","36","1","866"
"18","18","retrieval","new_object","71","SewingPin_Cushion.jpg",".",".","37","1","631"
"18","18","retrieval","old_object","72","FuzzyDice.jpg",".","3","36","1","815"
"18","18","retrieval","new_object","73","Tube_Paint.jpg",".",".","37","1","783"
"18","18","retrieval","new_object","74","HairCurler.jpg",".",".","37","1","674"
"18","18","retrieval","new_object","75","Jar_Honey.jpg",".",".","37","1","676"
"18","18","retrieval","old_object","76","Stick_Stirring.jpg",".","1","36","1","1140"
"18","18","retrieval","new_object","77","Hubcap.jpg",".",".","37","1","694"
"18","18","retrieval","old_object","78","Pasta_Fettuccine.jpg",".","1","36","1","708"
"18","18","retrieval","new_object","79","Stone_AncientWriting.jpg",".",".","37","1","924"
"18","18","retrieval","old_object","80","HairClipper.jpg",".","3","37","0","1175"
"18","18","retrieval","new_object","81","Envelope_Manila.jpg",".",".","37","1","694"
"18","18","retrieval","new_object","82","Statue_Horse.jpg",".",".","37","1","1079"
"18","18","retrieval","new_object","83","Thermometer_Room.jpg",".",".","36","0","1204"
"18","18","retrieval","old_object","84","Golf_Club.jpg",".","3","36","1","768"
"18","18","retrieval","old_object","85","Lobster.jpg",".","1","36","1","649"
"18","18","retrieval","new_object","86","Canister_Oil.jpg",".",".","37","1","808"
"18","18","retrieval","old_object","87","Garlic_Clove.jpg",".","3","36","1","744"
"18","18","retrieval","old_object","88","Coin.jpg",".","1","36","1","645"
"18","18","retrieval","new_object","89","Tube_Glue.jpg",".",".","37","1","783"
"18","18","retrieval","old_object","90","Pouch_Red.jpg",".","1","37","0","842"
"18","18","retrieval","old_object","91","Glove_Baseball.jpg",".","3","36","1","867"
"18","18","retrieval","new_object","92","Tree_Fir.jpg",".",".","36","0","1141"
"18","18","retrieval","new_object","93","Box_FirstAid.jpg",".",".","37","1","873"
"18","18","retrieval","old_object","94","Card_TwoSpade.jpg",".","3","37","0","1180"
"18","18","retrieval","new_object","95","Arch_Triomphe.jpg",".",".","37","1","833"
"18","18","retrieval","old_object","96","SnowmanDecor.jpg",".","3","36","1","768"
"18","18","retrieval","new_object","97","Taco.jpg",".",".","37","1","805"
"18","18","retrieval","new_object","98","ProjectorScreen.jpg",".",".","37","1","875"
"18","18","retrieval","old_object","99","Walkman.jpg",".","1","36","1","1440"
"18","18","retrieval","old_object","100","Seeder.jpg",".","3","36","1","915"
"18","18","retrieval","old_object","101","TelescopeSpacecraft.jpg",".","3","36","1","680"
"18","18","retrieval","old_object","102","Toy_Wooden rings.jpg",".","3","36","1","672"
"18","18","retrieval","new_object","103","Mailbox_Community.jpg",".",".","37","1","968"
"18","18","retrieval","new_object","104","Carabiner_Orange.jpg",".",".","37","1","757"
"18","18","retrieval","new_object","105","Heelpad.jpg",".",".","37","1","704"
"18","18","retrieval","new_object","106","Weathervane.jpg",".",".","37","1","807"
"18","18","retrieval","new_object","107","Bandage_Adhesive.jpg",".",".","37","1","788"
"18","18","retrieval","new_object","108","Cannon.jpg",".",".","37","1","791"
"18","18","retrieval","old_object","109","Mat_Bamboo.jpg",".","1","36","1","849"
"18","18","retrieval","old_object","110","WaterHeater.jpg",".","1","37","0","706"
"18","18","retrieval","new_object","111","Crab.jpg",".",".","36","0","563"
"18","18","retrieval","old_object","112","Squash_Butternut.jpg",".","1","36","1","621"
"18","18","retrieval","new_object","113","Earring_Hoop.jpg",".",".","37","1","703"
"18","18","retrieval","new_object","114","Stove_WithOven.jpg",".",".","37","1","806"
"18","18","retrieval","new_object","115","Case_Pencil.jpg",".",".","36","0","854"
"18","18","retrieval","new_object","116","SofaAntique.jpg",".",".","37","1","1116"
"18","18","retrieval","new_object","117","DogSled.jpg",".",".","37","1","1174"
"18","18","retrieval","new_object","118","Helmet_Motorcycle.jpg",".",".","37","1","795"
"18","18","retrieval","new_object","119","Barometer.jpg",".",".","37","1","754"
"18","18","retrieval","old_object","120","Ostrich.jpg",".","1","37","0","903"
"18","18","retrieval","new_object","121","Hat_Colonial.jpg",".",".","37","1","703"
"18","18","retrieval","new_object","122","Toolbox_BlackOpen.jpg",".",".","36","0","931"
"18","18","retrieval","new_object","123","Spear.jpg",".",".","37","1","967"
"18","18","retrieval","old_object","124","Piano_Upright.jpg",".","3","36","1","621"
"18","18","retrieval","old_object","125","IceCubes.jpg",".","3","36","1","759"
"18","18","retrieval","old_object","126","RadioactiveContainer.jpg",".","1","36","1","807"
"18","18","retrieval","old_object","127","Pear_Green.jpg",".","1","37","0","956"
"18","18","retrieval","old_object","128","Toy_Christmastree.jpg",".","1","37","0","801"
"18","18","retrieval","new_object","129","Flags_CheckeredRacing.jpg",".",".","37","1","781"
"18","18","retrieval","old_object","130","Card_Deck.jpg",".","3","36","1","1009"
"18","18","retrieval","old_object","131","Stool_Camping.jpg",".","3","36","1","639"
"18","18","retrieval","old_object","133","Cloud.jpg",".","3","36","1","786"
"18","18","retrieval","new_object","134","Acorn.jpg",".",".","37","1","823"
"18","18","retrieval","new_object","135","CarSuspension.jpg",".",".","37","1","882"
"18","18","retrieval","new_object","136","Bus_School.jpg",".",".","36","0","1245"
"18","18","retrieval","new_object","137","Toy_MerryGoRound.jpg",".",".","36","0","1045"
"18","18","retrieval","old_object","138","TreeStump.jpg",".","1","36","1","677"
"18","18","retrieval","new_object","139","Chair_Office.jpg",".",".","37","1","939"
"18","18","retrieval","old_object","140","Sink_Kitchen.jpg",".","3","36","1","750"
"18","18","retrieval","new_object","141","SolderingWire.jpg",".",".","36","0","977"
"18","18","retrieval","old_object","142","NailFiles.jpg",".","3","36","1","777"
"18","18","retrieval","old_object","143","Sandwich_Ham.jpg",".","3","36","1","623"
"18","18","retrieval","old_object","144","Neckrest.jpg",".","1","37","0","761"
"18","18","retrieval","old_object","145","Barrel_Wine.jpg",".","1","37","0","1066"
"18","18","retrieval","old_object","146","Camera_Video.jpg",".","3","36","1","744"
"18","18","retrieval","old_object","147","ShoeLace_Flat.jpg",".","1","36","1","1050"
"18","18","retrieval","old_object","148","Dragonfly.jpg",".","1","37","0","1143"
"18","18","retrieval","new_object","149","Light_Halogen.jpg",".",".","37","1","887"
"18","18","retrieval","old_object","150","Fan_Straw.jpg",".","3","37","0","969"
"18","18","retrieval","old_object","151","Heater_ElectricUpright.jpg",".","1","37","0","690"
"18","18","retrieval","new_object","152","CodeDoorLock.jpg",".",".","37","1","693"
"18","18","retrieval","old_object","153","Bucket_WoodenLight.jpg",".","1","36","1","718"
"18","18","retrieval","new_object","154","Van.jpg",".",".","37","1","901"
"18","18","retrieval","new_object","155","Glass_Beer.jpg",".",".","37","1","633"
"18","18","retrieval","old_object","156","Toy_DonkeyFur.jpg",".","1","36","1","614"
"18","18","retrieval","old_object","157","Celery.jpg",".","3","36","1","593"
"18","18","retrieval","old_object","158","VacuumHose.jpg",".","3","36","1","641"
"18","18","retrieval","old_object","159","DeepFryer.jpg",".","3","36","1","644"
"18","18","retrieval","new_object","160","HoseNozzle.jpg",".",".","37","1","681"
"18","18","retrieval","old_object","161","Blueberry.jpg",".","1","36","1","615"
"18","18","retrieval","old_object","162","Canister_Tea.jpg",".","1","36","1","777"
"18","18","retrieval","old_object","163","BrainSagittal.jpg",".","1","36","1","904"
"18","18","retrieval","old_object","164","Bicycle_Kids.jpg",".","3","36","1","648"
"18","18","retrieval","old_object","165","Stone_Spa.jpg",".","1","36","1","718"
"18","18","retrieval","old_object","166","Shoes_Mould.jpg",".","1","36","1","946"
"18","18","retrieval","old_object","167","Level.jpg",".","3","36","1","668"
"18","18","retrieval","old_object","168","Airplane_Small.jpg",".","3","36","1","716"
"18","18","retrieval","old_object","169","Stick_IceHockey.jpg",".","3","36","1","616"
"18","18","retrieval","old_object","170","DonaldDuck_Toy.jpg",".","3","36","1","832"
"18","18","retrieval","new_object","171","PagodaModel.jpg",".",".","37","1","1375"
"18","18","retrieval","old_object","172","Candleholder_LampShaped.jpg",".","3","37","0","1007"
"18","18","retrieval","new_object","173","Bucket_Halloween.jpg",".",".","37","1","863"
"18","18","retrieval","new_object","174","Bag_Diaper.jpg",".",".","37","1","878"
"18","18","retrieval","old_object","175","Paddle_Ball.jpg",".","1","37","0","722"
"18","18","retrieval","old_object","176","Clamp_Screw.jpg",".","3","37","0","1063"
"18","18","retrieval","new_object","177","Candy_Lozenge.jpg",".",".","37","1","774"
"18","18","retrieval","old_object","178","Paddle_Canoe.jpg",".","1","36","1","754"
"18","18","retrieval","old_object","179","Bagpipes.jpg",".","3","36","1","813"
"18","18","retrieval","old_object","180","Case_CD.jpg",".","1","37","0","872"
"18","18","retrieval","old_object","181","OperaGlasses.jpg",".","3","36","1","796"
"18","18","retrieval","old_object","182","LeafBlower.jpg",".","1","36","1","709"
"18","18","retrieval","old_object","183","Pyramid.jpg",".","1","36","1","622"
"18","18","retrieval","new_object","184","House_Wooden.jpg",".",".","37","1","962"
"18","18","retrieval","new_object","185","Bread_Melon.jpg",".",".","37","1","796"
"18","18","retrieval","old_object","186","CarLighter.jpg",".","3","36","1","1022"
"18","18","retrieval","new_object","187","Brush_Light.jpg",".",".","37","1","936"
"18","18","retrieval","new_object","188","Trash_Medical.jpg",".",".","37","1","1029"
"18","18","retrieval","new_object","189","Bowl_Glass.jpg",".",".","37","1","749"
"18","18","retrieval","new_object","190","Statue_Man.jpg",".",".","37","1","798"
"18","18","retrieval","old_object","191","PumpBreast.jpg",".","3","37","0","959"
"18","18","retrieval","old_object","192","Otoscope.jpg",".","1","37","0","850"
"18","18","retrieval","new_object","193","PocketKnife.jpg",".",".","37","1","807"
"18","18","retrieval","new_object","194","GasStation.jpg",".",".","37","1","888"
"18","18","retrieval","old_object","195","Dice.jpg",".","3","37","0","880"
"18","18","retrieval","new_object","196","MousepadAndMouse.jpg",".",".","37","1","1123"
"18","18","retrieval","old_object","197","Bowl_Chopsticks.jpg",".","3","36","1","807"
"18","18","retrieval","old_object","199","Desk_Office.jpg",".","1","37","0","1087"
"18","18","retrieval","old_object","200","Jars_PetFood.jpg",".","1","36","1","1630"
"18","18","retrieval","old_object","201","WaterCooler.jpg",".","1","37","0","733"
"18","18","retrieval","old_object","202","IroningBoard.jpg",".","3","36","1","864"
"18","18","retrieval","new_object","203","Stool_Metal.jpg",".",".","36","0","941"
"18","18","retrieval","new_object","204","Aquarium.jpg",".",".","37","1","1046"
"18","18","retrieval","new_object","205","Branch.jpg",".",".","37","1","890"
"18","18","retrieval","new_object","206","Bottle_Beer.jpg",".",".","37","1","736"
"18","18","retrieval","old_object","207","Nail.jpg",".","3","36","1","750"
"18","18","retrieval","old_object","208","Glasses_Sun.jpg",".","3","36","1","754"
"18","18","retrieval","new_object","209","Bat_Cricket.jpg",".",".","37","1","812"
"18","18","retrieval","old_object","210","TowelRack_Metal.jpg",".","1","36","1","769"
"18","18","retrieval","old_object","211","Lynx.jpg",".","1","37","0","1110"
"18","18","retrieval","old_object","212","Backhoe.jpg",".","1","37","0","977"
"18","18","retrieval","old_object","213","RecorderInstrument.jpg",".","3","37","0","732"
"18","18","retrieval","new_object","214","Cassette_Video.jpg",".",".","37","1","1039"
"18","18","retrieval","new_object","215","Cup_Bathroom.jpg",".",".","36","0","1120"
"18","18","retrieval","new_object","216","Wontons.jpg",".",".","37","1","741"
"18","18","retrieval","old_object","217","ClothesDryingRack.jpg",".","3","37","0","766"
"18","18","retrieval","old_object","218","Tray_Metal.jpg",".","1","36","1","804"
"18","18","retrieval","old_object","219","SaladCaesar.jpg",".","3","36","1","727"
"18","18","retrieval","old_object","220","Toy_Dog.jpg",".","3","36","1","719"
"18","18","retrieval","new_object","221","Table_Saw.jpg",".",".","37","1","811"
"18","18","retrieval","new_object","222","PencilCase.jpg",".",".","37","1","905"
"18","18","retrieval","new_object","223","Hanger.jpg",".",".","37","1","839"
"18","18","retrieval","old_object","224","PersonWooden.jpg",".","3","36","1","775"
"18","18","retrieval","new_object","225","Bible.jpg",".",".","36","0","991"
"18","18","retrieval","new_object","226","SatelliteDish.jpg",".",".","37","1","690"
"18","18","retrieval","new_object","227","Microwave.jpg",".",".","37","1","782"
"18","18","retrieval","old_object","228","Lips_Wax.jpg",".","3","36","1","830"
"18","18","retrieval","old_object","229","CDstack.jpg",".","3","36","1","946"
"18","18","retrieval","old_object","230","Drum_Ramadan.jpg",".","3","37","0","734"
"18","18","retrieval","old_object","231","Toy_TrailerAirport.jpg",".","1","37","0","794"
"18","18","retrieval","new_object","232","Toy_Lizard.jpg",".",".","37","1","875"
"18","18","retrieval","new_object","233","Barometer_Wood.jpg",".",".","37","1","721"
"18","18","retrieval","old_object","234","Helicopter.jpg",".","1","37","0","949"
"18","18","retrieval","old_object","235","Balcony.jpg",".","1","37","0","727"
"18","18","retrieval","new_object","236","Bread_Carrot.jpg",".",".","36","0","1424"
"18","18","retrieval","old_object","237","Toy_Taxi.jpg",".","3","37","0","698"
"18","18","retrieval","new_object","238","Makeup_Compact.jpg",".",".","37","1","735"
"18","18","retrieval","old_object","239","Flashlight.jpg",".","1","37","0","1693"
"18","18","retrieval","old_object","240","Makeup_Bag.jpg",".","3","36","1","887"
"18","18","retrieval","old_object","241","Puffin.jpg",".","1","36","1","1216"
"18","18","retrieval","new_object","242","PyramidWooden.jpg",".",".","36","0","588"
"18","18","retrieval","old_object","243","Bus_DoubleDecker.jpg",".","1","37","0","760"
"18","18","retrieval","new_object","244","Lens_Camera.jpg",".",".","37","1","829"
"18","18","retrieval","old_object","245","Computer_ExpansionCard.jpg",".","1","36","1","832"
"18","18","retrieval","new_object","246","Binder.jpg",".",".","37","1","1454"
"18","18","retrieval","old_object","247","Compressor.jpg",".","1","37","0","1446"
"18","18","retrieval","new_object","248","AirPump.jpg",".",".","37","1","763"
"18","18","retrieval","new_object","249","Desk_White.jpg",".",".","37","1","720"
"18","18","retrieval","old_object","250","Protractor.jpg",".","3","36","1","734"
"18","18","retrieval","new_object","251","Oars.jpg",".",".","36","0","715"
"18","18","retrieval","old_object","252","MortarPestle_WhiteMarble.jpg",".","3","36","1","706"
"18","18","retrieval","new_object","253","AirCompressor.jpg",".",".","37","1","911"
"18","18","retrieval","new_object","254","Can_Oblong.jpg",".",".","37","1","662"
"18","18","retrieval","old_object","255","Mitt_Blue.jpg",".","3","36","1","1069"
"18","18","retrieval","old_object","256","Pretzel_Sticks.jpg",".","3","36","1","643"
"18","18","retrieval","old_object","257","HairBand.jpg",".","1","36","1","894"
"18","18","retrieval","new_object","258","PumiceStone.jpg",".",".","37","1","1022"
"18","18","retrieval","old_object","259","Toy_Bat.jpg",".","3","36","1","641"
"18","18","retrieval","new_object","260","Cable_JumpStart.jpg",".",".","37","1","892"
"18","18","retrieval","new_object","261","Cake_Cheese.jpg",".",".","37","1","826"
"18","18","retrieval","new_object","262","Mask_HockeyGoalie.jpg",".",".","37","1","1133"
"18","18","retrieval","old_object","263","Car_Buggy.jpg",".","3","36","1","1204"
"18","18","retrieval","new_object","265","TailLight.jpg",".",".","37","1","1106"
"18","18","retrieval","old_object","266","ColoringSet.jpg",".","3","36","1","1334"
"18","18","retrieval","new_object","267","Cart_Janitor.jpg",".",".","37","1","1134"
"18","18","retrieval","old_object","268","Toy_BeadMaze.jpg",".","1","36","1","799"
"18","18","retrieval","new_object","269","Ladybug.jpg",".",".","37","1","1421"
"18","18","retrieval","new_object","270","Bone.jpg",".",".","37","1","862"
"18","18","retrieval","old_object","271","SoapDish.jpg",".","3","36","1","930"
"18","18","retrieval","old_object","272","FlintIgniter.jpg",".","1","37","0","1496"
"18","18","retrieval","new_object","273","CoffeeLid.jpg",".",".","37","1","1094"
"18","18","retrieval","new_object","274","IceCream_Popsicle.jpg",".",".","37","1","682"
"18","18","retrieval","new_object","275","Light_Studio.jpg",".",".","37","1","751"
"18","18","retrieval","new_object","276","Cymbals.jpg",".",".","37","1","899"
"18","18","retrieval","new_object","277","sign_traffic.jpg",".",".","37","1","666"
"18","18","retrieval","new_object","278","Clave.jpg",".",".","37","1","714"
"18","18","retrieval","new_object","279","MemoPaperSpike.jpg",".",".","37","1","560"
"18","18","retrieval","new_object","280","MechanicalSpring.jpg",".",".","37","1","698"
"18","18","retrieval","old_object","281","Mask_VenetianCat.jpg",".","3","36","1","801"
"18","18","retrieval","new_object","282","LifeJacket_Orangejpg.jpg",".",".","37","1","950"
"18","18","retrieval","new_object","283","SolderingIron.jpg",".",".","37","1","784"
"18","18","retrieval","new_object","284","ManholeCover.jpg",".",".","37","1","866"
"18","18","retrieval","old_object","285","Snorkle.jpg",".","3","37","0","632"
"18","18","retrieval","new_object","286","Hedgehog.jpg",".",".","37","1","1552"
"18","18","retrieval","old_object","287","Dog_Bulldog.jpg",".","1","36","1","824"
"18","18","retrieval","new_object","288","Clock_Interior.jpg",".",".","37","1","703"
"18","18","retrieval","old_object","289","WalkieTalkie_Yellow.jpg",".","1","37","0","705"
"18","18","retrieval","old_object","290","Dropper.jpg",".","3","37","0","912"
"18","18","retrieval","new_object","291","Mailbox_Antique.jpg",".",".","37","1","678"
"18","18","retrieval","old_object","292","Ruler_Wooden.jpg",".","1","36","1","1209"
"18","18","retrieval","old_object","293","MatchBook.jpg",".","1","37","0","738"
"18","18","retrieval","new_object","294","Candy_Toffee.jpg",".",".","37","1","854"
"18","18","retrieval","new_object","295","Bleachers.jpg",".",".","37","1","688"
"18","18","retrieval","old_object","296","LintRemover.jpg",".","3","37","0","759"
"18","18","retrieval","old_object","297","Tape_Dispenser.jpg",".","1","37","0","1222"
"18","18","retrieval","old_object","298","TowelRack_Brown.jpg",".","1","36","1","731"
"18","18","retrieval","old_object","299","PaperTowel_Brown.jpg",".","3","36","1","745"
"18","18","retrieval","new_object","300","Mask_Ski.jpg",".",".","37","1","747"
"18","18","retrieval","new_object","301","RAMchip.jpg",".",".","36","0","1088"
"18","18","retrieval","old_object","302","Scorpion.jpg",".","1","36","1","1462"
"18","18","retrieval","new_object","303","Toy_PandaPlushie.jpg",".",".","36","0","823"
"18","18","retrieval","old_object","304","Decoration_ChristmasWhite.jpg",".","1","37","0","692"
"18","18","retrieval","new_object","305","Compact_Mirror.jpg",".",".","37","1","761"
"18","18","retrieval","new_object","306","Platter_Vegetables.jpg",".",".","37","1","1293"
"18","18","retrieval","old_object","307","Heater_Outdoor.jpg",".","1","37","0","946"
"18","18","retrieval","old_object","308","Cologne.jpg",".","3","36","1","725"
"18","18","retrieval","old_object","309","Bag_Toiletry.jpg",".","1","36","1","1143"
"18","18","retrieval","new_object","310","Bread_Roll.jpg",".",".","37","1","989"
"18","18","retrieval","old_object","311","Match.jpg",".","1","37","0","1227"
"18","18","retrieval","old_object","312","Boat_Colourful.jpg",".","1","36","1","1321"
"18","18","retrieval","old_object","313","Ginger.jpg",".","3","36","1","1099"
"18","18","retrieval","old_object","314","Toy_Firetruck.jpg",".","3","0","0","2000"
"18","18","retrieval","new_object","315","Nuts_Pecan.jpg",".",".","37","1","1577"
"18","18","retrieval","old_object","316","Notepad.jpg",".","1","36","1","1085"
"18","18","retrieval","new_object","317","Hockey_Puck.jpg",".",".","37","1","1188"
"18","18","retrieval","new_object","318","Lighter_Black.jpg",".",".","37","1","1292"
"18","18","retrieval","new_object","319","Fork_Regular.jpg",".",".","36","0","1014"
"18","18","retrieval","old_object","320","Speakers_Theatre.jpg",".","3","37","0","803"
"18","18","retrieval","old_object","321","EyeChart.jpg",".","3","36","1","963"
"18","18","retrieval","old_object","322","ComputerKey_Escape.jpg",".","3","36","1","685"
"18","18","retrieval","new_object","323","Sign_Construction.jpg",".",".","36","0","732"
"18","18","retrieval","new_object","324","Toy_LambPlushie.jpg",".",".","37","1","1377"
"18","18","retrieval","new_object","325","Candy_Lozenge.jpg",".",".","0","0","2000"
"18","18","demographics_block","gender","1",".",".",".","male","1","16747"
"18","18","demographics_block","age","1",".",".",".","44","1","16747"
"18","18","demographics_block","education","1",".",".",".","22","1","16747"
"18","18","demographics_block","left_right_handed","2",".",".",".","Left","1","12822"
"18","18","demographics_block","raceoption1","2",".",".",".","","1","12822"
"18","18","demographics_block","raceoption2","2",".",".",".","","1","12822"
"18","18","demographics_block","raceoption3","2",".",".",".","","1","12822"
"18","18","demographics_block","raceoption4","2",".",".",".","","1","12822"
"18","18","demographics_block","raceoption5","2",".",".",".","","1","12822"
"18","18","demographics_block","raceoption6","2",".",".",".","","1","12822"
"18","18","demographics_block","raceoption7","2",".",".",".","6","1","12822"
"18","18","demographics_block","raceoption8","2",".",".",".","","1","12822"
"18","18","demographics_block","raceoption9","2",".",".",".","","1","12822"
"18","18","demographics_block","raceother","2",".",".",".","","1","12822"
"18","18","demographics_block","raceother","2",".",".",".","","1","12822"
"18","18","demographics_block","english_language","2",".",".",".","No. When did you first learn English? :","1","12822"
"18","18","demographics_block","other","2",".",".",".","Chinese","1","12822"
"18","18","demographics_block","eyesight","3",".",".",".","Yes","1","5577"
"18","18","demographics_block","colorblind","3",".",".",".","No","1","5577"
"19","19","encoding","encoding","1","DeepFryer.jpg","3",".","0","0","1000"
"19","19","encoding","encoding","2","VinylRecord.jpg","3",".","37","0","934"
"19","19","encoding","encoding","3","Suitcase.jpg","1",".","37","0","882"
"19","19","encoding","encoding","4","Cologne.jpg","3",".","37","0","691"
"19","19","encoding","encoding","5","DonaldDuck_Toy.jpg","3",".","37","0","731"
"19","19","encoding","encoding","6","Bag_Toiletry.jpg","1",".","0","0","1000"
"19","19","encoding","encoding","7","Boat_Colourful.jpg","1",".","0","0","1000"
"19","19","encoding","encoding","8","Bucket_WoodenLight.jpg","1",".","37","0","591"
"19","19","encoding","encoding","9","Piano_Upright.jpg","3",".","37","0","518"
"19","19","encoding","encoding","10","Jars_PetFood.jpg","1",".","0","0","1000"
"19","19","encoding","encoding","11","RecorderInstrument.jpg","3",".","37","0","777"
"19","19","encoding","encoding","12","MortarPestle_WhiteMarble.jpg","3",".","37","0","709"
"19","19","encoding","encoding","13","Piano_Upright.jpg","3",".","37","0","574"
"19","19","encoding","encoding","14","SaladCaesar.jpg","3",".","36","0","624"
"19","19","encoding","encoding","15","Snowpea.jpg","3",".","36","0","699"
"19","19","encoding","encoding","16","Puffin.jpg","1",".","36","0","786"
"19","19","encoding","encoding","17","IceCubes.jpg","3",".","37","0","792"
"19","19","encoding","encoding","18","Toy_Bat.jpg","3",".","36","0","639"
"19","19","encoding","encoding","19","RecorderInstrument.jpg","3",".","37","0","692"
"19","19","encoding","encoding","20","PersonWooden.jpg","3",".","37","0","742"
"19","19","encoding","encoding","21","Card_TwoSpade.jpg","3",".","37","0","613"
"19","19","encoding","encoding","22","Clamp_Screw.jpg","3",".","37","0","590"
"19","19","encoding","encoding","23","Car_Buggy.jpg","3",".","37","0","442"
"19","19","encoding","encoding","24","Sink_Kitchen.jpg","3",".","37","0","417"
"19","19","encoding","encoding","25","Box_WoodCrate.jpg","1",".","37","0","402"
"19","19","encoding","encoding","26","Ginger.jpg","3",".","37","0","342"
"19","19","encoding","encoding","27","Toy_Dog.jpg","3",".","37","0","681"
"19","19","encoding","encoding","28","NailFiles.jpg","3",".","37","0","608"
"19","19","encoding","encoding","29","Cologne.jpg","3",".","37","0","573"
"19","19","encoding","encoding","30","Tray_Medical.jpg","3",".","37","0","566"
"19","19","encoding","encoding","31","Stick_Stirring.jpg","1",".","37","0","586"
"19","19","encoding","encoding","32","Bicycle_Kids.jpg","3",".","37","0","677"
"19","19","encoding","encoding","33","Lips_Wax.jpg","3",".","37","0","793"
"19","19","encoding","encoding","34","MortarPestle_WhiteMarble.jpg","3",".","37","0","595"
"19","19","encoding","encoding","35","PersonWooden.jpg","3",".","37","0","474"
"19","19","encoding","encoding","36","Shrimp.jpg","3",".","36","0","731"
"19","19","encoding","encoding","37","Toy_Rooster.jpg","3",".","37","0","722"
"19","19","encoding","encoding","38","Box_Cutlery.jpg","3",".","37","0","598"
"19","19","encoding","encoding","39","Suit_Women.jpg","3",".","37","0","558"
"19","19","encoding","encoding","40","Decoration_ChristmasWhite.jpg","1",".","37","0","495"
"19","19","encoding","encoding","41","HairBand.jpg","1",".","37","0","472"
"19","19","encoding","encoding","42","Suit_Women.jpg","3",".","37","0","418"
"19","19","encoding","encoding","43","IroningBoard.jpg","3",".","37","0","445"
"19","19","encoding","encoding","44","Ruler_Wooden.jpg","1",".","37","0","427"
"19","19","encoding","encoding","45","Toy_Taxi.jpg","3",".","37","0","422"
"19","19","encoding","encoding","46","PaperTowel_Brown.jpg","3",".","37","0","410"
"19","19","encoding","encoding","47","Stick_IceHockey.jpg","3",".","37","0","592"
"19","19","encoding","encoding","48","Pouch_Red.jpg","1",".","37","0","726"
"19","19","encoding","encoding","49","Stool_Camping.jpg","3",".","37","0","505"
"19","19","encoding","encoding","50","HairClipper.jpg","3",".","37","0","374"
"19","19","encoding","encoding","51","PaperCutter.jpg","3",".","37","0","375"
"19","19","encoding","encoding","52","Toy_Ladybug.jpg","1",".","37","0","413"
"19","19","encoding","encoding","53","SnowmanDecor.jpg","3",".","37","0","932"
"19","19","encoding","encoding","54","Flashlight.jpg","1",".","37","0","461"
"19","19","encoding","encoding","55","RecorderInstrument.jpg","3",".","37","0","451"
"19","19","encoding","encoding","56","Hat_Feather.jpg","3",".","37","0","380"
"19","19","encoding","encoding","57","Helicopter.jpg","1",".","37","0","480"
"19","19","encoding","encoding","58","Compressor.jpg","1",".","37","0","302"
"19","19","encoding","encoding","59","CarLighter.jpg","3",".","37","0","336"
"19","19","encoding","encoding","60","Mask_VenetianCat.jpg","3",".","37","0","314"
"19","19","encoding","encoding","61","Toy_BeadMaze.jpg","1",".","37","0","320"
"19","19","encoding","encoding","62","TelescopeSpacecraft.jpg","3",".","37","0","267"
"19","19","encoding","encoding","63","Boar.jpg","1",".","37","0","298"
"19","19","encoding","encoding","64","Toy_Bat.jpg","3",".","36","0","523"
"19","19","encoding","encoding","65","Cheeseburger.jpg","1",".","36","0","517"
"19","19","encoding","encoding","67","Card_Deck.jpg","3",".","37","0","832"
"19","19","encoding","encoding","68","CDstack.jpg","3",".","37","0","511"
"19","19","encoding","encoding","69","Speakers_Theatre.jpg","3",".","37","0","433"
"19","19","encoding","encoding","70","Carrot.jpg","1",".","36","0","479"
"19","19","encoding","encoding","71","Sandwich_Ham.jpg","3",".","36","0","527"
"19","19","encoding","encoding","72","Otoscope.jpg","1",".","37","0","520"
"19","19","encoding","encoding","73","TowelRack_Metal.jpg","1",".","37","0","636"
"19","19","encoding","encoding","74","SoapDish.jpg","3",".","37","0","480"
"19","19","encoding","encoding","75","Toy_Firetruck.jpg","3",".","37","0","459"
"19","19","encoding","encoding","76","Ginger.jpg","3",".","36","0","534"
"19","19","encoding","encoding","77","RadioactiveContainer.jpg","1",".","37","0","579"
"19","19","encoding","encoding","78","OperaGlasses.jpg","3",".","37","0","536"
"19","19","encoding","encoding","79","FuzzyDice.jpg","3",".","37","0","779"
"19","19","encoding","encoding","80","PowderProtein.jpg","1",".","0","0","1000"
"19","19","encoding","encoding","81","Garlic_Clove.jpg","3",".","36","0","697"
"19","19","encoding","encoding","82","Broccoli.jpg","1",".","36","0","533"
"19","19","encoding","encoding","83","EyeChart.jpg","3",".","37","0","629"
"19","19","encoding","encoding","84","Toy_Firetruck.jpg","3",".","37","0","562"
"19","19","encoding","encoding","85","DonaldDuck_Toy.jpg","3",".","37","0","557"
"19","19","encoding","encoding","86","Dice.jpg","3",".","37","0","568"
"19","19","encoding","encoding","87","MatchBook.jpg","1",".","37","0","766"
"19","19","encoding","encoding","88","Bowl_Chopsticks.jpg","3",".","37","0","583"
"19","19","encoding","encoding","89","Nail.jpg","3",".","37","0","506"
"19","19","encoding","encoding","90","Seeder.jpg","3",".","37","0","461"
"19","19","encoding","encoding","91","Car_Buggy.jpg","3",".","37","0","514"
"19","19","encoding","encoding","92","Shovel_Garden.jpg","1",".","37","0","403"
"19","19","encoding","encoding","93","Backhoe.jpg","1",".","37","0","308"
"19","19","encoding","encoding","94","Speakers_Theatre.jpg","3",".","37","0","229"
"19","19","encoding","encoding","95","SnowmanDecor.jpg","3",".","37","0","205"
"19","19","encoding","encoding","96","Cloud.jpg","3",".","36","0","383"
"19","19","encoding","encoding","97","Sandwich_Ham.jpg","3",".","37","0","904"
"19","19","encoding","encoding","98","Stone_Spa.jpg","1",".","37","0","699"
"19","19","encoding","encoding","99","TelescopeSpacecraft.jpg","3",".","37","0","571"
"19","19","encoding","encoding","100","BrainSagittal.jpg","1",".","0","0","1000"
"19","19","encoding","encoding","101","ColoringSet.jpg","3",".","37","0","603"
"19","19","encoding","encoding","102","Toy_Wooden rings.jpg","3",".","37","0","621"
"19","19","encoding","encoding","103","Stool_Camping.jpg","3",".","37","0","521"
"19","19","encoding","encoding","104","Candleholder_LampShaped.jpg","3",".","37","0","475"
"19","19","encoding","encoding","105","FuzzyDice.jpg","3",".","37","0","628"
"19","19","encoding","encoding","106","PumpBreast.jpg","3",".","37","0","537"
"19","19","encoding","encoding","107","Lips_Wax.jpg","3",".","37","0","661"
"19","19","encoding","encoding","108","Canister_Tea.jpg","1",".","37","0","539"
"19","19","encoding","encoding","109","Pyramid.jpg","1",".","37","0","466"
"19","19","encoding","encoding","110","Dropper.jpg","3",".","37","0","516"
"19","19","encoding","encoding","111","Sphinx.jpg","1",".","36","0","647"
"19","19","encoding","encoding","112","Ginger.jpg","3",".","36","0","764"
"19","19","encoding","encoding","113","WalkieTalkie_Yellow.jpg","1",".","37","0","472"
"19","19","encoding","encoding","114","Snowpea.jpg","3",".","36","0","540"
"19","19","encoding","encoding","115","Pretzel_Sticks.jpg","3",".","36","0","635"
"19","19","encoding","encoding","116","Celery.jpg","3",".","36","0","508"
"19","19","encoding","encoding","117","Toy_Dog.jpg","3",".","37","0","551"
"19","19","encoding","encoding","118","NailFiles.jpg","3",".","37","0","447"
"19","19","encoding","encoding","119","Toy_Firetruck.jpg","3",".","37","0","363"
"19","19","encoding","encoding","120","Mitt_Blue.jpg","3",".","37","0","463"
"19","19","encoding","encoding","121","Ostrich.jpg","1",".","37","0","428"
"19","19","encoding","encoding","122","LintRemover.jpg","3",".","37","0","846"
"19","19","encoding","encoding","123","Nail.jpg","3",".","37","0","509"
"19","19","encoding","encoding","124","LeafBlower.jpg","1",".","37","0","401"
"19","19","encoding","encoding","125","Piano_Upright.jpg","3",".","37","0","302"
"19","19","encoding","encoding","126","Pretzel_Sticks.jpg","3",".","37","0","361"
"19","19","encoding","encoding","127","Card_TwoSpade.jpg","3",".","37","0","963"
"19","19","encoding","encoding","128","Heater_ElectricUpright.jpg","1",".","37","0","397"
"19","19","encoding","encoding","129","Protractor.jpg","3",".","0","0","1000"
"19","19","encoding","encoding","130","Drum_Ramadan.jpg","3",".","37","0","532"
"19","19","encoding","encoding","131","Lynx.jpg","1",".","36","0","730"
"19","19","encoding","encoding","133","Glasses_Sun.jpg","3",".","0","0","1000"
"19","19","encoding","encoding","134","DeepFryer.jpg","3",".","0","0","1000"
"19","19","encoding","encoding","135","Airplane_Small.jpg","3",".","0","0","1000"
"19","19","encoding","encoding","136","Toy_Rooster.jpg","3",".","37","0","907"
"19","19","encoding","encoding","137","VacuumHose.jpg","3",".","37","0","479"
"19","19","encoding","encoding","138","TowelRack_Brown.jpg","1",".","37","0","298"
"19","19","encoding","encoding","139","Cloud.jpg","3",".","37","0","187"
"19","19","encoding","encoding","140","Lips_Wax.jpg","3",".","37","0","326"
"19","19","encoding","encoding","141","Box_Cutlery.jpg","3",".","37","0","401"
"19","19","encoding","encoding","142","Celery.jpg","3",".","37","0","355"
"19","19","encoding","encoding","143","Drum_Ramadan.jpg","3",".","37","0","691"
"19","19","encoding","encoding","144","Hat_Feather.jpg","3",".","37","0","574"
"19","19","encoding","encoding","145","Garlic_Clove.jpg","3",".","36","0","473"
"19","19","encoding","encoding","146","Seeder.jpg","3",".","37","0","739"
"19","19","encoding","encoding","147","Level.jpg","3",".","37","0","805"
"19","19","encoding","encoding","148","Coral.jpg","1",".","37","0","513"
"19","19","encoding","encoding","149","Lobster.jpg","1",".","36","0","593"
"19","19","encoding","encoding","150","Bagpipes.jpg","3",".","37","0","633"
"19","19","encoding","encoding","151","Makeup_Bag.jpg","3",".","37","0","411"
"19","19","encoding","encoding","152","IceCubes.jpg","3",".","37","0","477"
"19","19","encoding","encoding","153","Card_Deck.jpg","3",".","37","0","580"
"19","19","encoding","encoding","154","Golf_Club.jpg","3",".","37","0","489"
"19","19","encoding","encoding","155","Makeup_Bag.jpg","3",".","37","0","682"
"19","19","encoding","encoding","156","PaperCutter.jpg","3",".","37","0","676"
"19","19","encoding","encoding","157","Shoes_Mould.jpg","1",".","37","0","385"
"19","19","encoding","encoding","158","Toy_Wooden rings.jpg","3",".","37","0","487"
"19","19","encoding","encoding","159","Sign_SlipperyRoad.jpg","1",".","37","0","332"
"19","19","encoding","encoding","160","Pear_Green.jpg","1",".","37","0","319"
"19","19","encoding","encoding","161","WaterCooler.jpg","1",".","37","0","358"
"19","19","encoding","encoding","162","Scorpion.jpg","1",".","37","0","403"
"19","19","encoding","encoding","163","Mat_Bamboo.jpg","1",".","36","0","292"
"19","19","encoding","encoding","164","ClothesDryingRack.jpg","3",".","37","0","605"
"19","19","encoding","encoding","165","Toy_Rooster.jpg","3",".","37","0","440"
"19","19","encoding","encoding","166","ComputerKey_Escape.jpg","3",".","37","0","702"
"19","19","encoding","encoding","167","Golf_Club.jpg","3",".","37","0","514"
"19","19","encoding","encoding","168","GrillRack.jpg","3",".","37","0","570"
"19","19","encoding","encoding","169","Desk_Office.jpg","1",".","37","0","735"
"19","19","encoding","encoding","170","Camera_Video.jpg","3",".","36","0","899"
"19","19","encoding","encoding","171","VacuumHose.jpg","3",".","37","0","217"
"19","19","encoding","encoding","172","Toy_BearBrownPlushie.jpg","1",".","37","0","568"
"19","19","encoding","encoding","173","Bowl_Chopsticks.jpg","3",".","37","0","447"
"19","19","encoding","encoding","174","HairClipper.jpg","3",".","0","0","1000"
"19","19","encoding","encoding","175","MortarPestle_WhiteMarble.jpg","3",".","37","0","988"
"19","19","encoding","encoding","176","SaladCaesar.jpg","3",".","0","0","1000"
"19","19","encoding","encoding","177","Car_Buggy.jpg","3",".","0","0","1000"
"19","19","encoding","encoding","178","ComputerKey_Escape.jpg","3",".","37","0","449"
"19","19","encoding","encoding","179","Hat_Police.jpg","3",".","37","0","626"
"19","19","encoding","encoding","180","SoapDish.jpg","3",".","37","0","268"
"19","19","encoding","encoding","181","Golf_Club.jpg","3",".","0","0","1000"
"19","19","encoding","encoding","182","Sink_Kitchen.jpg","3",".","37","0","728"
"19","19","encoding","encoding","183","Protractor.jpg","3",".","37","0","332"
"19","19","encoding","encoding","184","Dice.jpg","3",".","37","0","429"
"19","19","encoding","encoding","185","Seeder.jpg","3",".","37","0","403"
"19","19","encoding","encoding","186","Camera_Video.jpg","3",".","37","0","119"
"19","19","encoding","encoding","187","Computer_ExpansionCard.jpg","1",".","0","0","1000"
"19","19","encoding","encoding","188","OperaGlasses.jpg","3",".","37","0","594"
"19","19","encoding","encoding","189","Makeup_Bag.jpg","3",".","37","0","308"
"19","19","encoding","encoding","190","Paddle_Canoe.jpg","1",".","0","0","1000"
"19","19","encoding","encoding","191","Shrimp.jpg","3",".","36","0","698"
"19","19","encoding","encoding","192","Squash_Butternut.jpg","1",".","36","0","580"
"19","19","encoding","encoding","193","PaperTowel_Brown.jpg","3",".","0","0","1000"
"19","19","encoding","encoding","194","FuzzyDice.jpg","3",".","37","0","758"
"19","19","encoding","encoding","195","Hat_Feather.jpg","3",".","37","0","774"
"19","19","encoding","encoding","196","Case_CD.jpg","1",".","37","0","645"
"19","19","encoding","encoding","197","Card_TwoSpade.jpg","3",".","37","0","552"
"19","19","encoding","encoding","199","PersonWooden.jpg","3",".","37","0","651"
"19","19","encoding","encoding","200","Garlic_Clove.jpg","3",".","37","0","416"
"19","19","encoding","encoding","201","Bagpipes.jpg","3",".","37","0","629"
"19","19","encoding","encoding","202","Shrimp.jpg","3",".","36","0","673"
"19","19","encoding","encoding","203","Balcony.jpg","1",".","37","0","637"
"19","19","encoding","encoding","204","PumpBreast.jpg","3",".","37","0","705"
"19","19","encoding","encoding","205","Airplane_Small.jpg","3",".","37","0","449"
"19","19","encoding","encoding","206","CarLighter.jpg","3",".","37","0","407"
"19","19","encoding","encoding","207","Tray_Medical.jpg","3",".","37","0","378"
"19","19","encoding","encoding","208","Puzzle_Animal.jpg","3",".","37","0","280"
"19","19","encoding","encoding","209","Bagpipes.jpg","3",".","37","0","151"
"19","19","encoding","encoding","210","PaperTowel_Brown.jpg","3",".","37","0","230"
"19","19","encoding","encoding","211","IroningBoard.jpg","3",".","37","0","389"
"19","19","encoding","encoding","212","Speakers_Theatre.jpg","3",".","37","0","270"
"19","19","encoding","encoding","213","Snorkle.jpg","3",".","0","0","1000"
"19","19","encoding","encoding","214","Nail.jpg","3",".","37","0","655"
"19","19","encoding","encoding","215","Bowl_Chopsticks.jpg","3",".","37","0","329"
"19","19","encoding","encoding","216","Drum_Ramadan.jpg","3",".","37","0","382"
"19","19","encoding","encoding","217","ClothesDryingRack.jpg","3",".","0","0","1000"
"19","19","encoding","encoding","218","Sink_Kitchen.jpg","3",".","37","0","706"
"19","19","encoding","encoding","219","Pretzel_Sticks.jpg","3",".","37","0","416"
"19","19","encoding","encoding","220","ClothesDryingRack.jpg","3",".","37","0","668"
"19","19","encoding","encoding","221","Protractor.jpg","3",".","37","0","456"
"19","19","encoding","encoding","222","Snorkle.jpg","3",".","37","0","306"
"19","19","encoding","encoding","223","Snorkle.jpg","3",".","37","0","342"
"19","19","encoding","encoding","224","VinylRecord.jpg","3",".","37","0","422"
"19","19","encoding","encoding","225","Bus_DoubleDecker.jpg","1",".","37","0","399"
"19","19","encoding","encoding","226","LintRemover.jpg","3",".","37","0","385"
"19","19","encoding","encoding","227","SaladCaesar.jpg","3",".","36","0","571"
"19","19","encoding","encoding","228","Puzzle_Animal.jpg","3",".","37","0","633"
"19","19","encoding","encoding","229","BowlingPin.jpg","1",".","37","0","531"
"19","19","encoding","encoding","230","CarLighter.jpg","3",".","37","0","469"
"19","19","encoding","encoding","231","CDstack.jpg","3",".","37","0","421"
"19","19","encoding","encoding","232","Mask_VenetianCat.jpg","3",".","37","0","566"
"19","19","encoding","encoding","233","Paddle_Ball.jpg","1",".","37","0","401"
"19","19","encoding","encoding","234","Stick_IceHockey.jpg","3",".","37","0","326"
"19","19","encoding","encoding","235","Fan_Straw.jpg","3",".","37","0","261"
"19","19","encoding","encoding","236","OperaGlasses.jpg","3",".","37","0","349"
"19","19","encoding","encoding","237","IceCubes.jpg","3",".","37","0","278"
"19","19","encoding","encoding","238","Bicycle_Kids.jpg","3",".","37","0","782"
"19","19","encoding","encoding","239","Card_Deck.jpg","3",".","37","0","419"
"19","19","encoding","encoding","240","Dragonfly.jpg","1",".","36","0","590"
"19","19","encoding","encoding","241","GrillRack.jpg","3",".","37","0","546"
"19","19","encoding","encoding","242","Cloud.jpg","3",".","36","0","617"
"19","19","encoding","encoding","243","Toy_Taxi.jpg","3",".","37","0","445"
"19","19","encoding","encoding","244","Hat_Police.jpg","3",".","37","0","459"
"19","19","encoding","encoding","245","Bicycle_Kids.jpg","3",".","37","0","473"
"19","19","encoding","encoding","246","Clippers_Glass.jpg","1",".","37","0","370"
"19","19","encoding","encoding","247","IroningBoard.jpg","3",".","37","0","563"
"19","19","encoding","encoding","248","Toy_Bat.jpg","3",".","37","0","276"
"19","19","encoding","encoding","249","Blueberry.jpg","1",".","36","0","536"
"19","19","encoding","encoding","250","Dog_Bulldog.jpg","1",".","36","0","519"
"19","19","encoding","encoding","251","Tape_Dispenser.jpg","1",".","37","0","453"
"19","19","encoding","encoding","252","Heater_Outdoor.jpg","1",".","37","0","338"
"19","19","encoding","encoding","253","Candleholder_LampShaped.jpg","3",".","37","0","247"
"19","19","encoding","encoding","254","Suit_Women.jpg","3",".","0","0","1000"
"19","19","encoding","encoding","255","Clamp_Screw.jpg","3",".","0","0","1000"
"19","19","encoding","encoding","256","ColoringSet.jpg","3",".","37","0","580"
"19","19","encoding","encoding","257","ComputerKey_Escape.jpg","3",".","37","0","259"
"19","19","encoding","encoding","258","DonaldDuck_Toy.jpg","3",".","37","0","449"
"19","19","encoding","encoding","259","ShinPads.jpg","1",".","37","0","435"
"19","19","encoding","encoding","260","LintRemover.jpg","3",".","37","0","490"
"19","19","encoding","encoding","261","Candleholder_LampShaped.jpg","3",".","37","0","403"
"19","19","encoding","encoding","262","Mask_VenetianCat.jpg","3",".","37","0","442"
"19","19","encoding","encoding","263","FlintIgniter.jpg","1",".","37","0","394"
"19","19","encoding","encoding","265","Glasses_Sun.jpg","3",".","37","0","651"
"19","19","encoding","encoding","266","TelescopeSpacecraft.jpg","3",".","37","0","966"
"19","19","encoding","encoding","267","Puzzle_Animal.jpg","3",".","37","0","599"
"19","19","encoding","encoding","268","SnowmanDecor.jpg","3",".","37","0","828"
"19","19","encoding","encoding","269","Airplane_Small.jpg","3",".","37","0","820"
"19","19","encoding","encoding","270","Glove_Baseball.jpg","3",".","0","0","1000"
"19","19","encoding","encoding","271","Neckrest.jpg","1",".","0","0","1000"
"19","19","encoding","encoding","272","Clamp_Screw.jpg","3",".","0","0","1000"
"19","19","encoding","encoding","273","Mitt_Blue.jpg","3",".","37","0","720"
"19","19","encoding","encoding","274","VacuumHose.jpg","3",".","37","0","875"
"19","19","encoding","encoding","275","Pasta_Fettuccine.jpg","1",".","37","0","692"
"19","19","encoding","encoding","276","Mitt_Blue.jpg","3",".","37","0","475"
"19","19","encoding","encoding","277","Toy_Taxi.jpg","3",".","37","0","440"
"19","19","encoding","encoding","278","Toy_Wooden rings.jpg","3",".","0","0","1000"
"19","19","encoding","encoding","279","HairClipper.jpg","3",".","0","0","1000"
"19","19","encoding","encoding","280","Camera_Video.jpg","3",".","0","0","1000"
"19","19","encoding","encoding","281","Tray_Medical.jpg","3",".","37","0","48"
"19","19","encoding","encoding","282","Match.jpg","1",".","37","0","18"
"19","19","encoding","encoding","283","SoapDish.jpg","3",".","37","0","232"
"19","19","encoding","encoding","284","Stick_IceHockey.jpg","3",".","37","0","602"
"19","19","encoding","encoding","285","Walkman.jpg","1",".","37","0","953"
"19","19","encoding","encoding","286","Dice.jpg","3",".","0","0","1000"
"19","19","encoding","encoding","287","Sandwich_Ham.jpg","3",".","0","0","1000"
"19","19","encoding","encoding","288","Notepad.jpg","1",".","0","0","1000"
"19","19","encoding","encoding","289","Dropper.jpg","3",".","37","0","137"
"19","19","encoding","encoding","290","Snowpea.jpg","3",".","37","0","435"
"19","19","encoding","encoding","291","Cologne.jpg","3",".","37","0","806"
"19","19","encoding","encoding","292","VinylRecord.jpg","3",".","37","0","870"
"19","19","encoding","encoding","293","Shirt_Tshirt.jpg","1",".","37","0","741"
"19","19","encoding","encoding","294","Toy_TrailerAirport.jpg","1",".","37","0","546"
"19","19","encoding","encoding","295","Glove_Baseball.jpg","3",".","37","0","460"
"19","19","encoding","encoding","296","WaterHeater.jpg","1",".","37","0","239"
"19","19","encoding","encoding","297","Celery.jpg","3",".","37","0","85"
"19","19","encoding","encoding","298","CDstack.jpg","3",".","37","0","82"
"19","19","encoding","encoding","299","Tray_Metal.jpg","1",".","0","0","1000"
"19","19","encoding","encoding","300","PumpBreast.jpg","3",".","36","0","65"
"19","19","encoding","encoding","301","Fan_Straw.jpg","3",".","0","0","1000"
"19","19","encoding","encoding","302","Coin.jpg","1",".","36","0","593"
"19","19","encoding","encoding","303","Barrel_Wine.jpg","1",".","37","0","36"
"19","19","encoding","encoding","304","Box_Cutlery.jpg","3",".","0","0","1000"
"19","19","encoding","encoding","305","Level.jpg","3",".","37","0","172"
"19","19","encoding","encoding","306","Glasses_Sun.jpg","3",".","0","0","1000"
"19","19","encoding","encoding","307","Fan_Straw.jpg","3",".","37","0","138"
"19","19","encoding","encoding","308","PaperCutter.jpg","3",".","37","0","139"
"19","19","encoding","encoding","309","Glove_Baseball.jpg","3",".","37","0","836"
"19","19","encoding","encoding","310","TreeStump.jpg","1",".","0","0","1000"
"19","19","encoding","encoding","311","Toy_DonkeyFur.jpg","1",".","0","0","1000"
"19","19","encoding","encoding","312","Toy_Christmastree.jpg","1",".","37","0","907"
"19","19","encoding","encoding","313","ColoringSet.jpg","3",".","37","0","531"
"19","19","encoding","encoding","314","Toy_Dog.jpg","3",".","37","0","798"
"19","19","encoding","encoding","315","EyeChart.jpg","3",".","37","0","573"
"19","19","encoding","encoding","316","NailFiles.jpg","3",".","37","0","623"
"19","19","encoding","encoding","317","GrillRack.jpg","3",".","0","0","1000"
"19","19","encoding","encoding","318","Level.jpg","3",".","37","0","856"
"19","19","encoding","encoding","319","Hat_Police.jpg","3",".","37","0","609"
"19","19","encoding","encoding","320","Dropper.jpg","3",".","37","0","455"
"19","19","encoding","encoding","321","DeepFryer.jpg","3",".","37","0","78"
"19","19","encoding","encoding","322","ShoeLace_Flat.jpg","1",".","0","0","1000"
"19","19","encoding","encoding","323","EyeChart.jpg","3",".","0","0","1000"
"19","19","encoding","encoding","324","Stool_Camping.jpg","3",".","37","0","914"
"19","19","encoding","encoding","325","DeepFryer.jpg","",".","37","0","637"
"19","19","retrieval","old_object","1","Sign_SlipperyRoad.jpg",".","1","36","1","1205"
"19","19","retrieval","new_object","2","Toolbox_BlackOpen.jpg",".",".","36","0","1334"
"19","19","retrieval","old_object","3","Tray_Medical.jpg",".","3","36","1","872"
"19","19","retrieval","new_object","4","Platter_Vegetables.jpg",".",".","37","1","1037"
"19","19","retrieval","old_object","5","Box_Cutlery.jpg",".","3","36","1","1316"
"19","19","retrieval","old_object","6","Snowpea.jpg",".","3","36","1","758"
"19","19","retrieval","old_object","7","GrillRack.jpg",".","3","37","0","1230"
"19","19","retrieval","old_object","8","ShinPads.jpg",".","1","36","1","833"
"19","19","retrieval","old_object","9","Box_WoodCrate.jpg",".","1","36","1","1274"
"19","19","retrieval","new_object","10","Binder.jpg",".",".","37","1","622"
"19","19","retrieval","new_object","11","Brush_Light.jpg",".",".","37","1","711"
"19","19","retrieval","old_object","12","Cheeseburger.jpg",".","1","36","1","1228"
"19","19","retrieval","new_object","13","Ladybug.jpg",".",".","37","1","1441"
"19","19","retrieval","old_object","14","Boar.jpg",".","1","36","1","1187"
"19","19","retrieval","old_object","15","PowderProtein.jpg",".","1","36","1","1048"
"19","19","retrieval","new_object","16","Nuts_Pecan.jpg",".",".","37","1","836"
"19","19","retrieval","new_object","17","Lighter_Black.jpg",".",".","37","1","763"
"19","19","retrieval","old_object","18","Shrimp.jpg",".","3","36","1","730"
"19","19","retrieval","new_object","19","Cymbals.jpg",".",".","37","1","920"
"19","19","retrieval","new_object","20","Crab.jpg",".",".","37","1","1330"
"19","19","retrieval","old_object","21","Shirt_Tshirt.jpg",".","1","37","0","1437"
"19","19","retrieval","new_object","22","Toy_Truck.jpg",".",".","36","0","734"
"19","19","retrieval","old_object","23","Puzzle_Animal.jpg",".","3","36","1","1779"
"19","19","retrieval","new_object","24","DartBoard.jpg",".",".","37","1","1868"
"19","19","retrieval","new_object","25","Bread_Loaf.jpg",".",".","36","0","1255"
"19","19","retrieval","old_object","26","Clippers_Glass.jpg",".","1","36","1","1200"
"19","19","retrieval","new_object","27","Hubcap.jpg",".",".","37","1","854"
"19","19","retrieval","new_object","28","Table_Saw.jpg",".",".","37","1","611"
"19","19","retrieval","old_object","29","BowlingPin.jpg",".","1","37","0","1062"
"19","19","retrieval","old_object","30","Broccoli.jpg",".","1","36","1","826"
"19","19","retrieval","old_object","31","Toy_BearBrownPlushie.jpg",".","1","36","1","755"
"19","19","retrieval","new_object","32","Stone_AncientWriting.jpg",".",".","36","0","469"
"19","19","retrieval","old_object","33","Suitcase.jpg",".","1","37","0","457"
"19","19","retrieval","new_object","34","IceCream_Popsicle.jpg",".",".","37","1","1694"
"19","19","retrieval","old_object","35","Toy_Rooster.jpg",".","3","36","1","911"
"19","19","retrieval","old_object","36","Suit_Women.jpg",".","3","36","1","850"
"19","19","retrieval","new_object","37","CarSuspension.jpg",".",".","37","1","1290"
"19","19","retrieval","new_object","38","Cinnamonroll.jpg",".",".","37","1","886"
"19","19","retrieval","new_object","39","Box_FirstAid.jpg",".",".","37","1","743"
"19","19","retrieval","old_object","40","PaperCutter.jpg",".","3","36","1","1107"
"19","19","retrieval","old_object","41","Toy_Ladybug.jpg",".","1","36","1","1845"
"19","19","retrieval","new_object","42","Bread_Roll.jpg",".",".","37","1","988"
"19","19","retrieval","old_object","43","Carrot.jpg",".","1","37","0","1030"
"19","19","retrieval","new_object","44","PagodaModel.jpg",".",".","37","1","708"
"19","19","retrieval","old_object","45","Hat_Police.jpg",".","3","36","1","731"
"19","19","retrieval","old_object","46","Coral.jpg",".","1","37","0","793"
"19","19","retrieval","new_object","47","Candy_Toffee.jpg",".",".","37","1","719"
"19","19","retrieval","new_object","48","PumiceStone.jpg",".",".","37","1","830"
"19","19","retrieval","old_object","49","Sphinx.jpg",".","1","37","0","913"
"19","19","retrieval","old_object","50","VinylRecord.jpg",".","3","37","0","758"
"19","19","retrieval","new_object","51","Earring_Hoop.jpg",".",".","37","1","576"
"19","19","retrieval","new_object","52","Helmet_Motorcycle.jpg",".",".","37","1","627"
"19","19","retrieval","old_object","53","Shovel_Garden.jpg",".","1","37","0","1225"
"19","19","retrieval","old_object","54","Hat_Feather.jpg",".","3","36","1","552"
"19","19","retrieval","new_object","55","Corkboard.jpg",".",".","37","1","581"
"19","19","retrieval","old_object","56","FuzzyDice.jpg",".","3","36","1","768"
"19","19","retrieval","new_object","57","PulleyWooden.jpg",".",".","37","1","1419"
"19","19","retrieval","old_object","58","Stick_Stirring.jpg",".","1","37","0","987"
"19","19","retrieval","new_object","59","Can_Oblong.jpg",".",".","37","1","1381"
"19","19","retrieval","old_object","60","Pasta_Fettuccine.jpg",".","1","36","1","964"
"19","19","retrieval","new_object","61","Heelpad.jpg",".",".","37","1","761"
"19","19","retrieval","old_object","62","HairClipper.jpg",".","3","36","1","1019"
"19","19","retrieval","old_object","63","Golf_Club.jpg",".","3","36","1","932"
"19","19","retrieval","old_object","64","Lobster.jpg",".","1","36","1","640"
"19","19","retrieval","old_object","65","Garlic_Clove.jpg",".","3","36","1","785"
"19","19","retrieval","new_object","67","Television.jpg",".",".","37","1","891"
"19","19","retrieval","new_object","68","ProjectorScreen.jpg",".",".","37","1","973"
"19","19","retrieval","old_object","69","Coin.jpg",".","1","36","1","551"
"19","19","retrieval","old_object","70","Pouch_Red.jpg",".","1","36","1","679"
"19","19","retrieval","new_object","71","Jar_Honey.jpg",".",".","36","0","1096"
"19","19","retrieval","new_object","72","AirPump.jpg",".",".","37","1","1425"
"19","19","retrieval","new_object","73","SewingPin_Cushion.jpg",".",".","37","1","638"
"19","19","retrieval","old_object","74","Glove_Baseball.jpg",".","3","37","0","1102"
"19","19","retrieval","old_object","75","Card_TwoSpade.jpg",".","3","36","1","652"
"19","19","retrieval","old_object","76","SnowmanDecor.jpg",".","3","36","1","799"
"19","19","retrieval","new_object","77","Mailbox_Antique.jpg",".",".","37","1","807"
"19","19","retrieval","old_object","78","Walkman.jpg",".","1","37","0","593"
"19","19","retrieval","old_object","79","Seeder.jpg",".","3","36","1","682"
"19","19","retrieval","old_object","80","TelescopeSpacecraft.jpg",".","3","36","1","825"
"19","19","retrieval","new_object","81","Bark.jpg",".",".","37","1","913"
"19","19","retrieval","new_object","82","Hat_Colonial.jpg",".",".","37","1","1176"
"19","19","retrieval","old_object","83","Toy_Wooden rings.jpg",".","3","36","1","781"
"19","19","retrieval","old_object","84","Mat_Bamboo.jpg",".","1","36","1","1359"
"19","19","retrieval","old_object","85","WaterHeater.jpg",".","1","36","1","1148"
"19","19","retrieval","old_object","86","Squash_Butternut.jpg",".","1","36","1","770"
"19","19","retrieval","new_object","87","Helmet_Football.jpg",".",".","37","1","1341"
"19","19","retrieval","new_object","88","Toy_MerryGoRound.jpg",".",".","37","1","982"
"19","19","retrieval","old_object","89","Ostrich.jpg",".","1","36","1","856"
"19","19","retrieval","old_object","90","Piano_Upright.jpg",".","3","37","0","509"
"19","19","retrieval","new_object","91","Light_Studio.jpg",".",".","37","1","1306"
"19","19","retrieval","old_object","92","IceCubes.jpg",".","3","37","0","549"
"19","19","retrieval","old_object","93","RadioactiveContainer.jpg",".","1","36","1","1057"
"19","19","retrieval","new_object","94","AirCompressor.jpg",".",".","36","0","681"
"19","19","retrieval","old_object","95","Pear_Green.jpg",".","1","37","0","1086"
"19","19","retrieval","old_object","96","Toy_Christmastree.jpg",".","1","36","1","1244"
"19","19","retrieval","new_object","97","Hockey_Puck.jpg",".",".","37","1","925"
"19","19","retrieval","new_object","98","Microwave.jpg",".",".","37","1","1139"
"19","19","retrieval","new_object","99","Flags_CheckeredRacing.jpg",".",".","37","1","950"
"19","19","retrieval","old_object","100","Card_Deck.jpg",".","3","37","0","533"
"19","19","retrieval","old_object","101","Stool_Camping.jpg",".","3","37","0","916"
"19","19","retrieval","old_object","102","Cloud.jpg",".","3","36","1","742"
"19","19","retrieval","old_object","103","TreeStump.jpg",".","1","36","1","358"
"19","19","retrieval","old_object","104","Sink_Kitchen.jpg",".","3","36","1","1892"
"19","19","retrieval","new_object","105","Case_Pencil.jpg",".",".","37","1","1042"
"19","19","retrieval","new_object","106","Mug_Travel.jpg",".",".","37","1","863"
"19","19","retrieval","new_object","107","Cart_Janitor.jpg",".",".","0","0","2000"
"19","19","retrieval","old_object","108","NailFiles.jpg",".","3","0","0","2000"
"19","19","retrieval","old_object","109","Sandwich_Ham.jpg",".","3","36","1","1156"
"19","19","retrieval","new_object","110","Bowl_Glass.jpg",".",".","36","0","1454"
"19","19","retrieval","new_object","111","Stool_Metal.jpg",".",".","37","1","1943"
"19","19","retrieval","old_object","112","Neckrest.jpg",".","1","36","1","1191"
"19","19","retrieval","new_object","113","Light_Halogen.jpg",".",".","37","1","952"
"19","19","retrieval","new_object","114","Tree_Fir.jpg",".",".","37","1","855"
"19","19","retrieval","old_object","115","Barrel_Wine.jpg",".","1","37","0","476"
"19","19","retrieval","new_object","116","Lollipop_Rainbow.jpg",".",".","37","1","836"
"19","19","retrieval","new_object","117","Barometer_Wood.jpg",".",".","37","1","681"
"19","19","retrieval","old_object","118","Camera_Video.jpg",".","3","36","1","476"
"19","19","retrieval","old_object","119","ShoeLace_Flat.jpg",".","1","37","0","384"
"19","19","retrieval","old_object","120","Dragonfly.jpg",".","1","36","1","844"
"19","19","retrieval","old_object","121","Fan_Straw.jpg",".","3","37","0","900"
"19","19","retrieval","new_object","122","Stove_WithOven.jpg",".",".","37","1","585"
"19","19","retrieval","old_object","123","Heater_ElectricUpright.jpg",".","1","37","0","655"
"19","19","retrieval","old_object","124","Bucket_WoodenLight.jpg",".","1","37","0","490"
"19","19","retrieval","old_object","125","Toy_DonkeyFur.jpg",".","1","37","0","225"
"19","19","retrieval","new_object","126","Bat_Cricket.jpg",".",".","36","0","646"
"19","19","retrieval","new_object","127","Toy_Lizard.jpg",".",".","37","1","1245"
"19","19","retrieval","old_object","128","Celery.jpg",".","3","36","1","576"
"19","19","retrieval","new_object","129","Amp.jpg",".",".","36","0","1058"
"19","19","retrieval","new_object","130","Bucket_Halloween.jpg",".",".","37","1","1298"
"19","19","retrieval","new_object","131","Branch.jpg",".",".","0","0","2000"
"19","19","retrieval","new_object","133","Candy_Lozenge.jpg",".",".","37","1","920"
"19","19","retrieval","new_object","134","Cable_JumpStart.jpg",".",".","37","1","653"
"19","19","retrieval","new_object","135","Bus_School.jpg",".",".","37","1","430"
"19","19","retrieval","new_object","136","Clock_Interior.jpg",".",".","37","1","684"
"19","19","retrieval","new_object","137","Compact_Mirror.jpg",".",".","37","1","728"
"19","19","retrieval","old_object","138","VacuumHose.jpg",".","3","37","0","561"
"19","19","retrieval","new_object","139","CoffeeLid.jpg",".",".","37","1","584"
"19","19","retrieval","new_object","140","Bone.jpg",".",".","37","1","774"
"19","19","retrieval","old_object","141","DeepFryer.jpg",".","3","36","1","1596"
"19","19","retrieval","new_object","142","Fork_Regular.jpg",".",".","37","1","1114"
"19","19","retrieval","old_object","143","Blueberry.jpg",".","1","36","1","1073"
"19","19","retrieval","old_object","144","Canister_Tea.jpg",".","1","36","1","750"
"19","19","retrieval","old_object","145","BrainSagittal.jpg",".","1","36","1","818"
"19","19","retrieval","new_object","146","PyramidWooden.jpg",".",".","36","0","772"
"19","19","retrieval","old_object","147","Bicycle_Kids.jpg",".","3","36","1","725"
"19","19","retrieval","new_object","148","SatelliteDish.jpg",".",".","37","1","941"
"19","19","retrieval","old_object","149","Stone_Spa.jpg",".","1","36","1","1535"
"19","19","retrieval","new_object","150","Garlic_Whole.jpg",".",".","36","0","684"
"19","19","retrieval","old_object","151","Shoes_Mould.jpg",".","1","37","0","608"
"19","19","retrieval","old_object","152","Level.jpg",".","3","37","0","650"
"19","19","retrieval","new_object","153","Spatula.jpg",".",".","36","0","624"
"19","19","retrieval","old_object","154","Airplane_Small.jpg",".","3","36","1","826"
"19","19","retrieval","old_object","155","Stick_IceHockey.jpg",".","3","36","1","739"
"19","19","retrieval","old_object","156","DonaldDuck_Toy.jpg",".","3","36","1","788"
"19","19","retrieval","old_object","157","Candleholder_LampShaped.jpg",".","3","36","1","632"
"19","19","retrieval","new_object","158","Bible.jpg",".",".","36","0","766"
"19","19","retrieval","old_object","159","Paddle_Ball.jpg",".","1","36","1","721"
"19","19","retrieval","old_object","160","Clamp_Screw.jpg",".","3","36","1","457"
"19","19","retrieval","new_object","161","LifeJacket_Orangejpg.jpg",".",".","36","0","373"
"19","19","retrieval","old_object","162","Paddle_Canoe.jpg",".","1","37","0","739"
"19","19","retrieval","old_object","163","Bagpipes.jpg",".","3","37","0","644"
"19","19","retrieval","new_object","164","Canister_Oil.jpg",".",".","37","1","842"
"19","19","retrieval","new_object","165","PencilCase.jpg",".",".","37","1","647"
"19","19","retrieval","new_object","166","Thermometer_Room.jpg",".",".","36","0","809"
"19","19","retrieval","old_object","167","Case_CD.jpg",".","1","37","0","1475"
"19","19","retrieval","new_object","168","Umbrella_Classic.jpg",".",".","37","1","795"
"19","19","retrieval","old_object","169","OperaGlasses.jpg",".","3","37","0","677"
"19","19","retrieval","new_object","170","Cannon.jpg",".",".","37","1","1304"
"19","19","retrieval","new_object","171","Carabiner_Orange.jpg",".",".","37","1","745"
"19","19","retrieval","new_object","172","Bread_Carrot.jpg",".",".","36","0","718"
"19","19","retrieval","old_object","173","LeafBlower.jpg",".","1","0","0","2000"
"19","19","retrieval","old_object","174","Pyramid.jpg",".","1","36","1","417"
"19","19","retrieval","new_object","175","Wontons.jpg",".",".","37","1","1616"
"19","19","retrieval","old_object","176","CarLighter.jpg",".","3","37","0","1105"
"19","19","retrieval","old_object","177","PumpBreast.jpg",".","3","37","0","553"
"19","19","retrieval","new_object","178","Toy_PandaPlushie.jpg",".",".","37","1","840"
"19","19","retrieval","old_object","179","Otoscope.jpg",".","1","37","0","615"
"19","19","retrieval","new_object","180","Aquarium.jpg",".",".","36","0","298"
"19","19","retrieval","old_object","181","Dice.jpg",".","3","37","0","195"
"19","19","retrieval","old_object","182","Bowl_Chopsticks.jpg",".","3","36","1","753"
"19","19","retrieval","old_object","183","Desk_Office.jpg",".","1","36","1","833"
"19","19","retrieval","new_object","184","Cassette_Video.jpg",".",".","37","1","816"
"19","19","retrieval","new_object","185","PocketKnife.jpg",".",".","37","1","693"
"19","19","retrieval","old_object","186","Jars_PetFood.jpg",".","1","37","0","325"
"19","19","retrieval","old_object","187","WaterCooler.jpg",".","1","37","0","704"
"19","19","retrieval","old_object","188","IroningBoard.jpg",".","3","36","1","348"
"19","19","retrieval","old_object","189","Nail.jpg",".","3","36","1","491"
"19","19","retrieval","new_object","190","Cake_Cheese.jpg",".",".","37","1","575"
"19","19","retrieval","new_object","191","TortillaChip.jpg",".",".","37","1","597"
"19","19","retrieval","old_object","192","Glasses_Sun.jpg",".","3","37","0","503"
"19","19","retrieval","new_object","193","SofaAntique.jpg",".",".","37","1","410"
"19","19","retrieval","old_object","194","TowelRack_Metal.jpg",".","1","37","0","839"
"19","19","retrieval","new_object","195","Glass_Beer.jpg",".",".","37","1","723"
"19","19","retrieval","new_object","196","Spear.jpg",".",".","37","1","520"
"19","19","retrieval","old_object","197","Lynx.jpg",".","1","36","1","213"
"19","19","retrieval","new_object","199","Backpack_Suitcase.jpg",".",".","37","1","462"
"19","19","retrieval","new_object","200","MechanicalSpring.jpg",".",".","37","1","273"
"19","19","retrieval","old_object","201","Backhoe.jpg",".","1","37","0","395"
"19","19","retrieval","old_object","202","RecorderInstrument.jpg",".","3","37","0","42"
"19","19","retrieval","old_object","203","ClothesDryingRack.jpg",".","3","0","0","2000"
"19","19","retrieval","new_object","204","Cup_Bathroom.jpg",".",".","37","1","137"
"19","19","retrieval","new_object","205","WateringCan_Antique.jpg",".",".","37","1","228"
"19","19","retrieval","old_object","206","Tray_Metal.jpg",".","1","37","0","567"
"19","19","retrieval","old_object","207","SaladCaesar.jpg",".","3","36","1","835"
"19","19","retrieval","old_object","208","Toy_Dog.jpg",".","3","37","0","806"
"19","19","retrieval","new_object","209","SolderingIron.jpg",".",".","37","1","574"
"19","19","retrieval","new_object","210","Briefcase_Silver.jpg",".",".","37","1","24"
"19","19","retrieval","new_object","211","Statue_Man.jpg",".",".","0","0","2000"
"19","19","retrieval","old_object","212","PersonWooden.jpg",".","3","36","1","4"
"19","19","retrieval","new_object","213","Tube_Paint.jpg",".",".","36","0","484"
"19","19","retrieval","new_object","214","TailLight.jpg",".",".","36","0","635"
"19","19","retrieval","old_object","215","Lips_Wax.jpg",".","3","36","1","770"
"19","19","retrieval","old_object","216","CDstack.jpg",".","3","36","1","879"
"19","19","retrieval","new_object","217","Bag_Diaper.jpg",".",".","37","1","804"
"19","19","retrieval","new_object","218","Van.jpg",".",".","37","1","631"
"19","19","retrieval","new_object","219","Mailbox_Community.jpg",".",".","37","1","577"
"19","19","retrieval","new_object","220","Bread_Melon.jpg",".",".","37","1","1109"
"19","19","retrieval","old_object","221","Drum_Ramadan.jpg",".","3","37","0","598"
"19","19","retrieval","new_object","222","Castle_Sand.jpg",".",".","37","1","870"
"19","19","retrieval","new_object","223","HairCurler.jpg",".",".","37","1","384"
"19","19","retrieval","old_object","224","Toy_TrailerAirport.jpg",".","1","37","0","1081"
"19","19","retrieval","old_object","225","Helicopter.jpg",".","1","37","0","926"
"19","19","retrieval","new_object","226","CodeDoorLock.jpg",".",".","37","1","1179"
"19","19","retrieval","old_object","227","Balcony.jpg",".","1","37","0","701"
"19","19","retrieval","old_object","228","Toy_Taxi.jpg",".","3","37","0","638"
"19","19","retrieval","new_object","229","BumperCar.jpg",".",".","37","1","958"
"19","19","retrieval","new_object","230","Carousel.jpg",".",".","37","1","736"
"19","19","retrieval","old_object","231","Flashlight.jpg",".","1","36","1","555"
"19","19","retrieval","old_object","232","Makeup_Bag.jpg",".","3","36","1","1621"
"19","19","retrieval","new_object","233","Lantern_Chinese.jpg",".",".","36","0","762"
"19","19","retrieval","old_object","234","Puffin.jpg",".","1","0","0","2000"
"19","19","retrieval","new_object","235","House_Wooden.jpg",".",".","37","1","738"
"19","19","retrieval","old_object","236","Bus_DoubleDecker.jpg",".","1","37","0","1022"
"19","19","retrieval","old_object","237","Computer_ExpansionCard.jpg",".","1","36","1","866"
"19","19","retrieval","new_object","238","ManholeCover.jpg",".",".","36","0","1287"
"19","19","retrieval","new_object","239","Handbag.jpg",".",".","36","0","753"
"19","19","retrieval","old_object","240","Compressor.jpg",".","1","37","0","429"
"19","19","retrieval","old_object","241","Protractor.jpg",".","3","36","1","911"
"19","19","retrieval","new_object","242","SolderingWire.jpg",".",".","37","1","908"
"19","19","retrieval","new_object","243","Radish.jpg",".",".","37","1","1054"
"19","19","retrieval","new_object","244","Taco.jpg",".",".","37","1","921"
"19","19","retrieval","new_object","245","Hedgehog.jpg",".",".","37","1","716"
"19","19","retrieval","old_object","246","MortarPestle_WhiteMarble.jpg",".","3","36","1","717"
"19","19","retrieval","new_object","247","Arch_Triomphe.jpg",".",".","36","0","1428"
"19","19","retrieval","old_object","248","Mitt_Blue.jpg",".","3","36","1","788"
"19","19","retrieval","new_object","249","FireAlarm.jpg",".",".","37","1","338"
"19","19","retrieval","new_object","250","LicensePlate.jpg",".",".","37","1","386"
