"group","subject","blockcode","trialcode","trialnum","stimulus","encoding_condition","old_object_condition","response","correct","latency"
"35","35","encoding","encoding","1","ReindeerHeadband.jpg","3",".","37","0","595"
"35","35","encoding","encoding","2","Outhouse.jpg","1",".","37","0","529"
"35","35","encoding","encoding","3","Thermos_MetalSleek.jpg","3",".","37","0","474"
"35","35","encoding","encoding","4","Flower_Hibiscus.jpg","3",".","36","0","522"
"35","35","encoding","encoding","5","Caterpillar.jpg","3",".","36","0","531"
"35","35","encoding","encoding","6","CuttingBoard.jpg","1",".","37","0","547"
"35","35","encoding","encoding","7","Strainer_Tea.jpg","3",".","37","0","628"
"35","35","encoding","encoding","8","Fencing_HelmetSwords.jpg","3",".","37","0","573"
"35","35","encoding","encoding","9","Toy_Lighthouse.jpg","3",".","37","0","653"
"35","35","encoding","encoding","10","Flower_Hibiscus.jpg","3",".","36","0","566"
"35","35","encoding","encoding","11","Glass_Cup.jpg","3",".","37","0","550"
"35","35","encoding","encoding","12","Thermos_MetalSleek.jpg","3",".","37","0","504"
"35","35","encoding","encoding","13","Currants.jpg","1",".","36","0","511"
"35","35","encoding","encoding","14","Boxcutter.jpg","3",".","37","0","655"
"35","35","encoding","encoding","15","Cabinet_Office.jpg","3",".","37","0","568"
"35","35","encoding","encoding","16","Loofa.jpg","3",".","37","0","585"
"35","35","encoding","encoding","17","Hammer.jpg","3",".","37","0","626"
"35","35","encoding","encoding","18","Bindings_Snowboard.jpg","3",".","37","0","642"
"35","35","encoding","encoding","19","Hockey_Equipment.jpg","1",".","37","0","530"
"35","35","encoding","encoding","20","SewingMachine.jpg","3",".","37","0","475"
"35","35","encoding","encoding","21","TurkeyDinner.jpg","3",".","36","0","555"
"35","35","encoding","encoding","22","Waffle.jpg","3",".","36","0","692"
"35","35","encoding","encoding","23","Fridge.jpg","3",".","37","0","804"
"35","35","encoding","encoding","24","Hazelnut.jpg","3",".","36","0","812"
"35","35","encoding","encoding","25","Radio_Vintage.jpg","3",".","37","0","765"
"35","35","encoding","encoding","26","KeyHook_Occupied.jpg","3",".","37","0","718"
"35","35","encoding","encoding","27","Hottub.jpg","3",".","37","0","630"
"35","35","encoding","encoding","28","CartonEggs.jpg","3",".","37","0","743"
"35","35","encoding","encoding","29","PaintRoller.jpg","3",".","0","0","1000"
"35","35","encoding","encoding","30","Wheel_Steering.jpg","3",".","37","0","512"
"35","35","encoding","encoding","31","Cannister_Gas.jpg","1",".","37","0","744"
"35","35","encoding","encoding","32","Cage_Bird.jpg","3",".","37","0","697"
"35","35","encoding","encoding","33","Brooch_Fish.jpg","3",".","37","0","649"
"35","35","encoding","encoding","34","Loofa.jpg","3",".","37","0","626"
"35","35","encoding","encoding","35","Clock_Radio.jpg","1",".","37","0","835"
"35","35","encoding","encoding","36","Flower_Orchid.jpg","3",".","36","0","619"
"35","35","encoding","encoding","37","CartonEggs.jpg","3",".","36","0","571"
"35","35","encoding","encoding","38","Can_OilSpout.jpg","3",".","37","0","556"
"35","35","encoding","encoding","39","BoogieBoard.jpg","1",".","37","0","661"
"35","35","encoding","encoding","40","Wheel_Steering.jpg","3",".","37","0","549"
"35","35","encoding","encoding","41","Chinchilla.jpg","3",".","36","0","623"
"35","35","encoding","encoding","42","Microphone.jpg","3",".","37","0","446"
"35","35","encoding","encoding","43","Boxcutter.jpg","3",".","37","0","656"
"35","35","encoding","encoding","44","Sink_Bathroom.jpg","1",".","37","0","535"
"35","35","encoding","encoding","45","Chopsticks.jpg","3",".","37","0","680"
"35","35","encoding","encoding","46","Kite_Rainbow.jpg","1",".","37","0","496"
"35","35","encoding","encoding","47","SafetyPin.jpg","3",".","37","0","481"
"35","35","encoding","encoding","48","PedestalGreek.jpg","1",".","37","0","466"
"35","35","encoding","encoding","49","Bench_Wooden.jpg","3",".","37","0","442"
"35","35","encoding","encoding","50","KeyHook_Occupied.jpg","3",".","37","0","490"
"35","35","encoding","encoding","51","Dress_Blue.jpg","1",".","37","0","507"
"35","35","encoding","encoding","52","Bugle.jpg","3",".","37","0","515"
"35","35","encoding","encoding","53","RibbonSpool.jpg","3",".","37","0","532"
"35","35","encoding","encoding","54","Bottle_BubbleBlower.jpg","1",".","37","0","516"
"35","35","encoding","encoding","55","PropellerFan.jpg","1",".","37","0","588"
"35","35","encoding","encoding","56","HumanSkeleton.jpg","3",".","37","0","637"
"35","35","encoding","encoding","57","Case_DVD.jpg","3",".","0","0","1000"
"35","35","encoding","encoding","58","Bottle_Specimen.jpg","3",".","37","0","663"
"35","35","encoding","encoding","59","SmokingPipe.jpg","3",".","37","0","551"
"35","35","encoding","encoding","60","TurkeyDinner.jpg","3",".","36","0","496"
"35","35","encoding","encoding","61","SkullDeer.jpg","3",".","37","0","896"
"35","35","encoding","encoding","62","Brace_Back.jpg","3",".","37","0","744"
"35","35","encoding","encoding","63","Tweezers.jpg","3",".","37","0","761"
"35","35","encoding","encoding","64","Glass_Cup.jpg","3",".","37","0","585"
"35","35","encoding","encoding","65","Chopsticks.jpg","3",".","37","0","626"
"35","35","encoding","encoding","67","SkullDeer.jpg","3",".","37","0","674"
"35","35","encoding","encoding","68","ShoppingCart.jpg","1",".","37","0","626"
"35","35","encoding","encoding","69","Bomb.jpg","3",".","37","0","802"
"35","35","encoding","encoding","70","Arch.jpg","3",".","37","0","523"
"35","35","encoding","encoding","71","ShearsGarden.jpg","1",".","37","0","539"
"35","35","encoding","encoding","72","Broom_Long.jpg","3",".","37","0","556"
"35","35","encoding","encoding","73","AnsweringMachine.jpg","3",".","37","0","532"
"35","35","encoding","encoding","74","Arch.jpg","3",".","37","0","517"
"35","35","encoding","encoding","75","Thermos_MetalSleek.jpg","3",".","37","0","501"
"35","35","encoding","encoding","76","Brace_Back.jpg","3",".","37","0","574"
"35","35","encoding","encoding","77","Pot_Cooking.jpg","1",".","37","0","558"
"35","35","encoding","encoding","78","Paddle_Beach.jpg","1",".","37","0","543"
"35","35","encoding","encoding","79","Pen_Ballpoint.jpg","1",".","37","0","680"
"35","35","encoding","encoding","80","TireRims.jpg","1",".","37","0","568"
"35","35","encoding","encoding","81","Tape_Washi.jpg","3",".","37","0","545"
"35","35","encoding","encoding","82","Spatula_1.jpg","3",".","37","0","593"
"35","35","encoding","encoding","83","Bindings_Snowboard.jpg","3",".","37","0","545"
"35","35","encoding","encoding","84","Caterpillar.jpg","3",".","36","0","522"
"35","35","encoding","encoding","85","Drum_Brazilan.jpg","3",".","37","0","538"
"35","35","encoding","encoding","86","Tribunal_Wooden.jpg","3",".","37","0","587"
"35","35","encoding","encoding","87","Syrup_Maple.jpg","3",".","37","0","627"
"35","35","encoding","encoding","88","Knife_Butter.jpg","3",".","37","0","580"
"35","35","encoding","encoding","89","Cabinet_Display.jpg","3",".","37","0","621"
"35","35","encoding","encoding","90","Telescope.jpg","1",".","37","0","541"
"35","35","encoding","encoding","91","Radio_Vintage.jpg","3",".","37","0","590"
"35","35","encoding","encoding","92","BicycleGear.jpg","3",".","37","0","599"
"35","35","encoding","encoding","93","Brooch_Fish.jpg","3",".","37","0","582"
"35","35","encoding","encoding","94","Drum_Brazilan.jpg","3",".","37","0","631"
"35","35","encoding","encoding","95","Seashell_AlternateTellin.jpg","1",".","36","0","575"
"35","35","encoding","encoding","96","AnsweringMachine.jpg","3",".","37","0","561"
"35","35","encoding","encoding","97","Tribunal_Wooden.jpg","3",".","37","0","608"
"35","35","encoding","encoding","98","Lighter_Yellow.jpg","1",".","37","0","618"
"35","35","encoding","encoding","99","Cabinet_Display.jpg","3",".","37","0","570"
"35","35","encoding","encoding","100","Playground.jpg","3",".","37","0","546"
"35","35","encoding","encoding","101","Tofu.jpg","1",".","37","0","916"
"35","35","encoding","encoding","102","Cabinet_Office.jpg","3",".","37","0","579"
"35","35","encoding","encoding","103","Pipe.jpg","3",".","37","0","716"
"35","35","encoding","encoding","104","Toy_TableSet.jpg","1",".","37","0","636"
"35","35","encoding","encoding","105","Broom_Long.jpg","3",".","37","0","556"
"35","35","encoding","encoding","106","Waffle.jpg","3",".","36","0","565"
"35","35","encoding","encoding","107","Ball_8.jpg","3",".","37","0","966"
"35","35","encoding","encoding","108","House_Rural.jpg","1",".","37","0","879"
"35","35","encoding","encoding","109","Bindings_Snowboard.jpg","3",".","37","0","575"
"35","35","encoding","encoding","110","CookieCutter_Tree.jpg","1",".","37","0","656"
"35","35","encoding","encoding","111","Iron_Antique.jpg","3",".","37","0","664"
"35","35","encoding","encoding","112","Jug_Milk.jpg","1",".","37","0","616"
"35","35","encoding","encoding","113","MobilityScooter.jpg","1",".","37","0","633"
"35","35","encoding","encoding","114","Shoe_Pink.jpg","1",".","37","0","577"
"35","35","encoding","encoding","115","Tweezers.jpg","3",".","37","0","594"
"35","35","encoding","encoding","116","Toolbox_Old.jpg","1",".","37","0","666"
"35","35","encoding","encoding","117","ToothPaste.jpg","3",".","37","0","683"
"35","35","encoding","encoding","118","Statue_VirginMary.jpg","3",".","37","0","604"
"35","35","encoding","encoding","119","Hat_Baseball.jpg","1",".","37","0","484"
"35","35","encoding","encoding","120","Knife_Butter.jpg","3",".","37","0","501"
"35","35","encoding","encoding","121","Fridge.jpg","3",".","37","0","517"
"35","35","encoding","encoding","122","Can_OilSpout.jpg","3",".","37","0","526"
"35","35","encoding","encoding","123","Bomb.jpg","3",".","37","0","574"
"35","35","encoding","encoding","124","Drum_Brazilan.jpg","3",".","37","0","559"
"35","35","encoding","encoding","125","Chinchilla.jpg","3",".","36","0","727"
"35","35","encoding","encoding","126","OnionRed.jpg","3",".","36","0","616"
"35","35","encoding","encoding","127","AnsweringMachine.jpg","3",".","37","0","505"
"35","35","encoding","encoding","128","Baster.jpg","1",".","37","0","609"
"35","35","encoding","encoding","129","SkullDeer.jpg","3",".","36","0","786"
"35","35","encoding","encoding","130","Cabinet_Office.jpg","3",".","37","0","610"
"35","35","encoding","encoding","131","Dolphine.jpg","3",".","36","0","778"
"35","35","encoding","encoding","133","Spatula_1.jpg","3",".","37","0","589"
"35","35","encoding","encoding","134","Toolbox_RedOpen.jpg","1",".","37","0","662"
"35","35","encoding","encoding","135","Spatula_1.jpg","3",".","37","0","517"
"35","35","encoding","encoding","136","Screw.jpg","1",".","37","0","622"
"35","35","encoding","encoding","137","Gorilla.jpg","1",".","36","0","766"
"35","35","encoding","encoding","138","Shield_Antique.jpg","3",".","37","0","624"
"35","35","encoding","encoding","139","PanCooking.jpg","1",".","37","0","504"
"35","35","encoding","encoding","140","Statue_SouthAmerican.jpg","3",".","37","0","649"
"35","35","encoding","encoding","141","Tweezers.jpg","3",".","37","0","569"
"35","35","encoding","encoding","142","Toy_BearBlackPlastic.jpg","1",".","37","0","834"
"35","35","encoding","encoding","143","Truck_Dump.jpg","1",".","37","0","658"
"35","35","encoding","encoding","144","Chipmunk.jpg","3",".","36","0","603"
"35","35","encoding","encoding","145","Ball_Disco.jpg","3",".","37","0","652"
"35","35","encoding","encoding","146","PaintRoller.jpg","3",".","37","0","636"
"35","35","encoding","encoding","147","Shield_Antique.jpg","3",".","37","0","485"
"35","35","encoding","encoding","148","ToothPaste.jpg","3",".","37","0","501"
"35","35","encoding","encoding","149","Hazelnut.jpg","3",".","36","0","645"
"35","35","encoding","encoding","150","Can_OilSpout.jpg","3",".","37","0","494"
"35","35","encoding","encoding","151","Pickaxe.jpg","1",".","37","0","510"
"35","35","encoding","encoding","152","Dolphine.jpg","3",".","36","0","527"
"35","35","encoding","encoding","153","Bench_Wooden.jpg","3",".","37","0","439"
"35","35","encoding","encoding","154","Statue_SouthAmerican.jpg","3",".","37","0","551"
"35","35","encoding","encoding","155","SafetyPin.jpg","3",".","37","0","464"
"35","35","encoding","encoding","156","OnionRed.jpg","3",".","36","0","576"
"35","35","encoding","encoding","157","Dolphine.jpg","3",".","36","0","530"
"35","35","encoding","encoding","158","Pig.jpg","3",".","36","0","538"
"35","35","encoding","encoding","159","Lamp_TableWhite.jpg","1",".","37","0","427"
"35","35","encoding","encoding","160","Pasta_Spaghetti.jpg","3",".","37","0","827"
"35","35","encoding","encoding","161","ElasticBand.jpg","3",".","37","0","643"
"35","35","encoding","encoding","162","Caterpillar.jpg","3",".","36","0","564"
"35","35","encoding","encoding","163","Thermostat.jpg","3",".","37","0","444"
"35","35","encoding","encoding","164","Toy_SeeSaw.jpg","1",".","37","0","461"
"35","35","encoding","encoding","165","Loofa.jpg","3",".","37","0","509"
"35","35","encoding","encoding","166","Carbiner_Ascender.jpg","1",".","37","0","487"
"35","35","encoding","encoding","167","Ball_8.jpg","3",".","37","0","503"
"35","35","encoding","encoding","168","Fridge.jpg","3",".","37","0","455"
"35","35","encoding","encoding","169","Hammer.jpg","3",".","37","0","400"
"35","35","encoding","encoding","170","Boardgame_Checkers.jpg","3",".","37","0","512"
"35","35","encoding","encoding","171","Iron_Antique.jpg","3",".","37","0","489"
"35","35","encoding","encoding","172","RibbonSpool.jpg","3",".","37","0","409"
"35","35","encoding","encoding","173","TurkeyDinner.jpg","3",".","37","0","673"
"35","35","encoding","encoding","174","Glass_Cup.jpg","3",".","37","0","466"
"35","35","encoding","encoding","175","Jar_Cotton.jpg","1",".","37","0","514"
"35","35","encoding","encoding","176","Wheel_Steering.jpg","3",".","37","0","395"
"35","35","encoding","encoding","177","Bench_Wooden.jpg","3",".","37","0","379"
"35","35","encoding","encoding","178","Flower_Orchid.jpg","3",".","36","0","589"
"35","35","encoding","encoding","179","Pipe.jpg","3",".","37","0","597"
"35","35","encoding","encoding","180","Tribunal_Wooden.jpg","3",".","37","0","485"
"35","35","encoding","encoding","181","Box_Present.jpg","1",".","37","0","589"
"35","35","encoding","encoding","182","PaperStack.jpg","1",".","37","0","606"
"35","35","encoding","encoding","183","BloodpPresureCuff.jpg","1",".","37","0","559"
"35","35","encoding","encoding","184","Hottub.jpg","3",".","37","0","439"
"35","35","encoding","encoding","185","Fencing_HelmetSwords.jpg","3",".","37","0","520"
"35","35","encoding","encoding","186","Tape_Washi.jpg","3",".","37","0","504"
"35","35","encoding","encoding","187","Sign_TrafficArrow.jpg","1",".","37","0","448"
"35","35","encoding","encoding","188","SewingMachine.jpg","3",".","37","0","466"
"35","35","encoding","encoding","189","OnionRed.jpg","3",".","36","0","474"
"35","35","encoding","encoding","190","Beaker.jpg","3",".","37","0","491"
"35","35","encoding","encoding","191","BicycleChain.jpg","1",".","37","0","411"
"35","35","encoding","encoding","192","Tape_Washi.jpg","3",".","37","0","483"
"35","35","encoding","encoding","193","Decoration_WallOrnament.jpg","1",".","36","0","660"
"35","35","encoding","encoding","194","SundaeBanana.jpg","1",".","37","0","572"
"35","35","encoding","encoding","195","Thermostat.jpg","3",".","37","0","685"
"35","35","encoding","encoding","196","Fencing_HelmetSwords.jpg","3",".","37","0","574"
"35","35","encoding","encoding","197","Hammer.jpg","3",".","37","0","486"
"35","35","encoding","encoding","199","Dart.jpg","1",".","37","0","663"
"35","35","encoding","encoding","200","Shield_Antique.jpg","3",".","37","0","607"
"35","35","encoding","encoding","201","Thermostat.jpg","3",".","37","0","560"
"35","35","encoding","encoding","202","PaintRoller.jpg","3",".","37","0","512"
"35","35","encoding","encoding","203","Broom_Long.jpg","3",".","37","0","456"
"35","35","encoding","encoding","204","Bell_Hand.jpg","1",".","37","0","473"
"35","35","encoding","encoding","205","Brooch_Fish.jpg","3",".","37","0","481"
"35","35","encoding","encoding","206","Arch.jpg","3",".","37","0","594"
"35","35","encoding","encoding","207","Pajamas.jpg","3",".","37","0","674"
"35","35","encoding","encoding","208","ElasticBand.jpg","3",".","37","0","684"
"35","35","encoding","encoding","209","DivingBoard.jpg","1",".","37","0","604"
"35","35","encoding","encoding","210","Syrup_Maple.jpg","3",".","37","0","620"
"35","35","encoding","encoding","211","Makeup_Foundation.jpg","3",".","37","0","437"
"35","35","encoding","encoding","212","Chipmunk.jpg","3",".","36","0","517"
"35","35","encoding","encoding","213","Icepick.jpg","3",".","37","0","558"
"35","35","encoding","encoding","214","ElasticBand.jpg","3",".","37","0","478"
"35","35","encoding","encoding","215","Waffle.jpg","3",".","37","0","654"
"35","35","encoding","encoding","216","Syrup_Maple.jpg","3",".","37","0","471"
"35","35","encoding","encoding","217","BicycleGear.jpg","3",".","37","0","487"
"35","35","encoding","encoding","218","Frame_Oval.jpg","3",".","37","0","441"
"35","35","encoding","encoding","219","Hazelnut.jpg","3",".","36","0","705"
"35","35","encoding","encoding","220","Bottle_Specimen.jpg","3",".","37","0","465"
"35","35","encoding","encoding","221","CoffeeGrinder.jpg","1",".","37","0","570"
"35","35","encoding","encoding","222","ChessPiece_Knight.jpg","3",".","37","0","490"
"35","35","encoding","encoding","223","DrillBit.jpg","1",".","37","0","507"
"35","35","encoding","encoding","224","LampPost_OneBulb.jpg","1",".","37","0","483"
"35","35","encoding","encoding","225","Hawk.jpg","1",".","37","0","468"
"35","35","encoding","encoding","226","Hoverboard.jpg","3",".","37","0","453"
"35","35","encoding","encoding","227","SmokingPipe.jpg","3",".","37","0","428"
"35","35","encoding","encoding","228","Strainer_Tea.jpg","3",".","37","0","381"
"35","35","encoding","encoding","229","Flower_Hibiscus.jpg","3",".","36","0","614"
"35","35","encoding","encoding","230","Statue_SouthAmerican.jpg","3",".","37","0","439"
"35","35","encoding","encoding","231","Icepick.jpg","3",".","37","0","551"
"35","35","encoding","encoding","232","Playground.jpg","3",".","37","0","560"
"35","35","encoding","encoding","233","ContactLens.jpg","1",".","37","0","608"
"35","35","encoding","encoding","234","GranolaBar.jpg","1",".","37","0","720"
"35","35","encoding","encoding","235","Toy_Lighthouse.jpg","3",".","37","0","698"
"35","35","encoding","encoding","236","Switch_LightWhite.jpg","1",".","37","0","681"
"35","35","encoding","encoding","237","Makeup_Foundation.jpg","3",".","37","0","475"
"35","35","encoding","encoding","238","Box_FirstAidOpen.jpg","3",".","37","0","514"
"35","35","encoding","encoding","239","Comb.jpg","1",".","37","0","468"
"35","35","encoding","encoding","240","Statue_VirginMary.jpg","3",".","37","0","484"
"35","35","encoding","encoding","241","Pasta_Spaghetti.jpg","3",".","37","0","684"
"35","35","encoding","encoding","242","HumanSkeleton.jpg","3",".","0","0","1000"
"35","35","encoding","encoding","243","Boots_KneeHigh.jpg","1",".","37","0","645"
"35","35","encoding","encoding","244","Pajamas.jpg","3",".","37","0","534"
"35","35","encoding","encoding","245","Hoverboard.jpg","3",".","37","0","518"
"35","35","encoding","encoding","246","Case_DVD.jpg","3",".","37","0","526"
"35","35","encoding","encoding","247","SmokingPipe.jpg","3",".","37","0","480"
"35","35","encoding","encoding","248","Hoverboard.jpg","3",".","37","0","400"
"35","35","encoding","encoding","249","Statue_VirginMary.jpg","3",".","37","0","409"
"35","35","encoding","encoding","250","KeyHook_Occupied.jpg","3",".","37","0","425"
"35","35","encoding","encoding","251","BicycleOdometer.jpg","1",".","37","0","562"
"35","35","encoding","encoding","252","Sock_Ankle.jpg","1",".","37","0","546"
"35","35","encoding","encoding","253","ToothPaste.jpg","3",".","37","0","530"
"35","35","encoding","encoding","254","SaxophoneSoprano.jpg","1",".","37","0","539"
"35","35","encoding","encoding","255","Gun_Glue.jpg","1",".","37","0","523"
"35","35","encoding","encoding","256","SkiPoles.jpg","1",".","37","0","571"
"35","35","encoding","encoding","257","FlipFlop_PairBlue.jpg","1",".","37","0","516"
"35","35","encoding","encoding","258","Socks_Winter.jpg","1",".","37","0","532"
"35","35","encoding","encoding","259","Pasta_Spaghetti.jpg","3",".","37","0","574"
"35","35","encoding","encoding","260","Glass_Martini.jpg","1",".","37","0","494"
"35","35","encoding","encoding","261","Icepick.jpg","3",".","37","0","671"
"35","35","encoding","encoding","262","KitchenTools.jpg","1",".","37","0","679"
"35","35","encoding","encoding","263","Bandage_Wrap.jpg","3",".","37","0","536"
"35","35","encoding","encoding","265","Microphone.jpg","3",".","37","0","400"
"35","35","encoding","encoding","266","BicycleGear.jpg","3",".","37","0","449"
"35","35","encoding","encoding","267","Frame_Oval.jpg","3",".","37","0","457"
"35","35","encoding","encoding","268","Toy_Lighthouse.jpg","3",".","37","0","379"
"35","35","encoding","encoding","269","Cross.jpg","1",".","37","0","387"
"35","35","encoding","encoding","270","Pig.jpg","3",".","36","0","531"
"35","35","encoding","encoding","271","Bandage_Wrap.jpg","3",".","37","0","420"
"35","35","encoding","encoding","272","Bandage_Wrap.jpg","3",".","37","0","364"
"35","35","encoding","encoding","273","Radio_Vintage.jpg","3",".","37","0","381"
"35","35","encoding","encoding","274","Flower_Orchid.jpg","3",".","36","0","557"
"35","35","encoding","encoding","275","Boardgame_Checkers.jpg","3",".","37","0","406"
"35","35","encoding","encoding","276","ReindeerHeadband.jpg","3",".","37","0","486"
"35","35","encoding","encoding","277","Ball_Disco.jpg","3",".","37","0","399"
"35","35","encoding","encoding","278","Exercise_Machine.jpg","1",".","37","0","512"
"35","35","encoding","encoding","279","Box_FirstAidOpen.jpg","3",".","37","0","528"
"35","35","encoding","encoding","280","Cage_Bird.jpg","3",".","37","0","473"
"35","35","encoding","encoding","281","Cage_Bird.jpg","3",".","37","0","393"
"35","35","encoding","encoding","282","Crutches.jpg","1",".","37","0","505"
"35","35","encoding","encoding","283","Chipmunk.jpg","3",".","36","0","514"
"35","35","encoding","encoding","284","Playground.jpg","3",".","37","0","658"
"35","35","encoding","encoding","285","Crib_Basket.jpg","1",".","37","0","603"
"35","35","encoding","encoding","286","SafetyPin.jpg","3",".","37","0","523"
"35","35","encoding","encoding","287","Brace_Back.jpg","3",".","37","0","445"
"35","35","encoding","encoding","288","Pajamas.jpg","3",".","37","0","421"
"35","35","encoding","encoding","289","CartonEggs.jpg","3",".","36","0","885"
"35","35","encoding","encoding","290","Frame_Oval.jpg","3",".","37","0","614"
"35","35","encoding","encoding","291","ChessPiece_Knight.jpg","3",".","37","0","558"
"35","35","encoding","encoding","292","Beaker.jpg","3",".","37","0","447"
"35","35","encoding","encoding","293","Hottub.jpg","3",".","37","0","391"
"35","35","encoding","encoding","294","Toy_PoliceCar.jpg","1",".","37","0","536"
"35","35","encoding","encoding","295","Ball_Disco.jpg","3",".","37","0","456"
"35","35","encoding","encoding","296","Strainer_Tea.jpg","3",".","37","0","432"
"35","35","encoding","encoding","297","Bugle.jpg","3",".","37","0","418"
"35","35","encoding","encoding","298","Ball_8.jpg","3",".","37","0","435"
"35","35","encoding","encoding","299","Helmet_Knight.jpg","1",".","37","0","539"
"35","35","encoding","encoding","300","Boardgame_Checkers.jpg","3",".","37","0","491"
"35","35","encoding","encoding","301","Box_FirstAidOpen.jpg","3",".","37","0","563"
"35","35","encoding","encoding","302","Chopsticks.jpg","3",".","37","0","516"
"35","35","encoding","encoding","303","Toy_DollOffice.jpg","1",".","37","0","564"
"35","35","encoding","encoding","304","SewingMachine.jpg","3",".","37","0","477"
"35","35","encoding","encoding","305","Iron_Antique.jpg","3",".","37","0","526"
"35","35","encoding","encoding","306","Chinchilla.jpg","3",".","36","0","574"
"35","35","encoding","encoding","307","Boxcutter.jpg","3",".","37","0","679"
"35","35","encoding","encoding","308","Pipe.jpg","3",".","37","0","535"
"35","35","encoding","encoding","309","CrepeMaker.jpg","1",".","37","0","552"
"35","35","encoding","encoding","310","ChessPiece_Knight.jpg","3",".","37","0","496"
"35","35","encoding","encoding","311","Pig.jpg","3",".","36","0","545"
"35","35","encoding","encoding","312","Tire_Hollow.jpg","1",".","37","0","745"
"35","35","encoding","encoding","313","HumanSkeleton.jpg","3",".","37","0","633"
"35","35","encoding","encoding","314","Makeup_Foundation.jpg","3",".","37","0","426"
"35","35","encoding","encoding","315","Beaker.jpg","3",".","37","0","434"
"35","35","encoding","encoding","316","Cabinet_Display.jpg","3",".","37","0","419"
"35","35","encoding","encoding","317","Knife_Butter.jpg","3",".","37","0","499"
"35","35","encoding","encoding","318","RibbonSpool.jpg","3",".","37","0","509"
"35","35","encoding","encoding","319","Bugle.jpg","3",".","37","0","557"
"35","35","encoding","encoding","320","Microphone.jpg","3",".","37","0","533"
"35","35","encoding","encoding","321","ReindeerHeadband.jpg","3",".","37","0","742"
"35","35","encoding","encoding","322","Case_DVD.jpg","3",".","37","0","438"
"35","35","encoding","encoding","323","Bottle_Specimen.jpg","3",".","37","0","447"
"35","35","encoding","encoding","324","Bomb.jpg","3",".","37","0","431"
"35","35","encoding","encoding","325","ReindeerHeadband.jpg","",".","37","0","447"
"35","35","retrieval","old_object","1","Pickaxe.jpg",".","1","36","1","1733"
"35","35","retrieval","old_object","2","Hoverboard.jpg",".","3","36","1","876"
"35","35","retrieval","new_object","3","Fuse.jpg",".",".","37","1","714"
"35","35","retrieval","old_object","4","Thermostat.jpg",".","3","36","1","1001"
"35","35","retrieval","old_object","5","Toy_SeeSaw.jpg",".","1","36","1","1039"
"35","35","retrieval","old_object","6","TurkeyDinner.jpg",".","3","36","1","782"
"35","35","retrieval","old_object","7","SewingMachine.jpg",".","3","36","1","757"
"35","35","retrieval","new_object","8","Hook_Fish.jpg",".",".","37","1","660"
"35","35","retrieval","old_object","9","Toy_Lighthouse.jpg",".","3","36","1","882"
"35","35","retrieval","old_object","10","CuttingBoard.jpg",".","1","36","1","1113"
"35","35","retrieval","old_object","11","Pot_Cooking.jpg",".","1","36","1","663"
"35","35","retrieval","old_object","12","TireRims.jpg",".","1","37","0","863"
"35","35","retrieval","old_object","13","Currants.jpg",".","1","36","1","957"
"35","35","retrieval","old_object","14","Telescope.jpg",".","1","37","0","924"
"35","35","retrieval","old_object","15","OnionRed.jpg",".","3","36","1","642"
"35","35","retrieval","old_object","16","Hockey_Equipment.jpg",".","1","36","1","1697"
"35","35","retrieval","new_object","17","Megaphone.jpg",".",".","37","1","1063"
"35","35","retrieval","old_object","18","Sink_Bathroom.jpg",".","1","36","1","966"
"35","35","retrieval","old_object","19","Toy_BearBlackPlastic.jpg",".","1","36","1","709"
"35","35","retrieval","new_object","20","Cake_Wedding.jpg",".",".","37","1","780"
"35","35","retrieval","new_object","21","Sign_Wetfloor.jpg",".",".","37","1","810"
"35","35","retrieval","new_object","22","Sign_Parking.jpg",".",".","37","1","657"
"35","35","retrieval","new_object","23","Bowl_Chinese.jpg",".",".","37","1","687"
"35","35","retrieval","old_object","24","Hammer.jpg",".","3","36","1","751"
"35","35","retrieval","new_object","25","Pitcher.jpg",".",".","37","1","789"
"35","35","retrieval","old_object","26","ReindeerHeadband.jpg",".","3","36","1","916"
"35","35","retrieval","new_object","27","Drink_Green.jpg",".",".","37","1","690"
"35","35","retrieval","old_object","28","ElasticBand.jpg",".","3","36","1","697"
"35","35","retrieval","new_object","29","BicyclePedal.jpg",".",".","37","1","855"
"35","35","retrieval","new_object","30","TeethMould.jpg",".",".","37","1","798"
"35","35","retrieval","old_object","31","Loofa.jpg",".","3","37","0","669"
"35","35","retrieval","old_object","32","Lamp_TableWhite.jpg",".","1","37","0","988"
"35","35","retrieval","new_object","33","BottleOpener.jpg",".",".","37","1","962"
"35","35","retrieval","old_object","34","Brace_Back.jpg",".","3","36","1","641"
"35","35","retrieval","new_object","35","Pipe_Drain.jpg",".",".","37","1","704"
"35","35","retrieval","new_object","36","MonkeyPuppet.jpg",".",".","37","1","582"
"35","35","retrieval","old_object","37","Hottub.jpg",".","3","36","1","741"
"35","35","retrieval","new_object","38","Teabag.jpg",".",".","37","1","676"
"35","35","retrieval","old_object","39","Toolbox_RedOpen.jpg",".","1","37","0","842"
"35","35","retrieval","new_object","40","MonaLisa.jpg",".",".","37","1","809"
"35","35","retrieval","old_object","41","ContactLens.jpg",".","1","36","1","1064"
"35","35","retrieval","old_object","42","Waffle.jpg",".","3","36","1","943"
"35","35","retrieval","old_object","43","Makeup_Foundation.jpg",".","3","36","1","781"
"35","35","retrieval","old_object","44","Bugle.jpg",".","3","36","1","748"
"35","35","retrieval","old_object","45","Box_FirstAidOpen.jpg",".","3","36","1","850"
"35","35","retrieval","new_object","46","Fish_Rockbass.jpg",".",".","37","1","784"
"35","35","retrieval","new_object","47","SmokeDetector.jpg",".",".","37","1","1207"
"35","35","retrieval","new_object","48","BusStop.jpg",".",".","37","1","917"
"35","35","retrieval","old_object","49","Bottle_Specimen.jpg",".","3","36","1","789"
"35","35","retrieval","new_object","50","Shampoo.jpg",".",".","37","1","956"
"35","35","retrieval","new_object","51","Bellows.jpg",".",".","37","1","1530"
"35","35","retrieval","old_object","52","Toolbox_Old.jpg",".","1","37","0","858"
"35","35","retrieval","new_object","53","Chair_BeanBag.jpg",".",".","37","1","831"
"35","35","retrieval","old_object","54","PaintRoller.jpg",".","3","36","1","767"
"35","35","retrieval","new_object","55","WindowBlinds.jpg",".",".","37","1","701"
"35","35","retrieval","new_object","56","PaintBrushAndPallette.jpg",".",".","36","0","676"
"35","35","retrieval","new_object","57","Toy_RockingHorseBlack.jpg",".",".","37","1","770"
"35","35","retrieval","new_object","58","NintendoWii.jpg",".",".","37","1","929"
"35","35","retrieval","old_object","59","Paddle_Beach.jpg",".","1","37","0","839"
"35","35","retrieval","old_object","60","Cross.jpg",".","1","36","1","1030"
"35","35","retrieval","new_object","61","ButterDish.jpg",".",".","37","1","877"
"35","35","retrieval","new_object","62","Blanket.jpg",".",".","37","1","940"
"35","35","retrieval","old_object","63","LampPost_OneBulb.jpg",".","1","36","1","874"
"35","35","retrieval","old_object","64","Iron_Antique.jpg",".","3","36","1","689"
"35","35","retrieval","new_object","65","Toy_Moose.jpg",".",".","37","1","816"
"35","35","retrieval","old_object","67","Pajamas.jpg",".","3","36","1","1206"
"35","35","retrieval","old_object","68","AnsweringMachine.jpg",".","3","36","1","885"
"35","35","retrieval","old_object","69","KeyHook_Occupied.jpg",".","3","36","1","788"
"35","35","retrieval","old_object","70","Broom_Long.jpg",".","3","36","1","666"
"35","35","retrieval","new_object","71","Steeple.jpg",".",".","37","1","1210"
"35","35","retrieval","old_object","72","Tribunal_Wooden.jpg",".","3","36","1","919"
"35","35","retrieval","new_object","73","Pants_Jeans.jpg",".",".","37","1","1151"
"35","35","retrieval","new_object","74","Trophy.jpg",".",".","37","1","894"
"35","35","retrieval","old_object","75","Hazelnut.jpg",".","3","36","1","668"
"35","35","retrieval","old_object","76","CookieCutter_Tree.jpg",".","1","36","1","1058"
"35","35","retrieval","new_object","77","Apple_RedAndGreen.jpg",".",".","37","1","833"
"35","35","retrieval","old_object","78","Crib_Basket.jpg",".","1","36","1","831"
"35","35","retrieval","old_object","79","Can_OilSpout.jpg",".","3","36","1","679"
"35","35","retrieval","new_object","80","MixingGlass.jpg",".",".","37","1","933"
"35","35","retrieval","old_object","81","Boxcutter.jpg",".","3","36","1","708"
"35","35","retrieval","new_object","82","Oyster.jpg",".",".","37","1","1386"
"35","35","retrieval","old_object","83","Icepick.jpg",".","3","36","1","1226"
"35","35","retrieval","new_object","84","Bullet.jpg",".",".","37","1","967"
"35","35","retrieval","new_object","85","DryRack_Dishes.jpg",".",".","37","1","846"
"35","35","retrieval","new_object","86","Cassette_Audio.jpg",".",".","37","1","717"
"35","35","retrieval","old_object","87","Truck_Dump.jpg",".","1","36","1","780"
"35","35","retrieval","new_object","88","Guitar_Acoustic.jpg",".",".","37","1","1010"
"35","35","retrieval","new_object","89","GasBurner.jpg",".",".","37","1","786"
"35","35","retrieval","old_object","90","Syrup_Maple.jpg",".","3","36","1","664"
"35","35","retrieval","old_object","91","Baster.jpg",".","1","37","0","1270"
"35","35","retrieval","new_object","92","Saw.jpg",".",".","37","1","1109"
"35","35","retrieval","new_object","93","Skates.jpg",".",".","37","1","1020"
"35","35","retrieval","old_object","94","ShearsGarden.jpg",".","1","37","0","922"
"35","35","retrieval","old_object","95","Gun_Glue.jpg",".","1","36","1","857"
"35","35","retrieval","old_object","96","MobilityScooter.jpg",".","1","36","1","863"
"35","35","retrieval","new_object","97","Goose_Canadian.jpg",".",".","36","0","766"
"35","35","retrieval","new_object","98","Box_Floral.jpg",".",".","37","1","1053"
"35","35","retrieval","old_object","99","RibbonSpool.jpg",".","3","36","1","772"
"35","35","retrieval","new_object","100","Exercise_Stretch.jpg",".",".","37","1","962"
"35","35","retrieval","new_object","101","Car_Sedan.jpg",".",".","37","1","993"
"35","35","retrieval","new_object","102","Toys_Lego.jpg",".",".","37","1","840"
"35","35","retrieval","new_object","103","Guitarcase.jpg",".",".","37","1","870"
"35","35","retrieval","new_object","104","Beater_Electric.jpg",".",".","37","1","709"
"35","35","retrieval","old_object","105","ChessPiece_Knight.jpg",".","3","36","1","652"
"35","35","retrieval","old_object","106","SaxophoneSoprano.jpg",".","1","36","1","842"
"35","35","retrieval","new_object","107","Generator.jpg",".",".","37","1","808"
"35","35","retrieval","old_object","108","PedestalGreek.jpg",".","1","36","1","1039"
"35","35","retrieval","old_object","109","Boots_KneeHigh.jpg",".","1","37","0","1678"
"35","35","retrieval","new_object","110","JukeboxAntique.jpg",".",".","37","1","589"
"35","35","retrieval","old_object","111","Radio_Vintage.jpg",".","3","36","1","756"
"35","35","retrieval","new_object","112","Knee.jpg",".",".","37","1","1106"
"35","35","retrieval","old_object","113","BicycleOdometer.jpg",".","1","36","1","913"
"35","35","retrieval","old_object","114","Hawk.jpg",".","1","36","1","1047"
"35","35","retrieval","old_object","115","SafetyPin.jpg",".","3","36","1","918"
"35","35","retrieval","new_object","116","WashRack.jpg",".",".","37","1","853"
"35","35","retrieval","old_object","117","CrepeMaker.jpg",".","1","36","1","1147"
"35","35","retrieval","old_object","118","Cabinet_Office.jpg",".","3","36","1","1370"
"35","35","retrieval","old_object","119","Statue_VirginMary.jpg",".","3","36","1","609"
"35","35","retrieval","new_object","120","PassionFruit.jpg",".",".","37","1","960"
"35","35","retrieval","old_object","121","DivingBoard.jpg",".","1","37","0","767"
"35","35","retrieval","old_object","122","Dart.jpg",".","1","36","1","805"
"35","35","retrieval","new_object","123","DoorBell.jpg",".",".","37","1","900"
"35","35","retrieval","new_object","124","Helmet_Soldier.jpg",".",".","37","1","994"
"35","35","retrieval","new_object","125","Mattress.jpg",".",".","37","1","904"
"35","35","retrieval","new_object","126","Candy_Heart.jpg",".",".","37","1","647"
"35","35","retrieval","old_object","127","Drum_Brazilan.jpg",".","3","36","1","902"
"35","35","retrieval","new_object","128","Tripod.jpg",".",".","37","1","973"
"35","35","retrieval","old_object","129","Ball_Disco.jpg",".","3","36","1","684"
"35","35","retrieval","new_object","130","Speaker_OnStand.jpg",".",".","37","1","1162"
"35","35","retrieval","old_object","131","Bomb.jpg",".","3","36","1","753"
"35","35","retrieval","new_object","133","WireStripper.jpg",".",".","37","1","1106"
"35","35","retrieval","new_object","134","HairDryer.jpg",".",".","37","1","849"
"35","35","retrieval","old_object","135","Pasta_Spaghetti.jpg",".","3","36","1","720"
"35","35","retrieval","old_object","136","Toy_DollOffice.jpg",".","1","36","1","662"
"35","35","retrieval","old_object","137","Bell_Hand.jpg",".","1","36","1","853"
"35","35","retrieval","new_object","138","Mask_Happy.jpg",".",".","37","1","756"
"35","35","retrieval","new_object","139","Lilypad.jpg",".",".","37","1","729"
"35","35","retrieval","new_object","140","Peppermill.jpg",".",".","37","1","889"
"35","35","retrieval","new_object","141","Sushi.jpg",".",".","37","1","823"
"35","35","retrieval","new_object","142","Candy_Chocolate.jpg",".",".","37","1","734"
"35","35","retrieval","old_object","143","Beaker.jpg",".","3","36","1","732"
"35","35","retrieval","old_object","144","Dolphine.jpg",".","3","36","1","667"
"35","35","retrieval","old_object","145","SmokingPipe.jpg",".","3","36","1","546"
"35","35","retrieval","new_object","146","Phone_Wireless.jpg",".",".","37","1","833"
"35","35","retrieval","new_object","147","Autocreeper.jpg",".",".","37","1","799"
"35","35","retrieval","new_object","148","Helmet_Construction.jpg",".",".","37","1","742"
"35","35","retrieval","old_object","149","Strainer_Tea.jpg",".","3","36","1","708"
"35","35","retrieval","old_object","150","Brooch_Fish.jpg",".","3","36","1","612"
"35","35","retrieval","old_object","151","Flower_Orchid.jpg",".","3","36","1","746"
"35","35","retrieval","new_object","152","Fortress.jpg",".",".","37","1","809"
"35","35","retrieval","old_object","153","Crutches.jpg",".","1","37","0","615"
"35","35","retrieval","new_object","154","CookieCutter_Bell.jpg",".",".","37","1","902"
"35","35","retrieval","old_object","155","SkullDeer.jpg",".","3","36","1","780"
"35","35","retrieval","old_object","156","Shoe_Pink.jpg",".","1","36","1","715"
"35","35","retrieval","new_object","157","Lock_Combination.jpg",".",".","37","1","842"
"35","35","retrieval","old_object","158","Tape_Washi.jpg",".","3","36","1","657"
"35","35","retrieval","new_object","159","NailPolish.jpg",".",".","37","1","1391"
"35","35","retrieval","old_object","160","Case_DVD.jpg",".","3","36","1","718"
"35","35","retrieval","old_object","161","Cannister_Gas.jpg",".","1","37","0","972"
"35","35","retrieval","new_object","162","Mop.jpg",".",".","37","1","979"
"35","35","retrieval","old_object","163","Playground.jpg",".","3","36","1","753"
"35","35","retrieval","old_object","164","Tofu.jpg",".","1","36","1","1009"
"35","35","retrieval","new_object","165","Hippopotamus.jpg",".",".","37","1","919"
"35","35","retrieval","new_object","166","Mango.jpg",".",".","37","1","1110"
"35","35","retrieval","old_object","167","Caterpillar.jpg",".","3","36","1","789"
"35","35","retrieval","new_object","168","Flamingo_Cartoon.jpg",".",".","37","1","764"
"35","35","retrieval","new_object","169","Paratrooper.jpg",".",".","37","1","922"
"35","35","retrieval","old_object","170","PanCooking.jpg",".","1","37","0","761"
"35","35","retrieval","new_object","171","MouthGuard.jpg",".",".","37","1","735"
"35","35","retrieval","old_object","172","Jar_Cotton.jpg",".","1","36","1","1054"
"35","35","retrieval","old_object","173","Kite_Rainbow.jpg",".","1","36","1","668"
"35","35","retrieval","old_object","174","Exercise_Machine.jpg",".","1","36","1","676"
"35","35","retrieval","new_object","175","Spoons_MeasuringDetached.jpg",".",".","37","1","705"
"35","35","retrieval","new_object","176","FireExtinguisher.jpg",".",".","37","1","705"
"35","35","retrieval","old_object","177","Seashell_AlternateTellin.jpg",".","1","36","1","807"
"35","35","retrieval","new_object","178","Toy_Witch.jpg",".",".","37","1","902"
"35","35","retrieval","new_object","179","Pineapple.jpg",".",".","37","1","684"
"35","35","retrieval","new_object","180","Ashtray_Empty.jpg",".",".","37","1","1067"
"35","35","retrieval","new_object","181","Notebook.jpg",".",".","37","1","1129"
"35","35","retrieval","new_object","182","Stove_Camping.jpg",".",".","37","1","849"
"35","35","retrieval","new_object","183","Keg.jpg",".",".","37","1","815"
"35","35","retrieval","old_object","184","Frame_Oval.jpg",".","3","36","1","662"
"35","35","retrieval","old_object","185","Glass_Cup.jpg",".","3","36","1","789"
"35","35","retrieval","old_object","186","Flower_Hibiscus.jpg",".","3","36","1","980"
"35","35","retrieval","new_object","187","BicycleBrake.jpg",".",".","37","1","1402"
"35","35","retrieval","new_object","188","SculptureMetalFish.jpg",".",".","37","1","729"
"35","35","retrieval","old_object","189","HumanSkeleton.jpg",".","3","36","1","799"
"35","35","retrieval","old_object","190","Lighter_Yellow.jpg",".","1","36","1","734"
"35","35","retrieval","new_object","191","Light_Siren.jpg",".",".","37","1","612"
"35","35","retrieval","old_object","192","ToothPaste.jpg",".","3","36","1","643"
"35","35","retrieval","old_object","193","PropellerFan.jpg",".","1","36","1","801"
"35","35","retrieval","new_object","194","Balalaika.jpg",".",".","37","1","713"
"35","35","retrieval","new_object","195","Cantaloupe.jpg",".",".","37","1","775"
"35","35","retrieval","old_object","196","Tweezers.jpg",".","3","36","1","782"
"35","35","retrieval","new_object","197","DoorKnob.jpg",".",".","37","1","1037"
"35","35","retrieval","new_object","199","Flute_Wooden.jpg",".",".","37","1","981"
"35","35","retrieval","old_object","200","Wheel_Steering.jpg",".","3","36","1","691"
"35","35","retrieval","old_object","201","Clock_Radio.jpg",".","1","37","0","1338"
"35","35","retrieval","old_object","202","Sign_TrafficArrow.jpg",".","1","36","1","1016"
"35","35","retrieval","old_object","203","Cage_Bird.jpg",".","3","36","1","671"
"35","35","retrieval","new_object","204","Lollipop_Grape.jpg",".",".","37","1","733"
"35","35","retrieval","old_object","205","Toy_TableSet.jpg",".","1","36","1","964"
"35","35","retrieval","new_object","206","PotatoMasher_Zigzag.jpg",".",".","37","1","835"
"35","35","retrieval","old_object","207","House_Rural.jpg",".","1","36","1","898"
"35","35","retrieval","old_object","208","Glass_Martini.jpg",".","1","37","0","1096"
"35","35","retrieval","old_object","209","PaperStack.jpg",".","1","36","1","743"
"35","35","retrieval","old_object","210","Socks_Winter.jpg",".","1","36","1","909"
"35","35","retrieval","old_object","211","Carbiner_Ascender.jpg",".","1","37","0","684"
"35","35","retrieval","new_object","212","TartStrawberry.jpg",".",".","37","1","1259"
"35","35","retrieval","new_object","213","FlashlightHeadBand.jpg",".",".","37","1","1074"
"35","35","retrieval","old_object","214","Cabinet_Display.jpg",".","3","37","0","1137"
"35","35","retrieval","new_object","215","Toy_StackingRing.jpg",".",".","37","1","759"
"35","35","retrieval","old_object","216","Pig.jpg",".","3","36","1","629"
"35","35","retrieval","old_object","217","Chopsticks.jpg",".","3","36","1","637"
"35","35","retrieval","new_object","218","CandyDispenser.jpg",".",".","37","1","731"
"35","35","retrieval","old_object","219","Bench_Wooden.jpg",".","3","36","1","1082"
"35","35","retrieval","old_object","220","BoogieBoard.jpg",".","1","36","1","992"
"35","35","retrieval","new_object","221","Table_Poker.jpg",".",".","37","1","831"
"35","35","retrieval","old_object","222","Gorilla.jpg",".","1","36","1","605"
"35","35","retrieval","new_object","223","CameoPortrait.jpg",".",".","37","1","804"
"35","35","retrieval","new_object","224","Toy_Shapesorter.jpg",".",".","37","1","803"
"35","35","retrieval","new_object","225","PuppetTheatre_WhiteGold.jpg",".",".","37","1","842"
"35","35","retrieval","new_object","226","Bottle_Wine.jpg",".",".","37","1","712"
"35","35","retrieval","old_object","227","Boardgame_Checkers.jpg",".","3","36","1","711"
"35","35","retrieval","new_object","228","Chest_Toys.jpg",".",".","37","1","845"
"35","35","retrieval","new_object","229","Leaf_Clover.jpg",".",".","37","1","716"
"35","35","retrieval","new_object","230","Chair_MedicalToilet.jpg",".",".","37","1","723"
"35","35","retrieval","new_object","231","Glove_Rubber.jpg",".",".","37","1","722"
"35","35","retrieval","old_object","232","Bandage_Wrap.jpg",".","3","36","1","688"
"35","35","retrieval","new_object","233","Nyala.jpg",".",".","37","1","631"
"35","35","retrieval","new_object","234","RemoteControl.jpg",".",".","37","1","789"
"35","35","retrieval","old_object","235","Arch.jpg",".","3","36","1","828"
"35","35","retrieval","old_object","236","Spatula_1.jpg",".","3","36","1","667"
"35","35","retrieval","new_object","237","Knife_Hunting.jpg",".",".","37","1","634"
"35","35","retrieval","old_object","238","Sock_Ankle.jpg",".","1","36","1","672"
"35","35","retrieval","new_object","239","Wheelbarrow_Green.jpg",".",".","37","1","831"
"35","35","retrieval","new_object","240","Clip_Paper.jpg",".",".","37","1","710"
"35","35","retrieval","old_object","241","Decoration_WallOrnament.jpg",".","1","36","1","676"
"35","35","retrieval","old_object","242","BloodpPresureCuff.jpg",".","1","36","1","1155"
"35","35","retrieval","new_object","243","Bird_Cardinal.jpg",".",".","37","1","682"
"35","35","retrieval","old_object","244","DrillBit.jpg",".","1","36","1","904"
"35","35","retrieval","new_object","245","TinChristmas.jpg",".",".","37","1","1063"
"35","35","retrieval","old_object","246","Knife_Butter.jpg",".","3","36","1","1422"
"35","35","retrieval","new_object","247","Dress_Party.jpg",".",".","37","1","717"
"35","35","retrieval","new_object","248","fries.jpg",".",".","37","1","1651"
"35","35","retrieval","old_object","249","KitchenTools.jpg",".","1","36","1","690"
"35","35","retrieval","new_object","250","Colander.jpg",".",".","36","0","1304"
"35","35","retrieval","old_object","251","Microphone.jpg",".","3","36","1","663"
"35","35","retrieval","new_object","252","Hourglass.jpg",".",".","37","1","757"
"35","35","retrieval","new_object","253","Chest.jpg",".",".","37","1","828"
"35","35","retrieval","new_object","254","Mug_Beer.jpg",".",".","37","1","1019"
"35","35","retrieval","new_object","255","Thermostat_Digital.jpg",".",".","37","1","866"
"35","35","retrieval","new_object","256","PaintRollTray.jpg",".",".","37","1","896"
"35","35","retrieval","new_object","257","Cherry.jpg",".",".","37","1","1087"
"35","35","retrieval","new_object","258","Cup_Styrofoam.jpg",".",".","37","1","1189"
"35","35","retrieval","new_object","259","Hammer_Reflex.jpg",".",".","36","0","1476"
"35","35","retrieval","new_object","260","IceCrusher.jpg",".",".","37","1","747"
"35","35","retrieval","new_object","261","Trumpet.jpg",".",".","37","1","971"
"35","35","retrieval","new_object","262","Toy_BlocksPlastic Colourful.jpg",".",".","37","1","648"
"35","35","retrieval","new_object","263","AmpMeter.jpg",".",".","37","1","1071"
"35","35","retrieval","new_object","265","Tortilla.jpg",".",".","37","1","1111"
"35","35","retrieval","new_object","266","StringBean.jpg",".",".","37","1","662"
"35","35","retrieval","old_object","267","Pen_Ballpoint.jpg",".","1","36","1","669"
"35","35","retrieval","new_object","268","Bathtub.jpg",".",".","37","1","955"
"35","35","retrieval","old_object","269","BicycleChain.jpg",".","1","36","1","674"
"35","35","retrieval","new_object","270","DrinkingFountain.jpg",".",".","37","1","960"
"35","35","retrieval","new_object","271","Jar_JellyBeans.jpg",".",".","37","1","863"
"35","35","retrieval","new_object","272","NeedlesAcupuncture.jpg",".",".","37","1","998"
"35","35","retrieval","old_object","273","Dress_Blue.jpg",".","1","36","1","709"
"35","35","retrieval","old_object","274","Jug_Milk.jpg",".","1","37","0","867"
"35","35","retrieval","new_object","275","Mitt_Oven.jpg",".",".","37","1","875"
"35","35","retrieval","old_object","276","Hat_Baseball.jpg",".","1","36","1","617"
"35","35","retrieval","old_object","277","Fridge.jpg",".","3","36","1","584"
"35","35","retrieval","new_object","278","BicycleHandleGrip.jpg",".",".","37","1","1326"
"35","35","retrieval","new_object","279","Box_Jewellery.jpg",".",".","37","1","717"
"35","35","retrieval","old_object","280","Bindings_Snowboard.jpg",".","3","36","1","787"
"35","35","retrieval","new_object","281","Golf_Bag.jpg",".",".","37","1","690"
"35","35","retrieval","new_object","282","Desk_School.jpg",".",".","37","1","784"
"35","35","retrieval","new_object","283","IceCream_Chocolate.jpg",".",".","37","1","727"
"35","35","retrieval","old_object","284","Chipmunk.jpg",".","3","36","1","629"
"35","35","retrieval","old_object","285","Thermos_MetalSleek.jpg",".","3","36","1","637"
"35","35","retrieval","new_object","286","Shoes_DutchClogs.jpg",".",".","37","1","667"
"35","35","retrieval","old_object","287","CartonEggs.jpg",".","3","36","1","642"
"35","35","retrieval","new_object","288","BadgeSpecialAgent.jpg",".",".","37","1","544"
"35","35","retrieval","old_object","289","Outhouse.jpg",".","1","37","0","831"
"35","35","retrieval","old_object","290","Comb.jpg",".","1","37","0","742"
"35","35","retrieval","old_object","291","Screw.jpg",".","1","36","1","709"
"35","35","retrieval","new_object","292","Toy_GasPump.jpg",".",".","37","1","835"
"35","35","retrieval","old_object","293","Toy_PoliceCar.jpg",".","1","36","1","1034"
"35","35","retrieval","old_object","294","Chinchilla.jpg",".","3","36","1","488"
"35","35","retrieval","new_object","295","Mat_Door.jpg",".",".","37","1","688"
"35","35","retrieval","old_object","296","BicycleGear.jpg",".","3","36","1","1678"
"35","35","retrieval","new_object","297","Lantern_TeaBox.jpg",".",".","37","1","653"
"35","35","retrieval","old_object","298","Helmet_Knight.jpg",".","1","36","1","723"
"35","35","retrieval","old_object","299","Switch_LightWhite.jpg",".","1","37","0","1586"
"35","35","retrieval","old_object","300","Statue_SouthAmerican.jpg",".","3","36","1","792"
"35","35","retrieval","old_object","301","Pipe.jpg",".","3","36","1","663"
"35","35","retrieval","old_object","302","Bottle_BubbleBlower.jpg",".","1","37","0","694"
"35","35","retrieval","old_object","303","SkiPoles.jpg",".","1","37","0","1085"
"35","35","retrieval","new_object","304","DogTreat.jpg",".",".","37","1","635"
"35","35","retrieval","old_object","305","Ball_8.jpg",".","3","36","1","801"
"35","35","retrieval","old_object","306","Box_Present.jpg",".","1","37","0","640"
"35","35","retrieval","new_object","307","Bottle_Blue.jpg",".",".","37","1","704"
"35","35","retrieval","old_object","308","FlipFlop_PairBlue.jpg",".","1","36","1","806"
"35","35","retrieval","new_object","309","Spoon_Wooden.jpg",".",".","37","1","837"
"35","35","retrieval","new_object","310","Candle_Blue.jpg",".",".","37","1","683"
"35","35","retrieval","new_object","311","DentistOverheadLight.jpg",".",".","37","1","618"
"35","35","retrieval","old_object","312","Fencing_HelmetSwords.jpg",".","3","36","1","712"
"35","35","retrieval","old_object","313","CoffeeGrinder.jpg",".","1","37","0","783"
"35","35","retrieval","new_object","314","LeatherPuncherTool.jpg",".",".","37","1","654"
"35","35","retrieval","new_object","315","Fruit_Cactus.jpg",".",".","37","1","1133"
"35","35","retrieval","old_object","316","ShoppingCart.jpg",".","1","36","1","907"
"35","35","retrieval","new_object","317","Almond.jpg",".",".","37","1","626"
"35","35","retrieval","old_object","318","GranolaBar.jpg",".","1","36","1","656"
"35","35","retrieval","new_object","319","GPS.jpg",".",".","37","1","791"
"35","35","retrieval","new_object","320","Tickets_Blank.jpg",".",".","37","1","757"
"35","35","retrieval","old_object","321","Tire_Hollow.jpg",".","1","36","1","757"
"35","35","retrieval","new_object","322","ShoulderPads.jpg",".",".","37","1","955"
"35","35","retrieval","new_object","323","Chest_Toys.jpg",".",".","36","0","1115"
"35","35","retrieval","old_object","324","Shield_Antique.jpg",".","3","36","1","889"
"35","35","retrieval","old_object","325","SundaeBanana.jpg",".","1","37","0","1279"
"35","35","demographics_block","gender","1",".",".",".","Male","1","27935"
"35","35","demographics_block","age","1",".",".",".","35","1","27935"
"35","35","demographics_block","education","1",".",".",".","14","1","27935"
"35","35","demographics_block","left_right_handed","2",".",".",".","Right","1","17645"
"35","35","demographics_block","raceoption1","2",".",".",".","","1","17645"
"35","35","demographics_block","raceoption2","2",".",".",".","","1","17645"
"35","35","demographics_block","raceoption3","2",".",".",".","","1","17645"
"35","35","demographics_block","raceoption4","2",".",".",".","3","1","17645"
"35","35","demographics_block","raceoption5","2",".",".",".","","1","17645"
"35","35","demographics_block","raceoption6","2",".",".",".","","1","17645"
"35","35","demographics_block","raceoption7","2",".",".",".","","1","17645"
"35","35","demographics_block","raceoption8","2",".",".",".","","1","17645"
"35","35","demographics_block","raceoption9","2",".",".",".","","1","17645"
"35","35","demographics_block","raceother","2",".",".",".","","1","17645"
"35","35","demographics_block","raceother","2",".",".",".","","1","17645"
"35","35","demographics_block","english_language","2",".",".",".","Yes","1","17645"
"35","35","demographics_block","other","2",".",".",".","","1","17645"
"35","35","demographics_block","eyesight","3",".",".",".","Yes","1","5138"
"35","35","demographics_block","colorblind","3",".",".",".","No","1","5138"
