"group","subject","blockcode","trialcode","trialnum","stimulus","encoding_condition","old_object_condition","response","correct","latency"
"29","29","encoding","encoding","1","C51.jpg","3",".","0","0","1000"
"29","29","encoding","encoding","2","C10.jpg","3",".","0","0","1000"
"29","29","encoding","encoding","3","C54.jpg","3",".","0","0","1000"
"29","29","encoding","encoding","4","D49.jpg","1",".","0","0","1000"
"29","29","encoding","encoding","5","C60.jpg","3",".","0","0","1000"
"29","29","encoding","encoding","6","C24.jpg","3",".","37","0","78"
"29","29","encoding","encoding","7","C25.jpg","3",".","36","0","246"
"29","29","encoding","encoding","8","C25.jpg","3",".","37","0","874"
"29","29","encoding","encoding","9","C63.jpg","3",".","0","0","1000"
"29","29","encoding","encoding","10","C48.jpg","3",".","0","0","1000"
"29","29","encoding","encoding","11","C56.jpg","3",".","37","0","517"
"29","29","encoding","encoding","12","C28.jpg","3",".","0","0","1000"
"29","29","encoding","encoding","13","C73.jpg","3",".","0","0","1000"
"29","29","encoding","encoding","14","C40.jpg","3",".","0","0","1000"
"29","29","encoding","encoding","15","C42.jpg","3",".","37","0","95"
"29","29","encoding","encoding","16","C63.jpg","3",".","0","0","1000"
"29","29","encoding","encoding","17","D17.jpg","1",".","0","0","1000"
"29","29","encoding","encoding","18","C35.jpg","3",".","0","0","1000"
"29","29","encoding","encoding","19","D73.jpg","1",".","37","0","103"
"29","29","encoding","encoding","20","C42.jpg","3",".","37","0","916"
"29","29","encoding","encoding","21","C36.jpg","3",".","0","0","1000"
"29","29","encoding","encoding","22","C19.jpg","3",".","37","0","76"
"29","29","encoding","encoding","23","D77.jpg","1",".","37","0","941"
"29","29","encoding","encoding","24","C48.jpg","3",".","37","0","932"
"29","29","encoding","encoding","25","C28.jpg","3",".","37","0","955"
"29","29","encoding","encoding","26","C23.jpg","3",".","0","0","1000"
"29","29","encoding","encoding","27","C47.jpg","3",".","0","0","1000"
"29","29","encoding","encoding","28","C73.jpg","3",".","0","0","1000"
"29","29","encoding","encoding","29","C46.jpg","3",".","0","0","1000"
"29","29","encoding","encoding","30","C56.jpg","3",".","0","0","1000"
"29","29","encoding","encoding","31","C10.jpg","3",".","37","0","900"
"29","29","encoding","encoding","32","C79.jpg","3",".","36","0","912"
"29","29","encoding","encoding","33","D13.jpg","1",".","0","0","1000"
"29","29","encoding","encoding","34","D53.jpg","1",".","0","0","1000"
"29","29","encoding","encoding","35","C37.jpg","3",".","0","0","1000"
"29","29","encoding","encoding","36","C73.jpg","3",".","36","0","972"
"29","29","encoding","encoding","37","C59.jpg","3",".","0","0","1000"
"29","29","encoding","encoding","38","C0.jpg","3",".","0","0","1000"
"29","29","encoding","encoding","39","C7.jpg","3",".","0","0","1000"
"29","29","encoding","encoding","40","C4.jpg","3",".","0","0","1000"
"29","29","encoding","encoding","41","C62.jpg","3",".","0","0","1000"
"29","29","encoding","encoding","42","C2.jpg","3",".","0","0","1000"
"29","29","encoding","encoding","43","D11.jpg","1",".","37","0","921"
"29","29","encoding","encoding","44","C61.jpg","3",".","37","0","887"
"29","29","encoding","encoding","45","C53.jpg","3",".","37","0","954"
"29","29","encoding","encoding","46","C13.jpg","3",".","0","0","1000"
"29","29","encoding","encoding","47","C17.jpg","3",".","0","0","1000"
"29","29","encoding","encoding","48","C45.jpg","3",".","0","0","1000"
"29","29","encoding","encoding","49","D21.jpg","1",".","37","0","961"
"29","29","encoding","encoding","50","C12.jpg","3",".","0","0","1000"
"29","29","encoding","encoding","51","D29.jpg","1",".","0","0","1000"
"29","29","encoding","encoding","52","C12.jpg","3",".","0","0","1000"
"29","29","encoding","encoding","53","C20.jpg","3",".","0","0","1000"
"29","29","encoding","encoding","54","C32.jpg","3",".","0","0","1000"
"29","29","encoding","encoding","55","C51.jpg","3",".","37","0","940"
"29","29","encoding","encoding","56","C34.jpg","3",".","0","0","1000"
"29","29","encoding","encoding","57","C8.jpg","3",".","0","0","1000"
"29","29","encoding","encoding","58","C21.jpg","3",".","0","0","1000"
"29","29","encoding","encoding","59","C27.jpg","3",".","0","0","1000"
"29","29","encoding","encoding","60","C49.jpg","3",".","0","0","1000"
"29","29","encoding","encoding","61","C4.jpg","3",".","37","0","927"
"29","29","encoding","encoding","62","C39.jpg","3",".","0","0","1000"
"29","29","encoding","encoding","63","C10.jpg","3",".","37","0","917"
"29","29","encoding","encoding","64","C58.jpg","3",".","0","0","1000"
"29","29","encoding","encoding","65","C0.jpg","3",".","36","0","332"
"29","29","encoding","encoding","67","C41.jpg","3",".","0","0","1000"
"29","29","encoding","encoding","68","C67.jpg","3",".","0","0","1000"
"29","29","encoding","encoding","69","C79.jpg","3",".","0","0","1000"
"29","29","encoding","encoding","70","C78.jpg","3",".","0","0","1000"
"29","29","encoding","encoding","71","C66.jpg","3",".","0","0","1000"
"29","29","encoding","encoding","72","C48.jpg","3",".","37","0","918"
"29","29","encoding","encoding","73","C45.jpg","3",".","37","0","180"
"29","29","encoding","encoding","74","C43.jpg","3",".","0","0","1000"
"29","29","encoding","encoding","75","C4.jpg","3",".","0","0","1000"
"29","29","encoding","encoding","76","D75.jpg","1",".","0","0","1000"
"29","29","encoding","encoding","77","C39.jpg","3",".","0","0","1000"
"29","29","encoding","encoding","78","D67.jpg","1",".","0","0","1000"
"29","29","encoding","encoding","79","C18.jpg","3",".","0","0","1000"
"29","29","encoding","encoding","80","D43.jpg","1",".","37","0","109"
"29","29","encoding","encoding","81","D70.jpg","1",".","0","0","1000"
"29","29","encoding","encoding","82","C65.jpg","3",".","0","0","1000"
"29","29","encoding","encoding","83","C15.jpg","3",".","37","0","87"
"29","29","encoding","encoding","84","C56.jpg","3",".","0","0","1000"
"29","29","encoding","encoding","85","D8.jpg","1",".","0","0","1000"
"29","29","encoding","encoding","86","C41.jpg","3",".","37","0","868"
"29","29","encoding","encoding","87","C6.jpg","3",".","0","0","1000"
"29","29","encoding","encoding","88","C70.jpg","3",".","0","0","1000"
"29","29","encoding","encoding","89","C75.jpg","3",".","37","0","922"
"29","29","encoding","encoding","90","C55.jpg","3",".","0","0","1000"
"29","29","encoding","encoding","91","C74.jpg","3",".","37","0","57"
"29","29","encoding","encoding","92","C55.jpg","3",".","0","0","1000"
"29","29","encoding","encoding","93","C77.jpg","3",".","0","0","1000"
"29","29","encoding","encoding","94","C16.jpg","3",".","37","0","952"
"29","29","encoding","encoding","95","D63.jpg","1",".","0","0","1000"
"29","29","encoding","encoding","96","C19.jpg","3",".","37","0","57"
"29","29","encoding","encoding","97","C29.jpg","3",".","0","0","1000"
"29","29","encoding","encoding","98","D39.jpg","1",".","0","0","1000"
"29","29","encoding","encoding","99","D36.jpg","1",".","0","0","1000"
"29","29","encoding","encoding","100","C69.jpg","3",".","0","0","1000"
"29","29","encoding","encoding","101","C55.jpg","3",".","37","0","925"
"29","29","encoding","encoding","102","C11.jpg","3",".","0","0","1000"
"29","29","encoding","encoding","103","C43.jpg","3",".","0","0","1000"
"29","29","encoding","encoding","104","D45.jpg","1",".","0","0","1000"
"29","29","encoding","encoding","105","C20.jpg","3",".","37","0","919"
"29","29","encoding","encoding","106","D68.jpg","1",".","0","0","1000"
"29","29","encoding","encoding","107","C64.jpg","3",".","0","0","1000"
"29","29","encoding","encoding","108","C9.jpg","3",".","37","0","916"
"29","29","encoding","encoding","109","D7.jpg","1",".","0","0","1000"
"29","29","encoding","encoding","110","C21.jpg","3",".","37","0","96"
"29","29","encoding","encoding","111","C26.jpg","3",".","0","0","1000"
"29","29","encoding","encoding","112","D71.jpg","1",".","0","0","1000"
"29","29","encoding","encoding","113","D2.jpg","1",".","0","0","1000"
"29","29","encoding","encoding","114","D3.jpg","1",".","37","0","965"
"29","29","encoding","encoding","115","C23.jpg","3",".","37","0","962"
"29","29","encoding","encoding","116","C32.jpg","3",".","37","0","961"
"29","29","encoding","encoding","117","C34.jpg","3",".","37","0","980"
"29","29","encoding","encoding","118","C72.jpg","3",".","0","0","1000"
"29","29","encoding","encoding","119","C16.jpg","3",".","37","0","246"
"29","29","encoding","encoding","120","C37.jpg","3",".","0","0","1000"
"29","29","encoding","encoding","121","D6.jpg","1",".","37","0","975"
"29","29","encoding","encoding","122","C36.jpg","3",".","0","0","1000"
"29","29","encoding","encoding","123","C31.jpg","3",".","0","0","1000"
"29","29","encoding","encoding","124","C70.jpg","3",".","37","0","911"
"29","29","encoding","encoding","125","C11.jpg","3",".","0","0","1000"
"29","29","encoding","encoding","126","C18.jpg","3",".","0","0","1000"
"29","29","encoding","encoding","127","D74.jpg","1",".","37","0","929"
"29","29","encoding","encoding","128","C22.jpg","3",".","0","0","1000"
"29","29","encoding","encoding","129","D64.jpg","1",".","0","0","1000"
"29","29","encoding","encoding","130","C27.jpg","3",".","0","0","1000"
"29","29","encoding","encoding","131","C68.jpg","3",".","37","0","943"
"29","29","encoding","encoding","133","D0.jpg","1",".","0","0","1000"
"29","29","encoding","encoding","134","C60.jpg","3",".","37","0","936"
"29","29","encoding","encoding","135","C74.jpg","3",".","0","0","1000"
"29","29","encoding","encoding","136","C62.jpg","3",".","0","0","1000"
"29","29","encoding","encoding","137","C28.jpg","3",".","0","0","1000"
"29","29","encoding","encoding","138","C27.jpg","3",".","37","0","902"
"29","29","encoding","encoding","139","D35.jpg","1",".","0","0","1000"
"29","29","encoding","encoding","140","D50.jpg","1",".","0","0","1000"
"29","29","encoding","encoding","141","D79.jpg","1",".","0","0","1000"
"29","29","encoding","encoding","142","C2.jpg","3",".","0","0","1000"
"29","29","encoding","encoding","143","D10.jpg","1",".","0","0","1000"
"29","29","encoding","encoding","144","C76.jpg","3",".","0","0","1000"
"29","29","encoding","encoding","145","C59.jpg","3",".","37","0","935"
"29","29","encoding","encoding","146","C69.jpg","3",".","37","0","844"
"29","29","encoding","encoding","147","C1.jpg","3",".","0","0","1000"
"29","29","encoding","encoding","148","C24.jpg","3",".","0","0","1000"
"29","29","encoding","encoding","149","D1.jpg","1",".","0","0","1000"
"29","29","encoding","encoding","150","C39.jpg","3",".","0","0","1000"
"29","29","encoding","encoding","151","D57.jpg","1",".","0","0","1000"
"29","29","encoding","encoding","152","C38.jpg","3",".","0","0","1000"
"29","29","encoding","encoding","153","D4.jpg","1",".","0","0","1000"
"29","29","encoding","encoding","154","D52.jpg","1",".","0","0","1000"
"29","29","encoding","encoding","155","D16.jpg","1",".","37","0","922"
"29","29","encoding","encoding","156","C43.jpg","3",".","0","0","1000"
"29","29","encoding","encoding","157","C9.jpg","3",".","37","0","916"
"29","29","encoding","encoding","158","C38.jpg","3",".","37","0","883"
"29","29","encoding","encoding","159","C52.jpg","3",".","0","0","1000"
"29","29","encoding","encoding","160","C76.jpg","3",".","37","0","201"
"29","29","encoding","encoding","161","C9.jpg","3",".","37","0","961"
"29","29","encoding","encoding","162","C77.jpg","3",".","37","0","727"
"29","29","encoding","encoding","163","C15.jpg","3",".","37","0","903"
"29","29","encoding","encoding","164","C33.jpg","3",".","0","0","1000"
"29","29","encoding","encoding","165","C38.jpg","3",".","0","0","1000"
"29","29","encoding","encoding","166","D59.jpg","1",".","0","0","1000"
"29","29","encoding","encoding","167","D40.jpg","1",".","0","0","1000"
"29","29","encoding","encoding","168","C71.jpg","3",".","0","0","1000"
"29","29","encoding","encoding","169","C8.jpg","3",".","0","0","1000"
"29","29","encoding","encoding","170","D58.jpg","1",".","0","0","1000"
"29","29","encoding","encoding","171","C75.jpg","3",".","37","0","795"
"29","29","encoding","encoding","172","C37.jpg","3",".","37","0","979"
"29","29","encoding","encoding","173","C16.jpg","3",".","37","0","804"
"29","29","encoding","encoding","174","C13.jpg","3",".","0","0","1000"
"29","29","encoding","encoding","175","C57.jpg","3",".","37","0","953"
"29","29","encoding","encoding","176","C6.jpg","3",".","37","0","808"
"29","29","encoding","encoding","177","D24.jpg","1",".","0","0","1000"
"29","29","encoding","encoding","178","C67.jpg","3",".","0","0","1000"
"29","29","encoding","encoding","179","D19.jpg","1",".","0","0","1000"
"29","29","encoding","encoding","180","C3.jpg","3",".","0","0","1000"
"29","29","encoding","encoding","181","C15.jpg","3",".","0","0","1000"
"29","29","encoding","encoding","182","C50.jpg","3",".","0","0","1000"
"29","29","encoding","encoding","183","C52.jpg","3",".","0","0","1000"
"29","29","encoding","encoding","184","C7.jpg","3",".","0","0","1000"
"29","29","encoding","encoding","185","C70.jpg","3",".","37","0","891"
"29","29","encoding","encoding","186","D37.jpg","1",".","0","0","1000"
"29","29","encoding","encoding","187","C44.jpg","3",".","0","0","1000"
"29","29","encoding","encoding","188","D26.jpg","1",".","0","0","1000"
"29","29","encoding","encoding","189","C41.jpg","3",".","37","0","866"
"29","29","encoding","encoding","190","C7.jpg","3",".","0","0","1000"
"29","29","encoding","encoding","191","C68.jpg","3",".","37","0","933"
"29","29","encoding","encoding","192","D66.jpg","1",".","0","0","1000"
"29","29","encoding","encoding","193","C79.jpg","3",".","0","0","1000"
"29","29","encoding","encoding","194","C46.jpg","3",".","37","0","910"
"29","29","encoding","encoding","195","D51.jpg","1",".","0","0","1000"
"29","29","encoding","encoding","196","C13.jpg","3",".","0","0","1000"
"29","29","encoding","encoding","197","C29.jpg","3",".","37","0","954"
"29","29","encoding","encoding","199","C19.jpg","3",".","0","0","1000"
"29","29","encoding","encoding","200","D62.jpg","1",".","0","0","1000"
"29","29","encoding","encoding","201","C44.jpg","3",".","37","0","880"
"29","29","encoding","encoding","202","C26.jpg","3",".","37","0","864"
"29","29","encoding","encoding","203","C64.jpg","3",".","0","0","1000"
"29","29","encoding","encoding","204","D42.jpg","1",".","0","0","1000"
"29","29","encoding","encoding","205","D31.jpg","1",".","37","0","956"
"29","29","encoding","encoding","206","C76.jpg","3",".","37","0","953"
"29","29","encoding","encoding","207","C30.jpg","3",".","0","0","1000"
"29","29","encoding","encoding","208","C58.jpg","3",".","0","0","1000"
"29","29","encoding","encoding","209","C69.jpg","3",".","37","0","904"
"29","29","encoding","encoding","210","C49.jpg","3",".","37","0","960"
"29","29","encoding","encoding","211","C50.jpg","3",".","37","0","865"
"29","29","encoding","encoding","212","C22.jpg","3",".","0","0","1000"
"29","29","encoding","encoding","213","D65.jpg","1",".","0","0","1000"
"29","29","encoding","encoding","214","C44.jpg","3",".","37","0","895"
"29","29","encoding","encoding","215","D20.jpg","1",".","0","0","1000"
"29","29","encoding","encoding","216","C31.jpg","3",".","37","0","967"
"29","29","encoding","encoding","217","D69.jpg","1",".","0","0","1000"
"29","29","encoding","encoding","218","C17.jpg","3",".","37","0","877"
"29","29","encoding","encoding","219","C14.jpg","3",".","37","0","821"
"29","29","encoding","encoding","220","D33.jpg","1",".","37","0","939"
"29","29","encoding","encoding","221","C14.jpg","3",".","37","0","890"
"29","29","encoding","encoding","222","D12.jpg","1",".","37","0","977"
"29","29","encoding","encoding","223","C57.jpg","3",".","37","0","921"
"29","29","encoding","encoding","224","C78.jpg","3",".","37","0","978"
"29","29","encoding","encoding","225","C35.jpg","3",".","37","0","828"
"29","29","encoding","encoding","226","C71.jpg","3",".","37","0","880"
"29","29","encoding","encoding","227","C54.jpg","3",".","37","0","833"
"29","29","encoding","encoding","228","C31.jpg","3",".","37","0","953"
"29","29","encoding","encoding","229","C57.jpg","3",".","37","0","828"
"29","29","encoding","encoding","230","D72.jpg","1",".","0","0","1000"
"29","29","encoding","encoding","231","C1.jpg","3",".","0","0","1000"
"29","29","encoding","encoding","232","C49.jpg","3",".","0","0","1000"
"29","29","encoding","encoding","233","D54.jpg","1",".","0","0","1000"
"29","29","encoding","encoding","234","C32.jpg","3",".","37","0","933"
"29","29","encoding","encoding","235","C78.jpg","3",".","37","0","851"
"29","29","encoding","encoding","236","D23.jpg","1",".","37","0","966"
"29","29","encoding","encoding","237","C33.jpg","3",".","0","0","1000"
"29","29","encoding","encoding","238","C66.jpg","3",".","0","0","1000"
"29","29","encoding","encoding","239","D32.jpg","1",".","0","0","1000"
"29","29","encoding","encoding","240","C47.jpg","3",".","37","0","965"
"29","29","encoding","encoding","241","C26.jpg","3",".","37","0","855"
"29","29","encoding","encoding","242","D60.jpg","1",".","0","0","1000"
"29","29","encoding","encoding","243","C12.jpg","3",".","0","0","1000"
"29","29","encoding","encoding","244","C1.jpg","3",".","0","0","1000"
"29","29","encoding","encoding","245","C59.jpg","3",".","37","0","885"
"29","29","encoding","encoding","246","D38.jpg","1",".","37","0","937"
"29","29","encoding","encoding","247","C61.jpg","3",".","37","0","948"
"29","29","encoding","encoding","248","D9.jpg","1",".","37","0","933"
"29","29","encoding","encoding","249","D34.jpg","1",".","0","0","1000"
"29","29","encoding","encoding","250","C17.jpg","3",".","37","0","905"
"29","29","encoding","encoding","251","D18.jpg","1",".","0","0","1000"
"29","29","encoding","encoding","252","C62.jpg","3",".","0","0","1000"
"29","29","encoding","encoding","253","D28.jpg","1",".","0","0","1000"
"29","29","encoding","encoding","254","C65.jpg","3",".","0","0","1000"
"29","29","encoding","encoding","255","C52.jpg","3",".","37","0","207"
"29","29","encoding","encoding","256","C24.jpg","3",".","37","0","840"
"29","29","encoding","encoding","257","C46.jpg","3",".","0","0","1000"
"29","29","encoding","encoding","258","D48.jpg","1",".","37","0","818"
"29","29","encoding","encoding","259","C34.jpg","3",".","37","0","896"
"29","29","encoding","encoding","260","C47.jpg","3",".","37","0","875"
"29","29","encoding","encoding","261","C25.jpg","3",".","37","0","835"
"29","29","encoding","encoding","262","C65.jpg","3",".","37","0","811"
"29","29","encoding","encoding","263","C20.jpg","3",".","37","0","811"
"29","29","encoding","encoding","265","C60.jpg","3",".","0","0","1000"
"29","29","encoding","encoding","266","C67.jpg","3",".","0","0","1000"
"29","29","encoding","encoding","267","C2.jpg","3",".","37","0","922"
"29","29","encoding","encoding","268","C77.jpg","3",".","36","0","918"
"29","29","encoding","encoding","269","C51.jpg","3",".","37","0","939"
"29","29","encoding","encoding","270","C11.jpg","3",".","37","0","925"
"29","29","encoding","encoding","271","C71.jpg","3",".","37","0","841"
"29","29","encoding","encoding","272","C6.jpg","3",".","37","0","791"
"29","29","encoding","encoding","273","C3.jpg","3",".","37","0","951"
"29","29","encoding","encoding","274","C0.jpg","3",".","0","0","1000"
"29","29","encoding","encoding","275","C5.jpg","3",".","37","0","814"
"29","29","encoding","encoding","276","C61.jpg","3",".","37","0","933"
"29","29","encoding","encoding","277","C42.jpg","3",".","37","0","938"
"29","29","encoding","encoding","278","C21.jpg","3",".","0","0","1000"
"29","29","encoding","encoding","279","C53.jpg","3",".","37","0","930"
"29","29","encoding","encoding","280","D61.jpg","1",".","0","0","1000"
"29","29","encoding","encoding","281","C18.jpg","3",".","37","0","142"
"29","29","encoding","encoding","282","C5.jpg","3",".","37","0","784"
"29","29","encoding","encoding","283","D47.jpg","1",".","37","0","937"
"29","29","encoding","encoding","284","C64.jpg","3",".","37","0","856"
"29","29","encoding","encoding","285","C58.jpg","3",".","0","0","1000"
"29","29","encoding","encoding","286","C63.jpg","3",".","37","0","950"
"29","29","encoding","encoding","287","C66.jpg","3",".","37","0","844"
"29","29","encoding","encoding","288","D5.jpg","1",".","0","0","1000"
"29","29","encoding","encoding","289","C74.jpg","3",".","0","0","1000"
"29","29","encoding","encoding","290","C3.jpg","3",".","0","0","1000"
"29","29","encoding","encoding","291","C45.jpg","3",".","37","0","964"
"29","29","encoding","encoding","292","D78.jpg","1",".","0","0","1000"
"29","29","encoding","encoding","293","C30.jpg","3",".","37","0","526"
"29","29","encoding","encoding","294","D27.jpg","1",".","37","0","865"
"29","29","encoding","encoding","295","C54.jpg","3",".","37","0","783"
"29","29","encoding","encoding","296","C33.jpg","3",".","37","0","880"
"29","29","encoding","encoding","297","D14.jpg","1",".","37","0","799"
"29","29","encoding","encoding","298","D55.jpg","1",".","0","0","1000"
"29","29","encoding","encoding","299","C75.jpg","3",".","37","0","766"
"29","29","encoding","encoding","300","C40.jpg","3",".","0","0","1000"
"29","29","encoding","encoding","301","C8.jpg","3",".","37","0","821"
"29","29","encoding","encoding","302","D44.jpg","1",".","37","0","921"
"29","29","encoding","encoding","303","D41.jpg","1",".","37","0","765"
"29","29","encoding","encoding","304","C53.jpg","3",".","37","0","983"
"29","29","encoding","encoding","305","D22.jpg","1",".","0","0","1000"
"29","29","encoding","encoding","306","D46.jpg","1",".","37","0","970"
"29","29","encoding","encoding","307","C36.jpg","3",".","37","0","935"
"29","29","encoding","encoding","308","C30.jpg","3",".","37","0","910"
"29","29","encoding","encoding","309","C5.jpg","3",".","37","0","821"
"29","29","encoding","encoding","310","C14.jpg","3",".","37","0","898"
"29","29","encoding","encoding","311","C22.jpg","3",".","37","0","893"
"29","29","encoding","encoding","312","C23.jpg","3",".","0","0","1000"
"29","29","encoding","encoding","313","D30.jpg","1",".","0","0","1000"
"29","29","encoding","encoding","314","C29.jpg","3",".","37","0","581"
"29","29","encoding","encoding","315","C68.jpg","3",".","37","0","513"
"29","29","encoding","encoding","316","C72.jpg","3",".","0","0","1000"
"29","29","encoding","encoding","317","D56.jpg","1",".","37","0","142"
"29","29","encoding","encoding","318","D76.jpg","1",".","37","0","843"
"29","29","encoding","encoding","319","D25.jpg","1",".","0","0","1000"
"29","29","encoding","encoding","320","C35.jpg","3",".","36","0","598"
"29","29","encoding","encoding","321","C72.jpg","3",".","0","0","1000"
"29","29","encoding","encoding","322","C40.jpg","3",".","0","0","1000"
"29","29","encoding","encoding","323","D15.jpg","1",".","37","0","971"
"29","29","encoding","encoding","324","C50.jpg","3",".","37","0","748"
"29","29","encoding","encoding","325","C51.jpg","",".","37","0","778"
"29","29","retrieval","new_object","1","B0.jpg",".",".","37","1","1699"
"29","29","retrieval","new_object","2","B25.jpg",".",".","37","1","1239"
"29","29","retrieval","old_object","3","D70.jpg",".","1","0","0","2000"
"29","29","retrieval","new_object","4","B26.jpg",".",".","37","1","1364"
"29","29","retrieval","old_object","5","C25.jpg",".","3","36","1","1225"
"29","29","retrieval","old_object","6","C34.jpg",".","3","36","1","1186"
"29","29","retrieval","new_object","7","A23.jpg",".",".","37","1","1687"
"29","29","retrieval","new_object","8","B3.jpg",".",".","37","1","1469"
"29","29","retrieval","new_object","9","B59.jpg",".",".","0","0","2000"
"29","29","retrieval","old_object","10","D75.jpg",".","1","37","0","1385"
"29","29","retrieval","new_object","11","A65.jpg",".",".","37","1","1439"
"29","29","retrieval","new_object","12","B40.jpg",".",".","0","0","2000"
"29","29","retrieval","new_object","13","B32.jpg",".",".","37","1","1936"
"29","29","retrieval","old_object","14","C79.jpg",".","3","36","1","1013"
"29","29","retrieval","old_object","15","C33.jpg",".","3","36","1","1069"
"29","29","retrieval","new_object","16","B55.jpg",".",".","0","0","2000"
"29","29","retrieval","new_object","17","B21.jpg",".",".","37","1","46"
"29","29","retrieval","old_object","18","D67.jpg",".","1","36","1","1349"
"29","29","retrieval","old_object","19","C50.jpg",".","3","36","1","1379"
"29","29","retrieval","new_object","20","A15.jpg",".",".","0","0","2000"
"29","29","retrieval","new_object","21","B24.jpg",".",".","37","1","1904"
"29","29","retrieval","new_object","22","B19.jpg",".",".","0","0","2000"
"29","29","retrieval","new_object","23","A21.jpg",".",".","37","1","164"
"29","29","retrieval","new_object","24","A9.jpg",".",".","37","1","1095"
"29","29","retrieval","new_object","25","A63.jpg",".",".","37","1","1266"
"29","29","retrieval","old_object","26","D46.jpg",".","1","36","1","1302"
"29","29","retrieval","new_object","27","A26.jpg",".",".","37","1","1665"
"29","29","retrieval","new_object","28","B34.jpg",".",".","0","0","2000"
"29","29","retrieval","old_object","29","C77.jpg",".","3","36","1","1071"
"29","29","retrieval","new_object","30","A22.jpg",".",".","37","1","1421"
"29","29","retrieval","old_object","31","D33.jpg",".","1","36","1","1496"
"29","29","retrieval","new_object","32","B78.jpg",".",".","37","1","1317"
"29","29","retrieval","old_object","33","C61.jpg",".","3","36","1","1200"
"29","29","retrieval","new_object","34","A54.jpg",".",".","37","1","1150"
"29","29","retrieval","old_object","35","C36.jpg",".","3","36","1","1293"
"29","29","retrieval","old_object","36","D59.jpg",".","1","36","1","1302"
"29","29","retrieval","new_object","37","A25.jpg",".",".","0","0","2000"
"29","29","retrieval","new_object","38","A56.jpg",".",".","37","1","1389"
"29","29","retrieval","old_object","39","D16.jpg",".","1","37","0","1148"
"29","29","retrieval","new_object","40","B51.jpg",".",".","37","1","1379"
"29","29","retrieval","new_object","41","B79.jpg",".",".","37","1","1120"
"29","29","retrieval","new_object","42","A55.jpg",".",".","37","1","1273"
"29","29","retrieval","new_object","43","A24.jpg",".",".","37","1","1246"
"29","29","retrieval","new_object","44","B39.jpg",".",".","37","1","1560"
"29","29","retrieval","old_object","45","D12.jpg",".","1","36","1","1300"
"29","29","retrieval","old_object","46","C52.jpg",".","3","36","1","1194"
"29","29","retrieval","new_object","47","B69.jpg",".",".","37","1","1166"
"29","29","retrieval","old_object","48","C76.jpg",".","3","36","1","1372"
"29","29","retrieval","new_object","49","B65.jpg",".",".","0","0","2000"
"29","29","retrieval","new_object","50","B13.jpg",".",".","37","1","1509"
"29","29","retrieval","new_object","51","B8.jpg",".",".","36","0","1426"
"29","29","retrieval","old_object","52","D78.jpg",".","1","36","1","1334"
"29","29","retrieval","new_object","53","B14.jpg",".",".","0","0","2000"
"29","29","retrieval","old_object","54","C68.jpg",".","3","36","1","1274"
"29","29","retrieval","old_object","55","C42.jpg",".","3","36","1","1315"
"29","29","retrieval","old_object","56","C58.jpg",".","3","36","1","1137"
"29","29","retrieval","old_object","57","C27.jpg",".","3","36","1","1220"
"29","29","retrieval","new_object","58","A27.jpg",".",".","0","0","2000"
"29","29","retrieval","new_object","59","A12.jpg",".",".","37","1","862"
"29","29","retrieval","old_object","60","D21.jpg",".","1","36","1","1281"
"29","29","retrieval","old_object","61","D25.jpg",".","1","36","1","1176"
"29","29","retrieval","new_object","62","A18.jpg",".",".","37","1","1425"
"29","29","retrieval","new_object","63","B1.jpg",".",".","0","0","2000"
"29","29","retrieval","new_object","64","B76.jpg",".",".","37","1","1168"
"29","29","retrieval","old_object","65","C10.jpg",".","3","36","1","1311"
"29","29","retrieval","new_object","67","A2.jpg",".",".","37","1","1208"
"29","29","retrieval","old_object","68","D55.jpg",".","1","37","0","1173"
"29","29","retrieval","old_object","69","D15.jpg",".","1","36","1","1478"
"29","29","retrieval","new_object","70","A70.jpg",".",".","37","1","1553"
"29","29","retrieval","new_object","71","B53.jpg",".",".","37","1","1107"
"29","29","retrieval","new_object","72","B57.jpg",".",".","37","1","1319"
"29","29","retrieval","new_object","73","A57.jpg",".",".","36","0","1611"
"29","29","retrieval","old_object","74","D7.jpg",".","1","0","0","2000"
"29","29","retrieval","new_object","75","B60.jpg",".",".","37","1","1213"
"29","29","retrieval","old_object","76","C72.jpg",".","3","36","1","1231"
"29","29","retrieval","new_object","77","A72.jpg",".",".","37","1","1148"
"29","29","retrieval","old_object","78","C30.jpg",".","3","36","1","1132"
"29","29","retrieval","old_object","79","D71.jpg",".","1","36","1","1799"
"29","29","retrieval","old_object","80","D65.jpg",".","1","0","0","2000"
"29","29","retrieval","old_object","81","C47.jpg",".","3","36","1","1270"
"29","29","retrieval","old_object","82","C14.jpg",".","3","36","1","1266"
"29","29","retrieval","old_object","83","C28.jpg",".","3","36","1","990"
"29","29","retrieval","old_object","84","C45.jpg",".","3","36","1","1111"
"29","29","retrieval","old_object","85","C19.jpg",".","3","36","1","1199"
"29","29","retrieval","old_object","86","C75.jpg",".","3","36","1","1198"
"29","29","retrieval","old_object","87","D34.jpg",".","1","36","1","1268"
"29","29","retrieval","new_object","88","B62.jpg",".",".","37","1","1181"
"29","29","retrieval","new_object","89","B68.jpg",".",".","37","1","1281"
"29","29","retrieval","new_object","90","B38.jpg",".",".","37","1","1328"
"29","29","retrieval","new_object","91","B18.jpg",".",".","0","0","2000"
"29","29","retrieval","old_object","92","C67.jpg",".","3","36","1","1112"
"29","29","retrieval","new_object","93","A40.jpg",".",".","0","0","2000"
"29","29","retrieval","new_object","94","B63.jpg",".",".","37","1","1196"
"29","29","retrieval","old_object","95","C8.jpg",".","3","36","1","1512"
"29","29","retrieval","old_object","96","D8.jpg",".","1","37","0","1032"
"29","29","retrieval","old_object","97","C22.jpg",".","3","37","0","1227"
"29","29","retrieval","old_object","98","C12.jpg",".","3","37","0","1421"
"29","29","retrieval","old_object","99","D13.jpg",".","1","36","1","1301"
"29","29","retrieval","old_object","100","C0.jpg",".","3","36","1","1166"
"29","29","retrieval","old_object","101","D3.jpg",".","1","36","1","1737"
"29","29","retrieval","new_object","102","A46.jpg",".",".","37","1","1362"
"29","29","retrieval","old_object","103","D35.jpg",".","1","36","1","1352"
"29","29","retrieval","old_object","104","D62.jpg",".","1","36","1","1183"
"29","29","retrieval","old_object","105","D28.jpg",".","1","0","0","2000"
"29","29","retrieval","old_object","106","D42.jpg",".","1","37","0","1389"
"29","29","retrieval","new_object","107","A36.jpg",".",".","36","0","1496"
"29","29","retrieval","new_object","108","A53.jpg",".",".","0","0","2000"
"29","29","retrieval","new_object","109","B37.jpg",".",".","37","1","1224"
"29","29","retrieval","old_object","110","C32.jpg",".","3","36","1","1227"
"29","29","retrieval","old_object","111","D10.jpg",".","1","36","1","1243"
"29","29","retrieval","old_object","112","C37.jpg",".","3","36","1","1105"
"29","29","retrieval","old_object","113","D79.jpg",".","1","37","0","1626"
"29","29","retrieval","old_object","114","C3.jpg",".","3","36","1","1169"
"29","29","retrieval","old_object","115","C65.jpg",".","3","36","1","1469"
"29","29","retrieval","new_object","116","A29.jpg",".",".","37","1","1457"
"29","29","retrieval","old_object","117","C20.jpg",".","3","36","1","1351"
"29","29","retrieval","old_object","118","D56.jpg",".","1","36","1","1182"
"29","29","retrieval","new_object","119","A50.jpg",".",".","37","1","1318"
"29","29","retrieval","new_object","120","B66.jpg",".",".","37","1","1643"
"29","29","retrieval","new_object","121","A7.jpg",".",".","37","1","1399"
"29","29","retrieval","new_object","122","B64.jpg",".",".","37","1","1724"
"29","29","retrieval","old_object","123","D27.jpg",".","1","37","0","1522"
"29","29","retrieval","new_object","124","A60.jpg",".",".","37","1","1485"
"29","29","retrieval","new_object","125","A6.jpg",".",".","37","1","1561"
"29","29","retrieval","new_object","126","B29.jpg",".",".","37","1","1270"
"29","29","retrieval","new_object","127","A5.jpg",".",".","37","1","1825"
"29","29","retrieval","new_object","128","B43.jpg",".",".","37","1","1437"
"29","29","retrieval","old_object","129","C26.jpg",".","3","36","1","1247"
"29","29","retrieval","old_object","130","D76.jpg",".","1","36","1","1529"
"29","29","retrieval","old_object","131","D68.jpg",".","1","36","1","1565"
"29","29","retrieval","new_object","133","B28.jpg",".",".","37","1","1611"
"29","29","retrieval","new_object","134","B52.jpg",".",".","37","1","1248"
"29","29","retrieval","old_object","135","C4.jpg",".","3","36","1","1150"
"29","29","retrieval","old_object","136","C31.jpg",".","3","36","1","1379"
"29","29","retrieval","new_object","137","B77.jpg",".",".","37","1","1436"
"29","29","retrieval","old_object","138","D60.jpg",".","1","36","1","1219"
"29","29","retrieval","new_object","139","A41.jpg",".",".","37","1","1194"
"29","29","retrieval","new_object","140","A76.jpg",".",".","37","1","1686"
"29","29","retrieval","new_object","141","A34.jpg",".",".","37","1","1390"
"29","29","retrieval","new_object","142","A13.jpg",".",".","37","1","1207"
"29","29","retrieval","old_object","143","D54.jpg",".","1","36","1","1060"
"29","29","retrieval","old_object","144","C73.jpg",".","3","36","1","1286"
"29","29","retrieval","new_object","145","A0.jpg",".",".","37","1","1460"
"29","29","retrieval","new_object","146","A30.jpg",".",".","37","1","1468"
"29","29","retrieval","new_object","147","A33.jpg",".",".","36","0","1236"
"29","29","retrieval","new_object","148","A79.jpg",".",".","37","1","1539"
"29","29","retrieval","new_object","149","A37.jpg",".",".","37","1","1639"
"29","29","retrieval","old_object","150","C23.jpg",".","3","36","1","1091"
"29","29","retrieval","new_object","151","B73.jpg",".",".","37","1","1285"
"29","29","retrieval","old_object","152","D58.jpg",".","1","36","1","1249"
"29","29","retrieval","old_object","153","C43.jpg",".","3","36","1","1256"
"29","29","retrieval","new_object","154","B9.jpg",".",".","37","1","1349"
"29","29","retrieval","new_object","155","B45.jpg",".",".","37","1","1229"
"29","29","retrieval","new_object","156","B41.jpg",".",".","37","1","1556"
"29","29","retrieval","old_object","157","D72.jpg",".","1","37","0","1187"
"29","29","retrieval","old_object","158","C49.jpg",".","3","36","1","1180"
"29","29","retrieval","old_object","159","C1.jpg",".","3","36","1","1206"
"29","29","retrieval","new_object","160","A8.jpg",".",".","37","1","1302"
"29","29","retrieval","old_object","161","C38.jpg",".","3","37","0","1494"
"29","29","retrieval","old_object","162","D37.jpg",".","1","36","1","1161"
"29","29","retrieval","new_object","163","B58.jpg",".",".","37","1","1261"
"29","29","retrieval","old_object","164","C41.jpg",".","3","36","1","1316"
"29","29","retrieval","new_object","165","B35.jpg",".",".","37","1","1368"
"29","29","retrieval","old_object","166","D40.jpg",".","1","37","0","1282"
"29","29","retrieval","new_object","167","B16.jpg",".",".","37","1","1273"
"29","29","retrieval","new_object","168","B74.jpg",".",".","37","1","1386"
"29","29","retrieval","new_object","169","B23.jpg",".",".","37","1","1357"
"29","29","retrieval","new_object","170","A78.jpg",".",".","37","1","1634"
"29","29","retrieval","old_object","171","C24.jpg",".","3","36","1","1499"
"29","29","retrieval","old_object","172","D77.jpg",".","1","37","0","1794"
"29","29","retrieval","new_object","173","B71.jpg",".",".","37","1","1283"
"29","29","retrieval","new_object","174","B67.jpg",".",".","37","1","1795"
"29","29","retrieval","new_object","175","B44.jpg",".",".","37","1","1829"
"29","29","retrieval","new_object","176","A69.jpg",".",".","37","1","1370"
"29","29","retrieval","new_object","177","A35.jpg",".",".","37","1","1462"
"29","29","retrieval","new_object","178","A16.jpg",".",".","36","0","1616"
"29","29","retrieval","old_object","179","D63.jpg",".","1","37","0","1431"
"29","29","retrieval","new_object","180","B36.jpg",".",".","37","1","1383"
"29","29","retrieval","new_object","181","B46.jpg",".",".","37","1","1286"
"29","29","retrieval","old_object","182","D19.jpg",".","1","36","1","1302"
"29","29","retrieval","new_object","183","A59.jpg",".",".","37","1","1375"
"29","29","retrieval","new_object","184","B20.jpg",".",".","37","1","1419"
"29","29","retrieval","new_object","185","B7.jpg",".",".","37","1","1299"
"29","29","retrieval","old_object","186","D14.jpg",".","1","37","0","1321"
"29","29","retrieval","new_object","187","B17.jpg",".",".","37","1","1232"
"29","29","retrieval","old_object","188","D39.jpg",".","1","36","1","1255"
"29","29","retrieval","new_object","189","A19.jpg",".",".","37","1","1386"
"29","29","retrieval","new_object","190","B50.jpg",".",".","37","1","1184"
"29","29","retrieval","new_object","191","A11.jpg",".",".","37","1","1385"
"29","29","retrieval","old_object","192","D73.jpg",".","1","36","1","1499"
"29","29","retrieval","new_object","193","B61.jpg",".",".","37","1","1447"
"29","29","retrieval","old_object","194","D51.jpg",".","1","36","1","1422"
"29","29","retrieval","new_object","195","A66.jpg",".",".","37","1","1336"
"29","29","retrieval","old_object","196","C55.jpg",".","3","37","0","1247"
"29","29","retrieval","new_object","197","B33.jpg",".",".","37","1","1195"
"29","29","retrieval","new_object","199","B10.jpg",".",".","37","1","1356"
"29","29","retrieval","old_object","200","C35.jpg",".","3","36","1","1156"
"29","29","retrieval","old_object","201","D57.jpg",".","1","36","1","1164"
"29","29","retrieval","old_object","202","D31.jpg",".","1","37","0","1099"
"29","29","retrieval","new_object","203","A14.jpg",".",".","37","1","1635"
"29","29","retrieval","old_object","204","C6.jpg",".","3","36","1","1167"
"29","29","retrieval","old_object","205","C11.jpg",".","3","36","1","1211"
"29","29","retrieval","old_object","206","C70.jpg",".","3","37","0","1623"
"29","29","retrieval","old_object","207","D20.jpg",".","1","37","0","1439"
"29","29","retrieval","old_object","208","C63.jpg",".","3","36","1","1132"
"29","29","retrieval","old_object","209","C17.jpg",".","3","36","1","1060"
"29","29","retrieval","new_object","210","A28.jpg",".",".","37","1","1465"
"29","29","retrieval","old_object","211","D74.jpg",".","1","37","0","1491"
"29","29","retrieval","old_object","212","D41.jpg",".","1","36","1","1273"
"29","29","retrieval","old_object","213","C39.jpg",".","3","36","1","1155"
"29","29","retrieval","old_object","214","C51.jpg",".","3","36","1","1282"
"29","29","retrieval","old_object","215","C71.jpg",".","3","37","0","1624"
"29","29","retrieval","new_object","216","A68.jpg",".",".","37","1","1334"
"29","29","retrieval","old_object","217","D48.jpg",".","1","36","1","1321"
"29","29","retrieval","new_object","218","A32.jpg",".",".","37","1","1301"
"29","29","retrieval","old_object","219","C29.jpg",".","3","36","1","1072"
"29","29","retrieval","old_object","220","D2.jpg",".","1","37","0","1450"
"29","29","retrieval","new_object","221","A17.jpg",".",".","36","0","1729"
"29","29","retrieval","new_object","222","B49.jpg",".",".","37","1","1335"
"29","29","retrieval","new_object","223","A44.jpg",".",".","37","1","1412"
"29","29","retrieval","old_object","224","D5.jpg",".","1","36","1","1315"
"29","29","retrieval","new_object","225","B2.jpg",".",".","37","1","1352"
"29","29","retrieval","old_object","226","D45.jpg",".","1","36","1","1433"
"29","29","retrieval","new_object","227","B15.jpg",".",".","37","1","1167"
"29","29","retrieval","old_object","228","C62.jpg",".","3","36","1","1205"
"29","29","retrieval","new_object","229","A64.jpg",".",".","37","1","1794"
"29","29","retrieval","new_object","230","A51.jpg",".",".","37","1","1180"
"29","29","retrieval","old_object","231","C60.jpg",".","3","37","0","1134"
"29","29","retrieval","old_object","232","D64.jpg",".","1","36","1","1184"
"29","29","retrieval","new_object","233","A45.jpg",".",".","37","1","1675"
"29","29","retrieval","old_object","234","C21.jpg",".","3","36","1","1422"
"29","29","retrieval","new_object","235","B31.jpg",".",".","37","1","1391"
"29","29","retrieval","old_object","236","C78.jpg",".","3","36","1","1127"
"29","29","retrieval","old_object","237","D1.jpg",".","1","36","1","1212"
"29","29","retrieval","old_object","238","C40.jpg",".","3","36","1","1491"
"29","29","retrieval","new_object","239","B11.jpg",".",".","37","1","1291"
"29","29","retrieval","old_object","240","C66.jpg",".","3","36","1","1159"
"29","29","retrieval","old_object","241","D43.jpg",".","1","36","1","1382"
"29","29","retrieval","old_object","242","D52.jpg",".","1","37","0","1363"
"29","29","retrieval","old_object","243","D69.jpg",".","1","0","0","2000"
"29","29","retrieval","new_object","244","B54.jpg",".",".","37","1","1019"
"29","29","retrieval","new_object","245","A58.jpg",".",".","37","1","1090"
"29","29","retrieval","new_object","246","B70.jpg",".",".","37","1","1619"
"29","29","retrieval","new_object","247","B48.jpg",".",".","37","1","1282"
"29","29","retrieval","old_object","248","D49.jpg",".","1","36","1","1227"
"29","29","retrieval","new_object","249","A71.jpg",".",".","37","1","1155"
"29","29","retrieval","old_object","250","D22.jpg",".","1","36","1","1322"
"29","29","retrieval","old_object","251","D61.jpg",".","1","36","1","1370"
"29","29","retrieval","new_object","252","A1.jpg",".",".","37","1","1796"
"29","29","retrieval","old_object","253","D17.jpg",".","1","36","1","1125"
"29","29","retrieval","old_object","254","D11.jpg",".","1","36","1","1360"
"29","29","retrieval","old_object","255","C57.jpg",".","3","36","1","1377"
"29","29","retrieval","old_object","256","D26.jpg",".","1","36","1","1053"
"29","29","retrieval","new_object","257","B6.jpg",".",".","37","1","1917"
"29","29","retrieval","old_object","258","C46.jpg",".","3","36","1","1232"
"29","29","retrieval","new_object","259","B56.jpg",".",".","36","0","1244"
"29","29","retrieval","new_object","260","A67.jpg",".",".","37","1","1375"
"29","29","retrieval","new_object","261","A4.jpg",".",".","37","1","1320"
"29","29","retrieval","old_object","262","C5.jpg",".","3","36","1","1023"
"29","29","retrieval","old_object","263","D38.jpg",".","1","36","1","1169"
"29","29","retrieval","old_object","265","C7.jpg",".","3","36","1","1430"
"29","29","retrieval","new_object","266","B72.jpg",".",".","37","1","1572"
"29","29","retrieval","old_object","267","C9.jpg",".","3","36","1","1075"
"29","29","retrieval","new_object","268","A10.jpg",".",".","37","1","1211"
"29","29","retrieval","new_object","269","A48.jpg",".",".","37","1","1450"
"29","29","retrieval","new_object","270","A77.jpg",".",".","37","1","1309"
"29","29","retrieval","old_object","271","D23.jpg",".","1","36","1","1159"
"29","29","retrieval","old_object","272","D47.jpg",".","1","36","1","1095"
"29","29","retrieval","new_object","273","A38.jpg",".",".","36","0","1147"
"29","29","retrieval","old_object","274","C13.jpg",".","3","36","1","1097"
"29","29","retrieval","old_object","275","D18.jpg",".","1","36","1","1178"
"29","29","retrieval","old_object","276","C15.jpg",".","3","36","1","1122"
"29","29","retrieval","new_object","277","A47.jpg",".",".","37","1","1377"
"29","29","retrieval","new_object","278","A49.jpg",".",".","37","1","1652"
"29","29","retrieval","old_object","279","D9.jpg",".","1","37","0","1590"
"29","29","retrieval","old_object","280","D6.jpg",".","1","36","1","1332"
"29","29","retrieval","old_object","281","D53.jpg",".","1","37","0","1612"
"29","29","retrieval","old_object","282","C53.jpg",".","3","36","1","1125"
"29","29","retrieval","new_object","283","A31.jpg",".",".","37","1","1225"
"29","29","retrieval","new_object","284","A52.jpg",".",".","37","1","1087"
"29","29","retrieval","new_object","285","B75.jpg",".",".","37","1","1024"
"29","29","retrieval","new_object","286","A42.jpg",".",".","37","1","1127"
"29","29","retrieval","old_object","287","D36.jpg",".","1","36","1","1307"
"29","29","retrieval","new_object","288","B22.jpg",".",".","36","0","1274"
"29","29","retrieval","new_object","289","B30.jpg",".",".","37","1","1263"
"29","29","retrieval","new_object","290","A75.jpg",".",".","37","1","1345"
"29","29","retrieval","old_object","291","D29.jpg",".","1","36","1","1344"
"29","29","retrieval","old_object","292","C18.jpg",".","3","37","0","1353"
"29","29","retrieval","old_object","293","D66.jpg",".","1","37","0","1653"
"29","29","retrieval","old_object","294","D44.jpg",".","1","36","1","1011"
"29","29","retrieval","old_object","295","D30.jpg",".","1","36","1","1216"
"29","29","retrieval","old_object","296","C44.jpg",".","3","36","1","1112"
"29","29","retrieval","new_object","297","A73.jpg",".",".","37","1","1251"
"29","29","retrieval","new_object","298","B4.jpg",".",".","37","1","1299"
"29","29","retrieval","old_object","299","D0.jpg",".","1","36","1","1014"
"29","29","retrieval","new_object","300","A39.jpg",".",".","37","1","1220"
"29","29","retrieval","new_object","301","B27.jpg",".",".","37","1","1188"
"29","29","retrieval","old_object","302","C54.jpg",".","3","37","0","1302"
"29","29","retrieval","old_object","303","D32.jpg",".","1","37","0","1466"
"29","29","retrieval","new_object","304","A62.jpg",".",".","37","1","1419"
"29","29","retrieval","new_object","305","A3.jpg",".",".","37","1","1360"
"29","29","retrieval","new_object","306","A20.jpg",".",".","37","1","1386"
"29","29","retrieval","old_object","307","C16.jpg",".","3","36","1","1203"
"29","29","retrieval","old_object","308","C69.jpg",".","3","36","1","1221"
"29","29","retrieval","old_object","309","C64.jpg",".","3","36","1","1170"
"29","29","retrieval","new_object","310","B5.jpg",".",".","37","1","1360"
"29","29","retrieval","old_object","311","D4.jpg",".","1","36","1","1139"
"29","29","retrieval","new_object","312","A43.jpg",".",".","37","1","1263"
"29","29","retrieval","new_object","313","A61.jpg",".",".","0","0","2000"
"29","29","retrieval","old_object","314","C48.jpg",".","3","37","0","1256"
"29","29","retrieval","old_object","315","D24.jpg",".","1","36","1","1975"
"29","29","retrieval","old_object","316","C59.jpg",".","3","36","1","1182"
"29","29","retrieval","new_object","317","B12.jpg",".",".","37","1","1428"
"29","29","retrieval","new_object","318","B42.jpg",".",".","37","1","1334"
"29","29","retrieval","old_object","319","C2.jpg",".","3","36","1","1296"
"29","29","retrieval","old_object","320","C74.jpg",".","3","36","1","1196"
"29","29","retrieval","new_object","321","B47.jpg",".",".","36","0","1091"
"29","29","retrieval","old_object","322","C56.jpg",".","3","36","1","1085"
"29","29","retrieval","old_object","323","D50.jpg",".","1","36","1","1194"
"29","29","retrieval","new_object","324","A74.jpg",".",".","37","1","1375"
"29","29","retrieval","old_object","325","D70.jpg",".","","36","1","1344"
"29","29","demographics_block","gender","1",".",".",".","Male","1","35878"
"29","29","demographics_block","age","1",".",".",".","43","1","35878"
"29","29","demographics_block","education","1",".",".",".","17","1","35878"
"29","29","demographics_block","left_right_handed","2",".",".",".","Right","1","13944"
"29","29","demographics_block","raceoption1","2",".",".",".","0","1","13944"
"29","29","demographics_block","raceoption2","2",".",".",".","","1","13944"
"29","29","demographics_block","raceoption3","2",".",".",".","","1","13944"
"29","29","demographics_block","raceoption4","2",".",".",".","","1","13944"
"29","29","demographics_block","raceoption5","2",".",".",".","","1","13944"
"29","29","demographics_block","raceoption6","2",".",".",".","","1","13944"
"29","29","demographics_block","raceoption7","2",".",".",".","","1","13944"
"29","29","demographics_block","raceoption8","2",".",".",".","","1","13944"
"29","29","demographics_block","raceoption9","2",".",".",".","","1","13944"
"29","29","demographics_block","raceother","2",".",".",".","","1","13944"
"29","29","demographics_block","raceother","2",".",".",".","","1","13944"
"29","29","demographics_block","english_language","2",".",".",".","Yes","1","13944"
"29","29","demographics_block","other","2",".",".",".","","1","13944"
"29","29","demographics_block","eyesight","3",".",".",".","Yes","1","16453"
"29","29","demographics_block","colorblind","3",".",".",".","No","1","16453"
"33","33","encoding","encoding","1","C51.jpg","3",".","37","0","737"
"33","33","encoding","encoding","2","C10.jpg","3",".","37","0","739"
"33","33","encoding","encoding","3","C54.jpg","3",".","37","0","653"
"33","33","encoding","encoding","4","D49.jpg","1",".","36","0","671"
"33","33","encoding","encoding","5","C60.jpg","3",".","37","0","729"
"33","33","encoding","encoding","6","C24.jpg","3",".","0","0","1009"
"33","33","encoding","encoding","7","C25.jpg","3",".","37","0","949"
"33","33","encoding","encoding","8","C25.jpg","3",".","37","0","575"
"33","33","encoding","encoding","9","C63.jpg","3",".","37","0","761"
"33","33","encoding","encoding","10","C48.jpg","3",".","37","0","611"
"33","33","encoding","encoding","11","C56.jpg","3",".","37","0","989"
"33","33","encoding","encoding","12","C28.jpg","3",".","37","0","695"
"33","33","encoding","encoding","13","C73.jpg","3",".","36","0","801"
"33","33","encoding","encoding","14","C40.jpg","3",".","37","0","523"
"33","33","encoding","encoding","15","C42.jpg","3",".","37","0","581"
"33","33","encoding","encoding","16","C63.jpg","3",".","37","0","671"
"33","33","encoding","encoding","17","D17.jpg","1",".","37","0","657"
"33","33","encoding","encoding","18","C35.jpg","3",".","37","0","787"
"33","33","encoding","encoding","19","D73.jpg","1",".","37","0","565"
"33","33","encoding","encoding","20","C42.jpg","3",".","37","0","591"
"33","33","encoding","encoding","21","C36.jpg","3",".","37","0","842"
"33","33","encoding","encoding","22","C19.jpg","3",".","36","0","644"
"33","33","encoding","encoding","23","D77.jpg","1",".","37","0","486"
"33","33","encoding","encoding","24","C48.jpg","3",".","37","0","544"
"33","33","encoding","encoding","25","C28.jpg","3",".","37","0","715"
"33","33","encoding","encoding","26","C23.jpg","3",".","37","0","700"
"33","33","encoding","encoding","27","C47.jpg","3",".","37","0","454"
"33","33","encoding","encoding","28","C73.jpg","3",".","36","0","585"
"33","33","encoding","encoding","29","C46.jpg","3",".","37","0","386"
"33","33","encoding","encoding","30","C56.jpg","3",".","37","0","676"
"33","33","encoding","encoding","31","C10.jpg","3",".","37","0","934"
"33","33","encoding","encoding","32","C79.jpg","3",".","36","0","736"
"33","33","encoding","encoding","33","D13.jpg","1",".","37","0","658"
"33","33","encoding","encoding","34","D53.jpg","1",".","36","0","828"
"33","33","encoding","encoding","35","C37.jpg","3",".","0","0","1009"
"33","33","encoding","encoding","36","C73.jpg","3",".","36","0","848"
"33","33","encoding","encoding","37","C59.jpg","3",".","37","0","778"
"33","33","encoding","encoding","38","C0.jpg","3",".","0","0","1009"
"33","33","encoding","encoding","39","C7.jpg","3",".","36","0","686"
"33","33","encoding","encoding","40","C4.jpg","3",".","37","0","688"
"33","33","encoding","encoding","41","C62.jpg","3",".","37","0","571"
"33","33","encoding","encoding","42","C2.jpg","3",".","37","0","757"
"33","33","encoding","encoding","43","D11.jpg","1",".","37","0","759"
"33","33","encoding","encoding","44","C61.jpg","3",".","37","0","689"
"33","33","encoding","encoding","45","C53.jpg","3",".","37","0","612"
"33","33","encoding","encoding","46","C13.jpg","3",".","37","0","734"
"33","33","encoding","encoding","47","C17.jpg","3",".","37","0","567"
"33","33","encoding","encoding","48","C45.jpg","3",".","37","0","554"
"33","33","encoding","encoding","49","D21.jpg","1",".","37","0","588"
"33","33","encoding","encoding","50","C12.jpg","3",".","37","0","526"
"33","33","encoding","encoding","51","D29.jpg","1",".","36","0","696"
"33","33","encoding","encoding","52","C12.jpg","3",".","37","0","514"
"33","33","encoding","encoding","53","C20.jpg","3",".","37","0","547"
"33","33","encoding","encoding","54","C32.jpg","3",".","37","0","582"
"33","33","encoding","encoding","55","C51.jpg","3",".","37","0","464"
"33","33","encoding","encoding","56","C34.jpg","3",".","37","0","537"
"33","33","encoding","encoding","57","C8.jpg","3",".","37","0","660"
"33","33","encoding","encoding","58","C21.jpg","3",".","37","0","454"
"33","33","encoding","encoding","59","C27.jpg","3",".","37","0","472"
"33","33","encoding","encoding","60","C49.jpg","3",".","37","0","498"
"33","33","encoding","encoding","61","C4.jpg","3",".","37","0","557"
"33","33","encoding","encoding","62","C39.jpg","3",".","37","0","511"
"33","33","encoding","encoding","63","C10.jpg","3",".","37","0","569"
"33","33","encoding","encoding","64","C58.jpg","3",".","37","0","507"
"33","33","encoding","encoding","65","C0.jpg","3",".","36","0","613"
"33","33","encoding","encoding","67","C41.jpg","3",".","37","0","716"
"33","33","encoding","encoding","68","C67.jpg","3",".","37","0","822"
"33","33","encoding","encoding","69","C79.jpg","3",".","36","0","944"
"33","33","encoding","encoding","70","C78.jpg","3",".","37","0","922"
"33","33","encoding","encoding","71","C66.jpg","3",".","37","0","756"
"33","33","encoding","encoding","72","C48.jpg","3",".","0","0","1009"
"33","33","encoding","encoding","73","C45.jpg","3",".","37","0","608"
"33","33","encoding","encoding","74","C43.jpg","3",".","37","0","490"
"33","33","encoding","encoding","75","C4.jpg","3",".","37","0","484"
"33","33","encoding","encoding","76","D75.jpg","1",".","36","0","678"
"33","33","encoding","encoding","77","C39.jpg","3",".","37","0","496"
"33","33","encoding","encoding","78","D67.jpg","1",".","36","0","778"
"33","33","encoding","encoding","79","C18.jpg","3",".","37","0","708"
"33","33","encoding","encoding","80","D43.jpg","1",".","37","0","718"
"33","33","encoding","encoding","81","D70.jpg","1",".","37","0","528"
"33","33","encoding","encoding","82","C65.jpg","3",".","37","0","578"
"33","33","encoding","encoding","83","C15.jpg","3",".","0","0","1009"
"33","33","encoding","encoding","84","C56.jpg","3",".","37","0","566"
"33","33","encoding","encoding","85","D8.jpg","1",".","37","0","624"
"33","33","encoding","encoding","86","C41.jpg","3",".","37","0","554"
"33","33","encoding","encoding","87","C6.jpg","3",".","37","0","916"
"33","33","encoding","encoding","88","C70.jpg","3",".","0","0","1009"
"33","33","encoding","encoding","89","C75.jpg","3",".","37","0","689"
"33","33","encoding","encoding","90","C55.jpg","3",".","37","0","755"
"33","33","encoding","encoding","91","C74.jpg","3",".","37","0","581"
"33","33","encoding","encoding","92","C55.jpg","3",".","37","0","647"
"33","33","encoding","encoding","93","C77.jpg","3",".","37","0","441"
"33","33","encoding","encoding","94","C16.jpg","3",".","37","0","875"
"33","33","encoding","encoding","95","D63.jpg","1",".","37","0","581"
"33","33","encoding","encoding","96","C19.jpg","3",".","36","0","959"
"33","33","encoding","encoding","97","C29.jpg","3",".","37","0","705"
"33","33","encoding","encoding","98","D39.jpg","1",".","37","0","659"
"33","33","encoding","encoding","99","D36.jpg","1",".","37","0","789"
"33","33","encoding","encoding","100","C69.jpg","3",".","37","0","655"
"33","33","encoding","encoding","101","C55.jpg","3",".","37","0","441"
"33","33","encoding","encoding","102","C11.jpg","3",".","37","0","603"
"33","33","encoding","encoding","103","C43.jpg","3",".","37","0","669"
"33","33","encoding","encoding","104","D45.jpg","1",".","37","0","847"
"33","33","encoding","encoding","105","C20.jpg","3",".","37","0","729"
"33","33","encoding","encoding","106","D68.jpg","1",".","37","0","691"
"33","33","encoding","encoding","107","C64.jpg","3",".","37","0","622"
"33","33","encoding","encoding","108","C9.jpg","3",".","37","0","504"
"33","33","encoding","encoding","109","D7.jpg","1",".","37","0","490"
"33","33","encoding","encoding","110","C21.jpg","3",".","37","0","420"
"33","33","encoding","encoding","111","C26.jpg","3",".","37","0","502"
"33","33","encoding","encoding","112","D71.jpg","1",".","37","0","472"
"33","33","encoding","encoding","113","D2.jpg","1",".","37","0","522"
"33","33","encoding","encoding","114","D3.jpg","1",".","37","0","476"
"33","33","encoding","encoding","115","C23.jpg","3",".","37","0","558"
"33","33","encoding","encoding","116","C32.jpg","3",".","37","0","560"
"33","33","encoding","encoding","117","C34.jpg","3",".","37","0","466"
"33","33","encoding","encoding","118","C72.jpg","3",".","37","0","556"
"33","33","encoding","encoding","119","C16.jpg","3",".","0","0","1009"
"33","33","encoding","encoding","120","C37.jpg","3",".","37","0","648"
"33","33","encoding","encoding","121","D6.jpg","1",".","37","0","650"
"33","33","encoding","encoding","122","C36.jpg","3",".","37","0","508"
"33","33","encoding","encoding","123","C31.jpg","3",".","37","0","446"
"33","33","encoding","encoding","124","C70.jpg","3",".","37","0","480"
"33","33","encoding","encoding","125","C11.jpg","3",".","37","0","658"
"33","33","encoding","encoding","126","C18.jpg","3",".","37","0","668"
"33","33","encoding","encoding","127","D74.jpg","1",".","37","0","575"
"33","33","encoding","encoding","128","C22.jpg","3",".","37","0","545"
"33","33","encoding","encoding","129","D64.jpg","1",".","37","0","843"
"33","33","encoding","encoding","130","C27.jpg","3",".","37","0","565"
"33","33","encoding","encoding","131","C68.jpg","3",".","37","0","471"
"33","33","encoding","encoding","133","D0.jpg","1",".","37","0","895"
"33","33","encoding","encoding","134","C60.jpg","3",".","37","0","577"
"33","33","encoding","encoding","135","C74.jpg","3",".","37","0","603"
"33","33","encoding","encoding","136","C62.jpg","3",".","37","0","597"
"33","33","encoding","encoding","137","C28.jpg","3",".","37","0","575"
"33","33","encoding","encoding","138","C27.jpg","3",".","37","0","529"
"33","33","encoding","encoding","139","D35.jpg","1",".","37","0","683"
"33","33","encoding","encoding","140","D50.jpg","1",".","37","0","549"
"33","33","encoding","encoding","141","D79.jpg","1",".","37","0","783"
"33","33","encoding","encoding","142","C2.jpg","3",".","37","0","521"
"33","33","encoding","encoding","143","D10.jpg","1",".","36","0","587"
"33","33","encoding","encoding","144","C76.jpg","3",".","37","0","661"
"33","33","encoding","encoding","145","C59.jpg","3",".","37","0","623"
"33","33","encoding","encoding","146","C69.jpg","3",".","37","0","625"
"33","33","encoding","encoding","147","C1.jpg","3",".","37","0","451"
"33","33","encoding","encoding","148","C24.jpg","3",".","37","0","573"
"33","33","encoding","encoding","149","D1.jpg","1",".","0","0","1009"
"33","33","encoding","encoding","150","C39.jpg","3",".","37","0","689"
"33","33","encoding","encoding","151","D57.jpg","1",".","0","0","1009"
"33","33","encoding","encoding","152","C38.jpg","3",".","37","0","574"
"33","33","encoding","encoding","153","D4.jpg","1",".","37","0","536"
"33","33","encoding","encoding","154","D52.jpg","1",".","37","0","562"
"33","33","encoding","encoding","155","D16.jpg","1",".","37","0","804"
"33","33","encoding","encoding","156","C43.jpg","3",".","37","0","758"
"33","33","encoding","encoding","157","C9.jpg","3",".","37","0","544"
"33","33","encoding","encoding","158","C38.jpg","3",".","37","0","482"
"33","33","encoding","encoding","159","C52.jpg","3",".","37","0","484"
"33","33","encoding","encoding","160","C76.jpg","3",".","37","0","462"
"33","33","encoding","encoding","161","C9.jpg","3",".","37","0","600"
"33","33","encoding","encoding","162","C77.jpg","3",".","36","0","698"
"33","33","encoding","encoding","163","C15.jpg","3",".","37","0","612"
"33","33","encoding","encoding","164","C33.jpg","3",".","36","0","902"
"33","33","encoding","encoding","165","C38.jpg","3",".","37","0","592"
"33","33","encoding","encoding","166","D59.jpg","1",".","0","0","1009"
"33","33","encoding","encoding","167","D40.jpg","1",".","0","0","1009"
"33","33","encoding","encoding","168","C71.jpg","3",".","37","0","542"
"33","33","encoding","encoding","169","C8.jpg","3",".","37","0","328"
"33","33","encoding","encoding","170","D58.jpg","1",".","37","0","386"
"33","33","encoding","encoding","171","C75.jpg","3",".","37","0","428"
"33","33","encoding","encoding","172","C37.jpg","3",".","37","0","630"
"33","33","encoding","encoding","173","C16.jpg","3",".","37","0","472"
"33","33","encoding","encoding","174","C13.jpg","3",".","37","0","578"
"33","33","encoding","encoding","175","C57.jpg","3",".","37","0","548"
"33","33","encoding","encoding","176","C6.jpg","3",".","37","0","606"
"33","33","encoding","encoding","177","D24.jpg","1",".","37","0","632"
"33","33","encoding","encoding","178","C67.jpg","3",".","36","0","658"
"33","33","encoding","encoding","179","D19.jpg","1",".","37","0","428"
"33","33","encoding","encoding","180","C3.jpg","3",".","37","0","662"
"33","33","encoding","encoding","181","C15.jpg","3",".","37","0","496"
"33","33","encoding","encoding","182","C50.jpg","3",".","37","0","554"
"33","33","encoding","encoding","183","C52.jpg","3",".","37","0","532"
"33","33","encoding","encoding","184","C7.jpg","3",".","36","0","662"
"33","33","encoding","encoding","185","C70.jpg","3",".","37","0","433"
"33","33","encoding","encoding","186","D37.jpg","1",".","37","0","595"
"33","33","encoding","encoding","187","C44.jpg","3",".","37","0","581"
"33","33","encoding","encoding","188","D26.jpg","1",".","36","0","655"
"33","33","encoding","encoding","189","C41.jpg","3",".","37","0","761"
"33","33","encoding","encoding","190","C7.jpg","3",".","36","0","691"
"33","33","encoding","encoding","191","C68.jpg","3",".","37","0","645"
"33","33","encoding","encoding","192","D66.jpg","1",".","37","0","679"
"33","33","encoding","encoding","193","C79.jpg","3",".","36","0","625"
"33","33","encoding","encoding","194","C46.jpg","3",".","37","0","459"
"33","33","encoding","encoding","195","D51.jpg","1",".","37","0","965"
"33","33","encoding","encoding","196","C13.jpg","3",".","0","0","1009"
"33","33","encoding","encoding","197","C29.jpg","3",".","37","0","753"
"33","33","encoding","encoding","199","C19.jpg","3",".","36","0","519"
"33","33","encoding","encoding","200","D62.jpg","1",".","36","0","641"
"33","33","encoding","encoding","201","C44.jpg","3",".","37","0","595"
"33","33","encoding","encoding","202","C26.jpg","3",".","37","0","557"
"33","33","encoding","encoding","203","C64.jpg","3",".","37","0","495"
"33","33","encoding","encoding","204","D42.jpg","1",".","37","0","505"
"33","33","encoding","encoding","205","D31.jpg","1",".","37","0","459"
"33","33","encoding","encoding","206","C76.jpg","3",".","37","0","557"
"33","33","encoding","encoding","207","C30.jpg","3",".","37","0","935"
"33","33","encoding","encoding","208","C58.jpg","3",".","36","0","809"
"33","33","encoding","encoding","209","C69.jpg","3",".","37","0","579"
"33","33","encoding","encoding","210","C49.jpg","3",".","37","0","453"
"33","33","encoding","encoding","211","C50.jpg","3",".","37","0","439"
"33","33","encoding","encoding","212","C22.jpg","3",".","37","0","505"
"33","33","encoding","encoding","213","D65.jpg","1",".","37","0","628"
"33","33","encoding","encoding","214","C44.jpg","3",".","37","0","542"
"33","33","encoding","encoding","215","D20.jpg","1",".","37","0","488"
"33","33","encoding","encoding","216","C31.jpg","3",".","37","0","538"
"33","33","encoding","encoding","217","D69.jpg","1",".","37","0","444"
"33","33","encoding","encoding","218","C17.jpg","3",".","37","0","486"
"33","33","encoding","encoding","219","C14.jpg","3",".","37","0","512"
"33","33","encoding","encoding","220","D33.jpg","1",".","37","0","538"
"33","33","encoding","encoding","221","C14.jpg","3",".","37","0","524"
"33","33","encoding","encoding","222","D12.jpg","1",".","37","0","542"
"33","33","encoding","encoding","223","C57.jpg","3",".","37","0","472"
"33","33","encoding","encoding","224","C78.jpg","3",".","37","0","442"
"33","33","encoding","encoding","225","C35.jpg","3",".","37","0","596"
"33","33","encoding","encoding","226","C71.jpg","3",".","37","0","614"
"33","33","encoding","encoding","227","C54.jpg","3",".","37","0","608"
"33","33","encoding","encoding","228","C31.jpg","3",".","37","0","522"
"33","33","encoding","encoding","229","C57.jpg","3",".","37","0","596"
"33","33","encoding","encoding","230","D72.jpg","1",".","37","0","830"
"33","33","encoding","encoding","231","C1.jpg","3",".","0","0","1009"
"33","33","encoding","encoding","232","C49.jpg","3",".","37","0","666"
"33","33","encoding","encoding","233","D54.jpg","1",".","36","0","613"
"33","33","encoding","encoding","234","C32.jpg","3",".","37","0","343"
"33","33","encoding","encoding","235","C78.jpg","3",".","37","0","433"
"33","33","encoding","encoding","236","D23.jpg","1",".","37","0","555"
"33","33","encoding","encoding","237","C33.jpg","3",".","36","0","765"
"33","33","encoding","encoding","238","C66.jpg","3",".","37","0","311"
"33","33","encoding","encoding","239","D32.jpg","1",".","37","0","545"
"33","33","encoding","encoding","240","C47.jpg","3",".","37","0","499"
"33","33","encoding","encoding","241","C26.jpg","3",".","37","0","421"
"33","33","encoding","encoding","242","D60.jpg","1",".","37","0","719"
"33","33","encoding","encoding","243","C12.jpg","3",".","37","0","609"
"33","33","encoding","encoding","244","C1.jpg","3",".","37","0","523"
"33","33","encoding","encoding","245","C59.jpg","3",".","37","0","477"
"33","33","encoding","encoding","246","D38.jpg","1",".","37","0","423"
"33","33","encoding","encoding","247","C61.jpg","3",".","37","0","441"
"33","33","encoding","encoding","248","D9.jpg","1",".","37","0","435"
"33","33","encoding","encoding","249","D34.jpg","1",".","37","0","509"
"33","33","encoding","encoding","250","C17.jpg","3",".","37","0","431"
"33","33","encoding","encoding","251","D18.jpg","1",".","37","0","817"
"33","33","encoding","encoding","252","C62.jpg","3",".","37","0","491"
"33","33","encoding","encoding","253","D28.jpg","1",".","37","0","446"
"33","33","encoding","encoding","254","C65.jpg","3",".","37","0","528"
"33","33","encoding","encoding","255","C52.jpg","3",".","37","0","514"
"33","33","encoding","encoding","256","C24.jpg","3",".","37","0","628"
"33","33","encoding","encoding","257","C46.jpg","3",".","37","0","534"
"33","33","encoding","encoding","258","D48.jpg","1",".","37","0","552"
"33","33","encoding","encoding","259","C34.jpg","3",".","37","0","394"
"33","33","encoding","encoding","260","C47.jpg","3",".","37","0","404"
"33","33","encoding","encoding","261","C25.jpg","3",".","37","0","478"
"33","33","encoding","encoding","262","C65.jpg","3",".","37","0","360"
"33","33","encoding","encoding","263","C20.jpg","3",".","37","0","522"
"33","33","encoding","encoding","265","C60.jpg","3",".","36","0","690"
"33","33","encoding","encoding","266","C67.jpg","3",".","36","0","452"
"33","33","encoding","encoding","267","C2.jpg","3",".","36","0","710"
"33","33","encoding","encoding","268","C77.jpg","3",".","0","0","1009"
"33","33","encoding","encoding","269","C51.jpg","3",".","0","0","1009"
"33","33","encoding","encoding","270","C11.jpg","3",".","36","0","828"
"33","33","encoding","encoding","271","C71.jpg","3",".","36","0","398"
"33","33","encoding","encoding","272","C6.jpg","3",".","36","0","464"
"33","33","encoding","encoding","273","C3.jpg","3",".","0","0","1009"
"33","33","encoding","encoding","274","C0.jpg","3",".","36","0","836"
"33","33","encoding","encoding","275","C5.jpg","3",".","37","0","646"
"33","33","encoding","encoding","276","C61.jpg","3",".","37","0","616"
"33","33","encoding","encoding","277","C42.jpg","3",".","37","0","554"
"33","33","encoding","encoding","278","C21.jpg","3",".","37","0","548"
"33","33","encoding","encoding","279","C53.jpg","3",".","37","0","550"
"33","33","encoding","encoding","280","D61.jpg","1",".","0","0","1009"
"33","33","encoding","encoding","281","C18.jpg","3",".","37","0","578"
"33","33","encoding","encoding","282","C5.jpg","3",".","37","0","484"
"33","33","encoding","encoding","283","D47.jpg","1",".","37","0","431"
"33","33","encoding","encoding","284","C64.jpg","3",".","37","0","521"
"33","33","encoding","encoding","285","C58.jpg","3",".","36","0","827"
"33","33","encoding","encoding","286","C63.jpg","3",".","37","0","725"
"33","33","encoding","encoding","287","C66.jpg","3",".","37","0","631"
"33","33","encoding","encoding","288","D5.jpg","1",".","37","0","977"
"33","33","encoding","encoding","289","C74.jpg","3",".","37","0","299"
"33","33","encoding","encoding","290","C3.jpg","3",".","37","0","309"
"33","33","encoding","encoding","291","C45.jpg","3",".","37","0","279"
"33","33","encoding","encoding","292","D78.jpg","1",".","37","0","417"
"33","33","encoding","encoding","293","C30.jpg","3",".","37","0","491"
"33","33","encoding","encoding","294","D27.jpg","1",".","37","0","373"
"33","33","encoding","encoding","295","C54.jpg","3",".","37","0","527"
"33","33","encoding","encoding","296","C33.jpg","3",".","37","0","449"
"33","33","encoding","encoding","297","D14.jpg","1",".","37","0","515"
"33","33","encoding","encoding","298","D55.jpg","1",".","37","0","437"
"33","33","encoding","encoding","299","C75.jpg","3",".","37","0","463"
"33","33","encoding","encoding","300","C40.jpg","3",".","37","0","457"
"33","33","encoding","encoding","301","C8.jpg","3",".","37","0","539"
"33","33","encoding","encoding","302","D44.jpg","1",".","37","0","741"
"33","33","encoding","encoding","303","D41.jpg","1",".","37","0","656"
"33","33","encoding","encoding","304","C53.jpg","3",".","37","0","458"
"33","33","encoding","encoding","305","D22.jpg","1",".","37","0","396"
"33","33","encoding","encoding","306","D46.jpg","1",".","37","0","662"
"33","33","encoding","encoding","307","C36.jpg","3",".","37","0","440"
"33","33","encoding","encoding","308","C30.jpg","3",".","37","0","410"
"33","33","encoding","encoding","309","C5.jpg","3",".","37","0","436"
"33","33","encoding","encoding","310","C14.jpg","3",".","37","0","494"
"33","33","encoding","encoding","311","C22.jpg","3",".","37","0","504"
"33","33","encoding","encoding","312","C23.jpg","3",".","37","0","586"
"33","33","encoding","encoding","313","D30.jpg","1",".","37","0","828"
"33","33","encoding","encoding","314","C29.jpg","3",".","37","0","590"
"33","33","encoding","encoding","315","C68.jpg","3",".","37","0","440"
"33","33","encoding","encoding","316","C72.jpg","3",".","37","0","594"
"33","33","encoding","encoding","317","D56.jpg","1",".","37","0","564"
"33","33","encoding","encoding","318","D76.jpg","1",".","37","0","534"
"33","33","encoding","encoding","319","D25.jpg","1",".","37","0","560"
"33","33","encoding","encoding","320","C35.jpg","3",".","37","0","802"
"33","33","encoding","encoding","321","C72.jpg","3",".","37","0","492"
"33","33","encoding","encoding","322","C40.jpg","3",".","37","0","463"
"33","33","encoding","encoding","323","D15.jpg","1",".","37","0","665"
"33","33","encoding","encoding","324","C50.jpg","3",".","37","0","619"
"33","33","encoding","encoding","325","C51.jpg","",".","37","0","533"
"33","33","retrieval","old_object","1","D70.jpg",".","1","37","0","1506"
"33","33","retrieval","new_object","2","A2.jpg",".",".","37","1","1140"
"33","33","retrieval","new_object","3","B68.jpg",".",".","37","1","901"
"33","33","retrieval","old_object","4","C25.jpg",".","3","36","1","838"
"33","33","retrieval","new_object","5","A11.jpg",".",".","37","1","935"
"33","33","retrieval","old_object","6","C34.jpg",".","3","36","1","920"
"33","33","retrieval","old_object","7","D75.jpg",".","1","36","1","1418"
"33","33","retrieval","new_object","8","A57.jpg",".",".","37","1","683"
"33","33","retrieval","new_object","9","B26.jpg",".",".","37","1","716"
"33","33","retrieval","old_object","10","C79.jpg",".","3","36","1","909"
"33","33","retrieval","new_object","11","B64.jpg",".",".","37","1","774"
"33","33","retrieval","old_object","12","C33.jpg",".","3","36","1","968"
"33","33","retrieval","new_object","13","B28.jpg",".",".","37","1","865"
"33","33","retrieval","new_object","14","B8.jpg",".",".","37","1","1042"
"33","33","retrieval","new_object","15","A79.jpg",".",".","37","1","915"
"33","33","retrieval","old_object","16","D67.jpg",".","1","36","1","1084"
"33","33","retrieval","new_object","17","B67.jpg",".",".","37","1","1102"
"33","33","retrieval","old_object","18","C50.jpg",".","3","36","1","751"
"33","33","retrieval","old_object","19","D46.jpg",".","1","36","1","728"
"33","33","retrieval","new_object","20","A31.jpg",".",".","37","1","745"
"33","33","retrieval","new_object","21","B11.jpg",".",".","37","1","666"
"33","33","retrieval","old_object","22","C77.jpg",".","3","36","1","1132"
"33","33","retrieval","new_object","23","A17.jpg",".",".","37","1","1093"
"33","33","retrieval","old_object","24","D33.jpg",".","1","37","0","910"
"33","33","retrieval","old_object","25","C61.jpg",".","3","36","1","847"
"33","33","retrieval","new_object","26","B48.jpg",".",".","37","1","808"
"33","33","retrieval","new_object","27","A25.jpg",".",".","37","1","922"
"33","33","retrieval","old_object","28","C36.jpg",".","3","36","1","699"
"33","33","retrieval","old_object","29","D59.jpg",".","1","36","1","812"
"33","33","retrieval","old_object","30","D16.jpg",".","1","36","1","1093"
"33","33","retrieval","new_object","31","A69.jpg",".",".","37","1","735"
"33","33","retrieval","old_object","32","D12.jpg",".","1","37","0","640"
"33","33","retrieval","new_object","33","A46.jpg",".",".","37","1","737"
"33","33","retrieval","new_object","34","A51.jpg",".",".","37","1","810"
"33","33","retrieval","old_object","35","C52.jpg",".","3","36","1","963"
"33","33","retrieval","old_object","36","C76.jpg",".","3","36","1","773"
"33","33","retrieval","old_object","37","D78.jpg",".","1","36","1","1158"
"33","33","retrieval","old_object","38","C68.jpg",".","3","36","1","951"
"33","33","retrieval","old_object","39","C42.jpg",".","3","36","1","864"
"33","33","retrieval","old_object","40","C58.jpg",".","3","36","1","625"
"33","33","retrieval","new_object","41","B78.jpg",".",".","37","1","851"
"33","33","retrieval","old_object","42","C27.jpg",".","3","36","1","756"
"33","33","retrieval","old_object","43","D21.jpg",".","1","37","0","1133"
"33","33","retrieval","new_object","44","A61.jpg",".",".","37","1","766"
"33","33","retrieval","new_object","45","B41.jpg",".",".","37","1","1087"
"33","33","retrieval","old_object","46","D25.jpg",".","1","36","1","1009"
"33","33","retrieval","new_object","47","B63.jpg",".",".","37","1","794"
"33","33","retrieval","old_object","48","C10.jpg",".","3","36","1","1051"
"33","33","retrieval","new_object","49","B77.jpg",".",".","37","1","940"
"33","33","retrieval","new_object","50","B56.jpg",".",".","36","0","1037"
"33","33","retrieval","new_object","51","A28.jpg",".",".","37","1","559"
"33","33","retrieval","old_object","52","D55.jpg",".","1","37","0","688"
"33","33","retrieval","new_object","53","A32.jpg",".",".","37","1","849"
"33","33","retrieval","new_object","54","A39.jpg",".",".","37","1","730"
"33","33","retrieval","new_object","55","A76.jpg",".",".","37","1","723"
"33","33","retrieval","old_object","56","D15.jpg",".","1","37","0","709"
"33","33","retrieval","new_object","57","B27.jpg",".",".","37","1","542"
"33","33","retrieval","old_object","58","D7.jpg",".","1","36","1","927"
"33","33","retrieval","new_object","59","A77.jpg",".",".","0","0","2009"
"33","33","retrieval","old_object","60","C72.jpg",".","3","36","1","1393"
"33","33","retrieval","new_object","61","B2.jpg",".",".","37","1","1283"
"33","33","retrieval","old_object","62","C30.jpg",".","3","36","1","804"
"33","33","retrieval","old_object","63","D71.jpg",".","1","36","1","861"
"33","33","retrieval","new_object","64","B21.jpg",".",".","37","1","902"
"33","33","retrieval","old_object","65","D65.jpg",".","1","37","0","823"
"33","33","retrieval","old_object","67","C47.jpg",".","3","37","0","838"
"33","33","retrieval","new_object","68","B32.jpg",".",".","37","1","919"
"33","33","retrieval","new_object","69","B25.jpg",".",".","37","1","680"
"33","33","retrieval","new_object","70","B76.jpg",".",".","37","1","889"
"33","33","retrieval","old_object","71","C14.jpg",".","3","36","1","674"
"33","33","retrieval","old_object","72","C28.jpg",".","3","36","1","788"
"33","33","retrieval","new_object","73","B42.jpg",".",".","37","1","717"
"33","33","retrieval","old_object","74","C45.jpg",".","3","36","1","870"
"33","33","retrieval","new_object","75","A52.jpg",".",".","37","1","919"
"33","33","retrieval","old_object","76","C19.jpg",".","3","36","1","648"
"33","33","retrieval","old_object","77","C75.jpg",".","3","36","1","866"
"33","33","retrieval","new_object","78","B44.jpg",".",".","37","1","827"
"33","33","retrieval","old_object","79","D34.jpg",".","1","36","1","764"
"33","33","retrieval","old_object","80","C67.jpg",".","3","36","1","925"
"33","33","retrieval","old_object","81","C8.jpg",".","3","36","1","1054"
"33","33","retrieval","new_object","82","B60.jpg",".",".","37","1","656"
"33","33","retrieval","old_object","83","D8.jpg",".","1","37","0","801"
"33","33","retrieval","new_object","84","A70.jpg",".",".","37","1","634"
"33","33","retrieval","new_object","85","B62.jpg",".",".","37","1","1067"
"33","33","retrieval","new_object","86","B19.jpg",".",".","37","1","612"
"33","33","retrieval","new_object","87","B18.jpg",".",".","37","1","686"
"33","33","retrieval","new_object","88","B6.jpg",".",".","37","1","703"
"33","33","retrieval","old_object","89","C22.jpg",".","3","36","1","1152"
"33","33","retrieval","new_object","90","A26.jpg",".",".","37","1","953"
"33","33","retrieval","old_object","91","C12.jpg",".","3","36","1","946"
"33","33","retrieval","new_object","92","A60.jpg",".",".","37","1","860"
"33","33","retrieval","new_object","93","A45.jpg",".",".","37","1","669"
"33","33","retrieval","old_object","94","D13.jpg",".","1","37","0","1134"
"33","33","retrieval","old_object","95","C0.jpg",".","3","36","1","823"
"33","33","retrieval","old_object","96","D3.jpg",".","1","37","0","696"
"33","33","retrieval","new_object","97","B16.jpg",".",".","37","1","682"
"33","33","retrieval","old_object","98","D35.jpg",".","1","37","0","731"
"33","33","retrieval","new_object","99","B0.jpg",".",".","37","1","612"
"33","33","retrieval","new_object","100","A21.jpg",".",".","37","1","773"
"33","33","retrieval","new_object","101","B17.jpg",".",".","37","1","919"
"33","33","retrieval","new_object","102","A38.jpg",".",".","37","1","1336"
"33","33","retrieval","new_object","103","B37.jpg",".",".","37","1","649"
"33","33","retrieval","new_object","104","A22.jpg",".",".","37","1","674"
"33","33","retrieval","old_object","105","D62.jpg",".","1","36","1","1051"
"33","33","retrieval","new_object","106","A12.jpg",".",".","37","1","1061"
"33","33","retrieval","old_object","107","D28.jpg",".","1","36","1","982"
"33","33","retrieval","old_object","108","D42.jpg",".","1","36","1","727"
"33","33","retrieval","new_object","109","A23.jpg",".",".","37","1","1456"
"33","33","retrieval","new_object","110","B1.jpg",".",".","37","1","1353"
"33","33","retrieval","old_object","111","C32.jpg",".","3","37","0","1379"
"33","33","retrieval","new_object","112","A41.jpg",".",".","36","0","860"
"33","33","retrieval","new_object","113","B4.jpg",".",".","37","1","933"
"33","33","retrieval","old_object","114","D10.jpg",".","1","37","0","838"
"33","33","retrieval","new_object","115","A5.jpg",".",".","37","1","703"
"33","33","retrieval","old_object","116","C37.jpg",".","3","36","1","793"
"33","33","retrieval","old_object","117","D79.jpg",".","1","37","0","1650"
"33","33","retrieval","old_object","118","C3.jpg",".","3","36","1","1035"
"33","33","retrieval","old_object","119","C65.jpg",".","3","36","1","748"
"33","33","retrieval","old_object","120","C20.jpg",".","3","36","1","1125"
"33","33","retrieval","new_object","121","A44.jpg",".",".","37","1","855"
"33","33","retrieval","new_object","122","B70.jpg",".",".","37","1","592"
"33","33","retrieval","new_object","123","A72.jpg",".",".","37","1","801"
"33","33","retrieval","old_object","124","D56.jpg",".","1","36","1","946"
"33","33","retrieval","old_object","125","D27.jpg",".","1","37","0","875"
"33","33","retrieval","old_object","126","C26.jpg",".","3","36","1","1037"
"33","33","retrieval","new_object","127","A36.jpg",".",".","37","1","982"
"33","33","retrieval","old_object","128","D76.jpg",".","1","36","1","1471"
"33","33","retrieval","old_object","129","D68.jpg",".","1","37","0","944"
"33","33","retrieval","new_object","130","B14.jpg",".",".","37","1","841"
"33","33","retrieval","new_object","131","A37.jpg",".",".","37","1","723"
"33","33","retrieval","old_object","133","C4.jpg",".","3","37","0","766"
"33","33","retrieval","old_object","134","C31.jpg",".","3","37","0","1887"
"33","33","retrieval","new_object","135","A3.jpg",".",".","37","1","736"
"33","33","retrieval","old_object","136","D60.jpg",".","1","36","1","809"
"33","33","retrieval","old_object","137","D54.jpg",".","1","36","1","930"
"33","33","retrieval","old_object","138","C73.jpg",".","3","36","1","1372"
"33","33","retrieval","old_object","139","C23.jpg",".","3","36","1","669"
"33","33","retrieval","old_object","140","D58.jpg",".","1","36","1","974"
"33","33","retrieval","new_object","141","B50.jpg",".",".","37","1","1767"
"33","33","retrieval","new_object","142","A30.jpg",".",".","37","1","1040"
"33","33","retrieval","old_object","143","C43.jpg",".","3","36","1","994"
"33","33","retrieval","new_object","144","A65.jpg",".",".","37","1","1427"
"33","33","retrieval","old_object","145","D72.jpg",".","1","36","1","1044"
"33","33","retrieval","old_object","146","C49.jpg",".","3","36","1","853"
"33","33","retrieval","new_object","147","B45.jpg",".",".","37","1","718"
"33","33","retrieval","new_object","148","A74.jpg",".",".","37","1","936"
"33","33","retrieval","new_object","149","B7.jpg",".",".","37","1","681"
"33","33","retrieval","new_object","150","B49.jpg",".",".","37","1","1578"
"33","33","retrieval","old_object","151","C1.jpg",".","3","0","0","2009"
"33","33","retrieval","old_object","152","C38.jpg",".","3","0","0","2009"
"33","33","retrieval","new_object","153","A13.jpg",".",".","37","1","886"
"33","33","retrieval","old_object","154","D37.jpg",".","1","37","0","743"
"33","33","retrieval","old_object","155","C41.jpg",".","3","36","1","904"
"33","33","retrieval","new_object","156","B36.jpg",".",".","37","1","617"
"33","33","retrieval","new_object","157","A73.jpg",".",".","37","1","626"
"33","33","retrieval","old_object","158","D40.jpg",".","1","37","0","1388"
"33","33","retrieval","new_object","159","A27.jpg",".",".","37","1","1173"
"33","33","retrieval","new_object","160","B53.jpg",".",".","37","1","838"
"33","33","retrieval","old_object","161","C24.jpg",".","3","37","0","791"
"33","33","retrieval","old_object","162","D77.jpg",".","1","37","0","1441"
"33","33","retrieval","old_object","163","D63.jpg",".","1","37","0","890"
"33","33","retrieval","old_object","164","D19.jpg",".","1","37","0","867"
"33","33","retrieval","old_object","165","D14.jpg",".","1","37","0","892"
"33","33","retrieval","old_object","166","D39.jpg",".","1","37","0","725"
"33","33","retrieval","old_object","167","D73.jpg",".","1","37","0","1127"
"33","33","retrieval","new_object","168","A67.jpg",".",".","37","1","1104"
"33","33","retrieval","new_object","169","B61.jpg",".",".","37","1","1257"
"33","33","retrieval","old_object","170","D51.jpg",".","1","37","0","746"
"33","33","retrieval","new_object","171","A48.jpg",".",".","37","1","731"
"33","33","retrieval","new_object","172","B75.jpg",".",".","37","1","1005"
"33","33","retrieval","old_object","173","C55.jpg",".","3","36","1","894"
"33","33","retrieval","old_object","174","C35.jpg",".","3","36","1","767"
"33","33","retrieval","new_object","175","B40.jpg",".",".","37","1","880"
"33","33","retrieval","new_object","176","A71.jpg",".",".","37","1","1377"
"33","33","retrieval","old_object","177","D57.jpg",".","1","36","1","995"
"33","33","retrieval","old_object","178","D31.jpg",".","1","36","1","988"
"33","33","retrieval","new_object","179","B59.jpg",".",".","37","1","821"
"33","33","retrieval","new_object","180","B66.jpg",".",".","37","1","894"
"33","33","retrieval","old_object","181","C6.jpg",".","3","36","1","863"
"33","33","retrieval","new_object","182","B3.jpg",".",".","37","1","977"
"33","33","retrieval","new_object","183","B54.jpg",".",".","37","1","818"
"33","33","retrieval","new_object","184","A24.jpg",".",".","37","1","635"
"33","33","retrieval","old_object","185","C11.jpg",".","3","36","1","796"
"33","33","retrieval","old_object","186","C70.jpg",".","3","36","1","757"
"33","33","retrieval","old_object","187","D20.jpg",".","1","37","0","775"
"33","33","retrieval","new_object","188","B12.jpg",".",".","37","1","904"
"33","33","retrieval","old_object","189","C63.jpg",".","3","36","1","833"
"33","33","retrieval","new_object","190","B74.jpg",".",".","37","1","1074"
"33","33","retrieval","new_object","191","A40.jpg",".",".","37","1","987"
"33","33","retrieval","old_object","192","C17.jpg",".","3","37","0","1653"
"33","33","retrieval","new_object","193","A29.jpg",".",".","37","1","1062"
"33","33","retrieval","old_object","194","D74.jpg",".","1","37","0","1047"
"33","33","retrieval","new_object","195","A20.jpg",".",".","37","1","872"
"33","33","retrieval","new_object","196","B58.jpg",".",".","37","1","1369"
"33","33","retrieval","old_object","197","D41.jpg",".","1","36","1","851"
"33","33","retrieval","old_object","199","C39.jpg",".","3","36","1","986"
"33","33","retrieval","new_object","200","B69.jpg",".",".","37","1","819"
"33","33","retrieval","old_object","201","C51.jpg",".","3","36","1","940"
"33","33","retrieval","new_object","202","B79.jpg",".",".","37","1","1069"
"33","33","retrieval","new_object","203","B65.jpg",".",".","0","0","2009"
"33","33","retrieval","old_object","204","C71.jpg",".","3","36","1","1712"
"33","33","retrieval","old_object","205","D48.jpg",".","1","37","0","1465"
"33","33","retrieval","new_object","206","B55.jpg",".",".","37","1","914"
"33","33","retrieval","new_object","207","A7.jpg",".",".","37","1","979"
"33","33","retrieval","new_object","208","B34.jpg",".",".","37","1","637"
"33","33","retrieval","old_object","209","C29.jpg",".","3","36","1","718"
"33","33","retrieval","new_object","210","B5.jpg",".",".","37","1","695"
"33","33","retrieval","old_object","211","D2.jpg",".","1","37","0","816"
"33","33","retrieval","new_object","212","B43.jpg",".",".","37","1","729"
"33","33","retrieval","new_object","213","A42.jpg",".",".","37","1","699"
"33","33","retrieval","old_object","214","D5.jpg",".","1","36","1","1332"
"33","33","retrieval","new_object","215","A16.jpg",".",".","37","1","805"
"33","33","retrieval","new_object","216","B51.jpg",".",".","37","1","670"
"33","33","retrieval","old_object","217","D45.jpg",".","1","36","1","831"
"33","33","retrieval","old_object","218","C62.jpg",".","3","36","1","889"
"33","33","retrieval","old_object","219","C60.jpg",".","3","36","1","714"
"33","33","retrieval","new_object","220","A1.jpg",".",".","37","1","915"
"33","33","retrieval","new_object","221","B22.jpg",".",".","37","1","1060"
"33","33","retrieval","new_object","222","B30.jpg",".",".","37","1","1709"
"33","33","retrieval","new_object","223","A0.jpg",".",".","37","1","1783"
"33","33","retrieval","new_object","224","A78.jpg",".",".","37","1","808"
"33","33","retrieval","old_object","225","D64.jpg",".","1","36","1","1201"
"33","33","retrieval","new_object","226","A59.jpg",".",".","37","1","778"
"33","33","retrieval","old_object","227","C21.jpg",".","3","36","1","843"
"33","33","retrieval","new_object","228","A66.jpg",".",".","37","1","781"
"33","33","retrieval","old_object","229","C78.jpg",".","3","36","1","854"
"33","33","retrieval","new_object","230","A47.jpg",".",".","37","1","759"
"33","33","retrieval","new_object","231","B47.jpg",".",".","37","1","976"
"33","33","retrieval","old_object","232","D1.jpg",".","1","36","1","1057"
"33","33","retrieval","new_object","233","A54.jpg",".",".","37","1","1195"
"33","33","retrieval","new_object","234","A18.jpg",".",".","37","1","1276"
"33","33","retrieval","new_object","235","A49.jpg",".",".","37","1","925"
"33","33","retrieval","new_object","236","A75.jpg",".",".","37","1","1414"
"33","33","retrieval","new_object","237","A14.jpg",".",".","37","1","1456"
"33","33","retrieval","new_object","238","B73.jpg",".",".","37","1","1193"
"33","33","retrieval","new_object","239","B10.jpg",".",".","37","1","658"
"33","33","retrieval","new_object","240","B29.jpg",".",".","37","1","939"
"33","33","retrieval","old_object","241","C40.jpg",".","3","36","1","724"
"33","33","retrieval","new_object","242","B46.jpg",".",".","36","0","1150"
"33","33","retrieval","old_object","243","C66.jpg",".","3","36","1","1063"
"33","33","retrieval","new_object","244","A56.jpg",".",".","0","0","2009"
"33","33","retrieval","old_object","245","D43.jpg",".","1","36","1","1185"
"33","33","retrieval","new_object","246","A15.jpg",".",".","37","1","1050"
"33","33","retrieval","new_object","247","A10.jpg",".",".","37","1","1628"
"33","33","retrieval","new_object","248","A35.jpg",".",".","37","1","773"
"33","33","retrieval","old_object","249","D52.jpg",".","1","36","1","918"
"33","33","retrieval","old_object","250","D69.jpg",".","1","37","0","1415"
"33","33","retrieval","old_object","251","D49.jpg",".","1","36","1","808"
"33","33","retrieval","old_object","252","D22.jpg",".","1","36","1","738"
"33","33","retrieval","old_object","253","D61.jpg",".","1","36","1","779"
"33","33","retrieval","new_object","254","A68.jpg",".",".","37","1","836"
"33","33","retrieval","new_object","255","A34.jpg",".",".","37","1","605"
"33","33","retrieval","old_object","256","D17.jpg",".","1","36","1","958"
"33","33","retrieval","old_object","257","D11.jpg",".","1","36","1","984"
"33","33","retrieval","old_object","258","C57.jpg",".","3","36","1","865"
"33","33","retrieval","new_object","259","B35.jpg",".",".","37","1","1290"
"33","33","retrieval","old_object","260","D26.jpg",".","1","36","1","939"
"33","33","retrieval","new_object","261","B9.jpg",".",".","37","1","972"
"33","33","retrieval","old_object","262","C46.jpg",".","3","36","1","1126"
"33","33","retrieval","new_object","263","A63.jpg",".",".","36","0","839"
"33","33","retrieval","old_object","265","C5.jpg",".","3","0","0","2009"
"33","33","retrieval","old_object","266","D38.jpg",".","1","0","0","2009"
"33","33","retrieval","new_object","267","B71.jpg",".",".","36","0","1173"
"33","33","retrieval","old_object","268","C7.jpg",".","3","0","0","2009"
"33","33","retrieval","old_object","269","C9.jpg",".","3","0","0","2009"
"33","33","retrieval","old_object","270","D23.jpg",".","1","36","1","976"
"33","33","retrieval","old_object","271","D47.jpg",".","1","0","0","2009"
"33","33","retrieval","old_object","272","C13.jpg",".","3","0","0","2009"
"33","33","retrieval","old_object","273","D18.jpg",".","1","0","0","2009"
"33","33","retrieval","new_object","274","B31.jpg",".",".","36","0","868"
"33","33","retrieval","new_object","275","A8.jpg",".",".","36","0","957"
"33","33","retrieval","new_object","276","A43.jpg",".",".","36","0","831"
"33","33","retrieval","new_object","277","A64.jpg",".",".","36","0","936"
"33","33","retrieval","old_object","278","C15.jpg",".","3","0","0","2009"
"33","33","retrieval","old_object","279","D9.jpg",".","1","0","0","2009"
"33","33","retrieval","new_object","280","B20.jpg",".",".","36","0","1219"
"33","33","retrieval","old_object","281","D6.jpg",".","1","0","0","2009"
"33","33","retrieval","old_object","282","D53.jpg",".","1","0","0","2009"
"33","33","retrieval","old_object","283","C53.jpg",".","3","0","0","2009"
"33","33","retrieval","old_object","284","D36.jpg",".","1","0","0","2009"
"33","33","retrieval","old_object","285","D29.jpg",".","1","0","0","2009"
"33","33","retrieval","old_object","286","C18.jpg",".","3","0","0","2009"
"33","33","retrieval","old_object","287","D66.jpg",".","1","0","0","2009"
"33","33","retrieval","new_object","288","B24.jpg",".",".","36","0","931"
"33","33","retrieval","old_object","289","D44.jpg",".","1","0","0","2009"
"33","33","retrieval","new_object","290","A33.jpg",".",".","36","0","854"
"33","33","retrieval","old_object","291","D30.jpg",".","1","36","1","1375"
"33","33","retrieval","old_object","292","C44.jpg",".","3","0","0","2009"
"33","33","retrieval","old_object","293","D0.jpg",".","1","36","1","1113"
"33","33","retrieval","new_object","294","A53.jpg",".",".","36","0","762"
"33","33","retrieval","new_object","295","B13.jpg",".",".","36","0","900"
"33","33","retrieval","new_object","296","A62.jpg",".",".","36","0","1821"
"33","33","retrieval","old_object","297","C54.jpg",".","3","0","0","2009"
"33","33","retrieval","new_object","298","B72.jpg",".",".","36","0","991"
"33","33","retrieval","new_object","299","B15.jpg",".",".","36","0","1200"
"33","33","retrieval","new_object","300","B33.jpg",".",".","36","0","1098"
"33","33","retrieval","old_object","301","D32.jpg",".","1","36","1","1043"
"33","33","retrieval","old_object","302","C16.jpg",".","3","0","0","2009"
"33","33","retrieval","new_object","303","B23.jpg",".",".","36","0","893"
"33","33","retrieval","new_object","304","B57.jpg",".",".","0","0","2009"
"33","33","retrieval","old_object","305","C69.jpg",".","3","0","0","2009"
"33","33","retrieval","new_object","306","A9.jpg",".",".","36","0","817"
"33","33","retrieval","old_object","307","C64.jpg",".","3","0","0","2009"
"33","33","retrieval","old_object","308","D4.jpg",".","1","36","1","763"
"33","33","retrieval","old_object","309","C48.jpg",".","3","36","1","1020"
"33","33","retrieval","old_object","310","D24.jpg",".","1","0","0","2009"
"33","33","retrieval","new_object","311","B38.jpg",".",".","36","0","1399"
"33","33","retrieval","old_object","312","C59.jpg",".","3","0","0","2009"
"33","33","retrieval","old_object","313","C2.jpg",".","3","0","0","2009"
"33","33","retrieval","new_object","314","A6.jpg",".",".","36","0","930"
"33","33","retrieval","new_object","315","A19.jpg",".",".","36","0","1051"
"33","33","retrieval","new_object","316","B52.jpg",".",".","36","0","1860"
"33","33","retrieval","old_object","317","C74.jpg",".","3","36","1","941"
"33","33","retrieval","old_object","318","C56.jpg",".","3","0","0","2009"
"33","33","retrieval","new_object","319","A50.jpg",".",".","36","0","800"
"33","33","retrieval","new_object","320","A55.jpg",".",".","36","0","1001"
"33","33","retrieval","new_object","321","B39.jpg",".",".","36","0","1194"
"33","33","retrieval","new_object","322","A4.jpg",".",".","36","0","803"
"33","33","retrieval","new_object","323","A58.jpg",".",".","36","0","837"
"33","33","retrieval","old_object","324","D50.jpg",".","1","36","1","1502"
"33","33","retrieval","old_object","325","D70.jpg",".","","0","0","2009"
"33","33","demographics_block","gender","1",".",".",".","male","1","19821"
"33","33","demographics_block","age","1",".",".",".","57","1","19821"
"33","33","demographics_block","education","1",".",".",".","15","1","19821"
"33","33","demographics_block","left_right_handed","2",".",".",".","Right","1","16450"
"33","33","demographics_block","raceoption1","2",".",".",".","0","1","16450"
"33","33","demographics_block","raceoption2","2",".",".",".","","1","16450"
"33","33","demographics_block","raceoption3","2",".",".",".","","1","16450"
"33","33","demographics_block","raceoption4","2",".",".",".","","1","16450"
"33","33","demographics_block","raceoption5","2",".",".",".","","1","16450"
"33","33","demographics_block","raceoption6","2",".",".",".","","1","16450"
"33","33","demographics_block","raceoption7","2",".",".",".","","1","16450"
"33","33","demographics_block","raceoption8","2",".",".",".","","1","16450"
"33","33","demographics_block","raceoption9","2",".",".",".","","1","16450"
"33","33","demographics_block","raceother","2",".",".",".","","1","16450"
"33","33","demographics_block","raceother","2",".",".",".","","1","16450"
"33","33","demographics_block","english_language","2",".",".",".","Yes","1","16450"
"33","33","demographics_block","other","2",".",".",".","","1","16450"
"33","33","demographics_block","eyesight","3",".",".",".","Yes","1","7043"
"33","33","demographics_block","colorblind","3",".",".",".","No","1","7043"
