"group","subject","blockcode","trialcode","trialnum","stimulus","encoding_condition","old_object_condition","response","correct","latency"
"204483619","21","encoding","encoding","1","A21.jpg","3",".","0","0","1000"
"204483619","21","encoding","encoding","2","B53.jpg","1",".","0","0","1000"
"204483619","21","encoding","encoding","3","A63.jpg","3",".","0","0","1000"
"204483619","21","encoding","encoding","4","A7.jpg","3",".","36","0","833"
"204483619","21","encoding","encoding","5","A22.jpg","3",".","36","0","920"
"204483619","21","encoding","encoding","6","B61.jpg","1",".","36","0","798"
"204483619","21","encoding","encoding","7","A14.jpg","3",".","36","0","773"
"204483619","21","encoding","encoding","8","A62.jpg","3",".","36","0","820"
"204483619","21","encoding","encoding","9","B8.jpg","1",".","37","0","995"
"204483619","21","encoding","encoding","10","A5.jpg","3",".","0","0","1000"
"204483619","21","encoding","encoding","11","A9.jpg","3",".","36","0","713"
"204483619","21","encoding","encoding","12","A33.jpg","3",".","36","0","504"
"204483619","21","encoding","encoding","13","B33.jpg","1",".","36","0","383"
"204483619","21","encoding","encoding","14","A56.jpg","3",".","37","0","134"
"204483619","21","encoding","encoding","15","A8.jpg","3",".","36","0","381"
"204483619","21","encoding","encoding","16","A48.jpg","3",".","36","0","516"
"204483619","21","encoding","encoding","17","A26.jpg","3",".","36","0","283"
"204483619","21","encoding","encoding","18","A34.jpg","3",".","37","0","706"
"204483619","21","encoding","encoding","19","A2.jpg","3",".","37","0","721"
"204483619","21","encoding","encoding","20","A52.jpg","3",".","36","0","615"
"204483619","21","encoding","encoding","21","A27.jpg","3",".","37","0","326"
"204483619","21","encoding","encoding","22","A42.jpg","3",".","36","0","108"
"204483619","21","encoding","encoding","23","A9.jpg","3",".","0","0","1000"
"204483619","21","encoding","encoding","24","A79.jpg","3",".","36","0","267"
"204483619","21","encoding","encoding","25","B36.jpg","1",".","37","0","90"
"204483619","21","encoding","encoding","26","A46.jpg","3",".","36","0","688"
"204483619","21","encoding","encoding","27","A39.jpg","3",".","36","0","103"
"204483619","21","encoding","encoding","28","A71.jpg","3",".","36","0","70"
"204483619","21","encoding","encoding","29","A65.jpg","3",".","0","0","1000"
"204483619","21","encoding","encoding","30","A37.jpg","3",".","36","0","764"
"204483619","21","encoding","encoding","31","B76.jpg","1",".","36","0","891"
"204483619","21","encoding","encoding","32","A65.jpg","3",".","36","0","842"
"204483619","21","encoding","encoding","33","B13.jpg","1",".","0","0","1000"
"204483619","21","encoding","encoding","34","A10.jpg","3",".","36","0","800"
"204483619","21","encoding","encoding","35","A68.jpg","3",".","36","0","615"
"204483619","21","encoding","encoding","36","A49.jpg","3",".","36","0","630"
"204483619","21","encoding","encoding","37","A36.jpg","3",".","36","0","541"
"204483619","21","encoding","encoding","38","A50.jpg","3",".","36","0","396"
"204483619","21","encoding","encoding","39","B24.jpg","1",".","36","0","147"
"204483619","21","encoding","encoding","40","B9.jpg","1",".","36","0","130"
"204483619","21","encoding","encoding","41","A50.jpg","3",".","0","0","1000"
"204483619","21","encoding","encoding","42","A25.jpg","3",".","0","0","1000"
"204483619","21","encoding","encoding","43","A34.jpg","3",".","36","0","71"
"204483619","21","encoding","encoding","44","A64.jpg","3",".","0","0","1000"
"204483619","21","encoding","encoding","45","A74.jpg","3",".","0","0","1000"
"204483619","21","encoding","encoding","46","A21.jpg","3",".","0","0","1000"
"204483619","21","encoding","encoding","47","A15.jpg","3",".","0","0","1000"
"204483619","21","encoding","encoding","48","A32.jpg","3",".","36","0","938"
"204483619","21","encoding","encoding","49","B44.jpg","1",".","0","0","1000"
"204483619","21","encoding","encoding","50","A13.jpg","3",".","37","0","711"
"204483619","21","encoding","encoding","51","B70.jpg","1",".","36","0","430"
"204483619","21","encoding","encoding","52","B39.jpg","1",".","37","0","517"
"204483619","21","encoding","encoding","53","A43.jpg","3",".","36","0","147"
"204483619","21","encoding","encoding","54","B57.jpg","1",".","37","0","202"
"204483619","21","encoding","encoding","55","A74.jpg","3",".","0","0","1000"
"204483619","21","encoding","encoding","56","B46.jpg","1",".","0","0","1000"
"204483619","21","encoding","encoding","57","A18.jpg","3",".","36","0","271"
"204483619","21","encoding","encoding","58","A62.jpg","3",".","36","0","254"
"204483619","21","encoding","encoding","59","B50.jpg","1",".","36","0","189"
"204483619","21","encoding","encoding","60","A20.jpg","3",".","37","0","44"
"204483619","21","encoding","encoding","61","A19.jpg","3",".","0","0","1000"
"204483619","21","encoding","encoding","62","A33.jpg","3",".","37","0","194"
"204483619","21","encoding","encoding","63","A32.jpg","3",".","36","0","825"
"204483619","21","encoding","encoding","64","A53.jpg","3",".","37","0","704"
"204483619","21","encoding","encoding","65","B34.jpg","1",".","36","0","479"
"204483619","21","encoding","encoding","67","A78.jpg","3",".","36","0","701"
"204483619","21","encoding","encoding","68","A30.jpg","3",".","36","0","756"
"204483619","21","encoding","encoding","69","A72.jpg","3",".","36","0","923"
"204483619","21","encoding","encoding","70","A50.jpg","3",".","36","0","682"
"204483619","21","encoding","encoding","71","B21.jpg","1",".","37","0","745"
"204483619","21","encoding","encoding","72","A67.jpg","3",".","36","0","560"
"204483619","21","encoding","encoding","73","B79.jpg","1",".","37","0","375"
"204483619","21","encoding","encoding","74","A67.jpg","3",".","37","0","367"
"204483619","21","encoding","encoding","75","A46.jpg","3",".","36","0","117"
"204483619","21","encoding","encoding","76","B42.jpg","1",".","36","0","44"
"204483619","21","encoding","encoding","77","A76.jpg","3",".","0","0","1000"
"204483619","21","encoding","encoding","78","B64.jpg","1",".","0","0","1000"
"204483619","21","encoding","encoding","79","A51.jpg","3",".","0","0","1000"
"204483619","21","encoding","encoding","80","A12.jpg","3",".","36","0","56"
"204483619","21","encoding","encoding","81","A41.jpg","3",".","36","0","263"
"204483619","21","encoding","encoding","82","A43.jpg","3",".","0","0","1000"
"204483619","21","encoding","encoding","83","A42.jpg","3",".","36","0","181"
"204483619","21","encoding","encoding","84","A38.jpg","3",".","0","0","1000"
"204483619","21","encoding","encoding","85","B77.jpg","1",".","0","0","1000"
"204483619","21","encoding","encoding","86","A1.jpg","3",".","36","0","258"
"204483619","21","encoding","encoding","87","B49.jpg","1",".","36","0","49"
"204483619","21","encoding","encoding","88","B25.jpg","1",".","37","0","112"
"204483619","21","encoding","encoding","89","A64.jpg","3",".","36","0","575"
"204483619","21","encoding","encoding","90","A60.jpg","3",".","37","0","478"
"204483619","21","encoding","encoding","91","B7.jpg","1",".","37","0","669"
"204483619","21","encoding","encoding","92","A32.jpg","3",".","37","0","756"
"204483619","21","encoding","encoding","93","A59.jpg","3",".","36","0","458"
"204483619","21","encoding","encoding","94","A70.jpg","3",".","37","0","297"
"204483619","21","encoding","encoding","95","A69.jpg","3",".","37","0","368"
"204483619","21","encoding","encoding","96","B78.jpg","1",".","37","0","263"
"204483619","21","encoding","encoding","97","A0.jpg","3",".","37","0","38"
"204483619","21","encoding","encoding","98","A63.jpg","3",".","37","0","133"
"204483619","21","encoding","encoding","99","A66.jpg","3",".","0","0","1000"
"204483619","21","encoding","encoding","100","A2.jpg","3",".","0","0","1000"
"204483619","21","encoding","encoding","101","B67.jpg","1",".","37","0","18"
"204483619","21","encoding","encoding","102","A77.jpg","3",".","36","0","281"
"204483619","21","encoding","encoding","103","A5.jpg","3",".","37","0","272"
"204483619","21","encoding","encoding","104","A35.jpg","3",".","36","0","191"
"204483619","21","encoding","encoding","105","B22.jpg","1",".","36","0","166"
"204483619","21","encoding","encoding","106","A55.jpg","3",".","36","0","77"
"204483619","21","encoding","encoding","107","B63.jpg","1",".","37","0","268"
"204483619","21","encoding","encoding","108","B17.jpg","1",".","36","0","299"
"204483619","21","encoding","encoding","109","A72.jpg","3",".","36","0","314"
"204483619","21","encoding","encoding","110","A19.jpg","3",".","37","0","449"
"204483619","21","encoding","encoding","111","A6.jpg","3",".","37","0","368"
"204483619","21","encoding","encoding","112","A34.jpg","3",".","37","0","270"
"204483619","21","encoding","encoding","113","B60.jpg","1",".","0","0","1000"
"204483619","21","encoding","encoding","114","A44.jpg","3",".","0","0","1000"
"204483619","21","encoding","encoding","115","B20.jpg","1",".","0","0","1000"
"204483619","21","encoding","encoding","116","A39.jpg","3",".","37","0","33"
"204483619","21","encoding","encoding","117","A15.jpg","3",".","0","0","1000"
"204483619","21","encoding","encoding","118","A23.jpg","3",".","0","0","1000"
"204483619","21","encoding","encoding","119","A31.jpg","3",".","0","0","1000"
"204483619","21","encoding","encoding","120","A64.jpg","3",".","0","0","1000"
"204483619","21","encoding","encoding","121","A17.jpg","3",".","36","0","277"
"204483619","21","encoding","encoding","122","A36.jpg","3",".","37","0","44"
"204483619","21","encoding","encoding","123","A10.jpg","3",".","36","0","762"
"204483619","21","encoding","encoding","124","A40.jpg","3",".","37","0","265"
"204483619","21","encoding","encoding","125","A72.jpg","3",".","37","0","576"
"204483619","21","encoding","encoding","126","B0.jpg","1",".","37","0","343"
"204483619","21","encoding","encoding","127","A66.jpg","3",".","37","0","261"
"204483619","21","encoding","encoding","128","A17.jpg","3",".","37","0","444"
"204483619","21","encoding","encoding","129","A21.jpg","3",".","36","0","315"
"204483619","21","encoding","encoding","130","A57.jpg","3",".","36","0","546"
"204483619","21","encoding","encoding","131","A11.jpg","3",".","36","0","617"
"204483619","21","encoding","encoding","133","A66.jpg","3",".","36","0","902"
"204483619","21","encoding","encoding","134","B31.jpg","1",".","36","0","493"
"204483619","21","encoding","encoding","135","A3.jpg","3",".","36","0","340"
"204483619","21","encoding","encoding","136","A17.jpg","3",".","36","0","411"
"204483619","21","encoding","encoding","137","B35.jpg","1",".","36","0","185"
"204483619","21","encoding","encoding","138","A54.jpg","3",".","0","0","1000"
"204483619","21","encoding","encoding","139","A48.jpg","3",".","0","0","1000"
"204483619","21","encoding","encoding","140","B54.jpg","1",".","0","0","1000"
"204483619","21","encoding","encoding","141","A12.jpg","3",".","0","0","1000"
"204483619","21","encoding","encoding","142","A73.jpg","3",".","0","0","1000"
"204483619","21","encoding","encoding","143","A61.jpg","3",".","37","0","115"
"204483619","21","encoding","encoding","144","A37.jpg","3",".","0","0","1000"
"204483619","21","encoding","encoding","145","A0.jpg","3",".","0","0","1000"
"204483619","21","encoding","encoding","146","B68.jpg","1",".","36","0","288"
"204483619","21","encoding","encoding","147","B55.jpg","1",".","37","0","151"
"204483619","21","encoding","encoding","148","A24.jpg","3",".","37","0","117"
"204483619","21","encoding","encoding","149","A14.jpg","3",".","36","0","324"
"204483619","21","encoding","encoding","150","A4.jpg","3",".","36","0","819"
"204483619","21","encoding","encoding","151","A39.jpg","3",".","36","0","442"
"204483619","21","encoding","encoding","152","A71.jpg","3",".","36","0","425"
"204483619","21","encoding","encoding","153","A76.jpg","3",".","36","0","8"
"204483619","21","encoding","encoding","154","A11.jpg","3",".","0","0","1000"
"204483619","21","encoding","encoding","155","A7.jpg","3",".","0","0","1000"
"204483619","21","encoding","encoding","156","A12.jpg","3",".","36","0","205"
"204483619","21","encoding","encoding","157","A25.jpg","3",".","36","0","211"
"204483619","21","encoding","encoding","158","A0.jpg","3",".","36","0","274"
"204483619","21","encoding","encoding","159","A22.jpg","3",".","36","0","761"
"204483619","21","encoding","encoding","160","A45.jpg","3",".","37","0","393"
"204483619","21","encoding","encoding","161","B14.jpg","1",".","36","0","184"
"204483619","21","encoding","encoding","162","B16.jpg","1",".","36","0","463"
"204483619","21","encoding","encoding","163","B73.jpg","1",".","37","0","510"
"204483619","21","encoding","encoding","164","A63.jpg","3",".","37","0","412"
"204483619","21","encoding","encoding","165","A1.jpg","3",".","36","0","563"
"204483619","21","encoding","encoding","166","A41.jpg","3",".","36","0","827"
"204483619","21","encoding","encoding","167","B62.jpg","1",".","0","0","1000"
"204483619","21","encoding","encoding","168","A71.jpg","3",".","0","0","1000"
"204483619","21","encoding","encoding","169","B6.jpg","1",".","37","0","839"
"204483619","21","encoding","encoding","170","A77.jpg","3",".","37","0","662"
"204483619","21","encoding","encoding","171","A60.jpg","3",".","37","0","661"
"204483619","21","encoding","encoding","172","A76.jpg","3",".","37","0","700"
"204483619","21","encoding","encoding","173","A58.jpg","3",".","37","0","675"
"204483619","21","encoding","encoding","174","A35.jpg","3",".","37","0","778"
"204483619","21","encoding","encoding","175","A52.jpg","3",".","37","0","569"
"204483619","21","encoding","encoding","176","B48.jpg","1",".","37","0","720"
"204483619","21","encoding","encoding","177","A45.jpg","3",".","37","0","687"
"204483619","21","encoding","encoding","178","A55.jpg","3",".","37","0","686"
"204483619","21","encoding","encoding","179","A62.jpg","3",".","37","0","517"
"204483619","21","encoding","encoding","180","A20.jpg","3",".","37","0","564"
"204483619","21","encoding","encoding","181","A1.jpg","3",".","36","0","611"
"204483619","21","encoding","encoding","182","A6.jpg","3",".","37","0","434"
"204483619","21","encoding","encoding","183","A44.jpg","3",".","0","0","1000"
"204483619","21","encoding","encoding","184","A75.jpg","3",".","37","0","511"
"204483619","21","encoding","encoding","185","A70.jpg","3",".","37","0","526"
"204483619","21","encoding","encoding","186","A16.jpg","3",".","37","0","293"
"204483619","21","encoding","encoding","187","A47.jpg","3",".","37","0","84"
"204483619","21","encoding","encoding","188","A78.jpg","3",".","37","0","219"
"204483619","21","encoding","encoding","189","A31.jpg","3",".","36","0","858"
"204483619","21","encoding","encoding","190","A15.jpg","3",".","37","0","721"
"204483619","21","encoding","encoding","191","A24.jpg","3",".","36","0","432"
"204483619","21","encoding","encoding","192","A49.jpg","3",".","37","0","279"
"204483619","21","encoding","encoding","193","A78.jpg","3",".","37","0","974"
"204483619","21","encoding","encoding","194","B56.jpg","1",".","36","0","429"
"204483619","21","encoding","encoding","195","A38.jpg","3",".","37","0","491"
"204483619","21","encoding","encoding","196","A9.jpg","3",".","0","0","1000"
"204483619","21","encoding","encoding","197","B11.jpg","1",".","36","0","24"
"204483619","21","encoding","encoding","199","A40.jpg","3",".","0","0","1000"
"204483619","21","encoding","encoding","200","A35.jpg","3",".","36","0","489"
"204483619","21","encoding","encoding","201","A22.jpg","3",".","36","0","336"
"204483619","21","encoding","encoding","202","B45.jpg","1",".","36","0","407"
"204483619","21","encoding","encoding","203","A4.jpg","3",".","36","0","373"
"204483619","21","encoding","encoding","204","A53.jpg","3",".","36","0","308"
"204483619","21","encoding","encoding","205","A54.jpg","3",".","36","0","467"
"204483619","21","encoding","encoding","206","A55.jpg","3",".","37","0","618"
"204483619","21","encoding","encoding","207","A13.jpg","3",".","37","0","809"
"204483619","21","encoding","encoding","208","A27.jpg","3",".","0","0","1000"
"204483619","21","encoding","encoding","209","B29.jpg","1",".","37","0","607"
"204483619","21","encoding","encoding","210","A61.jpg","3",".","36","0","478"
"204483619","21","encoding","encoding","211","A73.jpg","3",".","36","0","389"
"204483619","21","encoding","encoding","212","A65.jpg","3",".","36","0","356"
"204483619","21","encoding","encoding","213","B65.jpg","1",".","37","0","691"
"204483619","21","encoding","encoding","214","A56.jpg","3",".","36","0","330"
"204483619","21","encoding","encoding","215","A70.jpg","3",".","36","0","249"
"204483619","21","encoding","encoding","216","A33.jpg","3",".","36","0","336"
"204483619","21","encoding","encoding","217","B43.jpg","1",".","36","0","159"
"204483619","21","encoding","encoding","218","A29.jpg","3",".","36","0","222"
"204483619","21","encoding","encoding","219","B19.jpg","1",".","36","0","861"
"204483619","21","encoding","encoding","220","A69.jpg","3",".","36","0","515"
"204483619","21","encoding","encoding","221","B30.jpg","1",".","36","0","338"
"204483619","21","encoding","encoding","222","A16.jpg","3",".","37","0","377"
"204483619","21","encoding","encoding","223","A41.jpg","3",".","37","0","480"
"204483619","21","encoding","encoding","224","A44.jpg","3",".","0","0","1000"
"204483619","21","encoding","encoding","225","A14.jpg","3",".","37","0","574"
"204483619","21","encoding","encoding","226","A30.jpg","3",".","36","0","365"
"204483619","21","encoding","encoding","227","A59.jpg","3",".","36","0","332"
"204483619","21","encoding","encoding","228","A47.jpg","3",".","37","0","739"
"204483619","21","encoding","encoding","229","A52.jpg","3",".","37","0","609"
"204483619","21","encoding","encoding","230","A68.jpg","3",".","36","0","320"
"204483619","21","encoding","encoding","231","B2.jpg","1",".","36","0","598"
"204483619","21","encoding","encoding","232","B41.jpg","1",".","37","0","638"
"204483619","21","encoding","encoding","233","A48.jpg","3",".","37","0","388"
"204483619","21","encoding","encoding","234","B23.jpg","1",".","36","0","371"
"204483619","21","encoding","encoding","235","A16.jpg","3",".","0","0","1000"
"204483619","21","encoding","encoding","236","A51.jpg","3",".","36","0","344"
"204483619","21","encoding","encoding","237","A26.jpg","3",".","37","0","255"
"204483619","21","encoding","encoding","238","B52.jpg","1",".","37","0","558"
"204483619","21","encoding","encoding","239","A2.jpg","3",".","0","0","1000"
"204483619","21","encoding","encoding","240","A59.jpg","3",".","37","0","452"
"204483619","21","encoding","encoding","241","B26.jpg","1",".","36","0","379"
"204483619","21","encoding","encoding","242","A68.jpg","3",".","36","0","754"
"204483619","21","encoding","encoding","243","A6.jpg","3",".","36","0","489"
"204483619","21","encoding","encoding","244","A43.jpg","3",".","37","0","767"
"204483619","21","encoding","encoding","245","A8.jpg","3",".","37","0","567"
"204483619","21","encoding","encoding","246","B51.jpg","1",".","36","0","438"
"204483619","21","encoding","encoding","247","B1.jpg","1",".","36","0","421"
"204483619","21","encoding","encoding","248","A20.jpg","3",".","36","0","428"
"204483619","21","encoding","encoding","249","A18.jpg","3",".","36","0","371"
"204483619","21","encoding","encoding","250","A3.jpg","3",".","37","0","225"
"204483619","21","encoding","encoding","251","A58.jpg","3",".","37","0","520"
"204483619","21","encoding","encoding","252","A31.jpg","3",".","0","0","1000"
"204483619","21","encoding","encoding","253","A60.jpg","3",".","37","0","70"
"204483619","21","encoding","encoding","254","A73.jpg","3",".","0","0","1000"
"204483619","21","encoding","encoding","255","A74.jpg","3",".","0","0","1000"
"204483619","21","encoding","encoding","256","A4.jpg","3",".","0","0","1000"
"204483619","21","encoding","encoding","257","A24.jpg","3",".","37","0","354"
"204483619","21","encoding","encoding","258","A30.jpg","3",".","37","0","305"
"204483619","21","encoding","encoding","259","A79.jpg","3",".","37","0","472"
"204483619","21","encoding","encoding","260","B10.jpg","1",".","37","0","423"
"204483619","21","encoding","encoding","261","A46.jpg","3",".","37","0","670"
"204483619","21","encoding","encoding","262","A18.jpg","3",".","37","0","893"
"204483619","21","encoding","encoding","263","A67.jpg","3",".","37","0","668"
"204483619","21","encoding","encoding","265","A23.jpg","3",".","36","0","209"
"204483619","21","encoding","encoding","266","B74.jpg","1",".","37","0","281"
"204483619","21","encoding","encoding","267","B37.jpg","1",".","36","0","576"
"204483619","21","encoding","encoding","268","B27.jpg","1",".","37","0","350"
"204483619","21","encoding","encoding","269","A56.jpg","3",".","37","0","333"
"204483619","21","encoding","encoding","270","A45.jpg","3",".","37","0","236"
"204483619","21","encoding","encoding","271","B47.jpg","1",".","36","0","891"
"204483619","21","encoding","encoding","272","A77.jpg","3",".","37","0","770"
"204483619","21","encoding","encoding","273","A28.jpg","3",".","37","0","665"
"204483619","21","encoding","encoding","274","A53.jpg","3",".","0","0","1000"
"204483619","21","encoding","encoding","275","B58.jpg","1",".","37","0","247"
"204483619","21","encoding","encoding","276","A75.jpg","3",".","37","0","366"
"204483619","21","encoding","encoding","277","B66.jpg","1",".","37","0","333"
"204483619","21","encoding","encoding","278","A79.jpg","3",".","0","0","1000"
"204483619","21","encoding","encoding","279","A75.jpg","3",".","37","0","467"
"204483619","21","encoding","encoding","280","A42.jpg","3",".","37","0","946"
"204483619","21","encoding","encoding","281","A8.jpg","3",".","36","0","433"
"204483619","21","encoding","encoding","282","A57.jpg","3",".","37","0","375"
"204483619","21","encoding","encoding","283","A40.jpg","3",".","0","0","1000"
"204483619","21","encoding","encoding","284","A57.jpg","3",".","0","0","1000"
"204483619","21","encoding","encoding","285","A7.jpg","3",".","37","0","468"
"204483619","21","encoding","encoding","286","B5.jpg","1",".","0","0","1000"
"204483619","21","encoding","encoding","287","A27.jpg","3",".","0","0","1000"
"204483619","21","encoding","encoding","288","A51.jpg","3",".","36","0","456"
"204483619","21","encoding","encoding","289","A61.jpg","3",".","0","0","1000"
"204483619","21","encoding","encoding","290","B3.jpg","1",".","36","0","901"
"204483619","21","encoding","encoding","291","A36.jpg","3",".","37","0","797"
"204483619","21","encoding","encoding","292","A28.jpg","3",".","36","0","924"
"204483619","21","encoding","encoding","293","A58.jpg","3",".","36","0","579"
"204483619","21","encoding","encoding","294","B72.jpg","1",".","36","0","194"
"204483619","21","encoding","encoding","295","A69.jpg","3",".","37","0","513"
"204483619","21","encoding","encoding","296","B38.jpg","1",".","36","0","192"
"204483619","21","encoding","encoding","297","A54.jpg","3",".","0","0","1000"
"204483619","21","encoding","encoding","298","A13.jpg","3",".","36","0","190"
"204483619","21","encoding","encoding","299","A49.jpg","3",".","36","0","260"
"204483619","21","encoding","encoding","300","A37.jpg","3",".","36","0","188"
"204483619","21","encoding","encoding","301","A28.jpg","3",".","36","0","427"
"204483619","21","encoding","encoding","302","B18.jpg","1",".","36","0","418"
"204483619","21","encoding","encoding","303","A29.jpg","3",".","37","0","248"
"204483619","21","encoding","encoding","304","B32.jpg","1",".","37","0","335"
"204483619","21","encoding","encoding","305","B12.jpg","1",".","37","0","430"
"204483619","21","encoding","encoding","306","B69.jpg","1",".","36","0","581"
"204483619","21","encoding","encoding","307","A23.jpg","3",".","37","0","764"
"204483619","21","encoding","encoding","308","B75.jpg","1",".","37","0","755"
"204483619","21","encoding","encoding","309","A26.jpg","3",".","37","0","906"
"204483619","21","encoding","encoding","310","B4.jpg","1",".","37","0","953"
"204483619","21","encoding","encoding","311","A19.jpg","3",".","37","0","736"
"204483619","21","encoding","encoding","312","B40.jpg","1",".","37","0","623"
"204483619","21","encoding","encoding","313","A10.jpg","3",".","37","0","910"
"204483619","21","encoding","encoding","314","B71.jpg","1",".","37","0","909"
"204483619","21","encoding","encoding","315","A38.jpg","3",".","0","0","1000"
"204483619","21","encoding","encoding","316","A11.jpg","3",".","0","0","1000"
"204483619","21","encoding","encoding","317","A29.jpg","3",".","37","0","762"
"204483619","21","encoding","encoding","318","A25.jpg","3",".","37","0","457"
"204483619","21","encoding","encoding","319","A47.jpg","3",".","37","0","320"
"204483619","21","encoding","encoding","320","A5.jpg","3",".","37","0","367"
"204483619","21","encoding","encoding","321","B28.jpg","1",".","36","0","934"
"204483619","21","encoding","encoding","322","B59.jpg","1",".","37","0","493"
"204483619","21","encoding","encoding","323","A3.jpg","3",".","37","0","555"
"204483619","21","encoding","encoding","324","B15.jpg","1",".","36","0","379"
"204483619","21","encoding","encoding","325","A21.jpg","",".","37","0","529"
"204483619","21","retrieval","old_object","1","B47.jpg",".","1","36","1","1555"
"204483619","21","retrieval","new_object","2","D75.jpg",".",".","37","1","727"
"204483619","21","retrieval","new_object","3","C42.jpg",".",".","37","1","884"
"204483619","21","retrieval","old_object","4","A40.jpg",".","3","37","0","792"
"204483619","21","retrieval","new_object","5","C7.jpg",".",".","36","0","676"
"204483619","21","retrieval","old_object","6","B70.jpg",".","1","37","0","905"
"204483619","21","retrieval","old_object","7","A25.jpg",".","3","36","1","925"
"204483619","21","retrieval","old_object","8","B44.jpg",".","1","37","0","794"
"204483619","21","retrieval","old_object","9","A20.jpg",".","3","36","1","574"
"204483619","21","retrieval","old_object","10","B22.jpg",".","1","37","0","723"
"204483619","21","retrieval","new_object","11","D14.jpg",".",".","37","1","734"
"204483619","21","retrieval","new_object","12","C49.jpg",".",".","37","1","634"
"204483619","21","retrieval","new_object","13","D16.jpg",".",".","37","1","847"
"204483619","21","retrieval","new_object","14","D17.jpg",".",".","37","1","682"
"204483619","21","retrieval","new_object","15","C63.jpg",".",".","37","1","792"
"204483619","21","retrieval","old_object","16","B6.jpg",".","1","36","1","1076"
"204483619","21","retrieval","new_object","17","C9.jpg",".",".","37","1","897"
"204483619","21","retrieval","old_object","18","B25.jpg",".","1","37","0","1013"
"204483619","21","retrieval","old_object","19","A72.jpg",".","3","37","0","762"
"204483619","21","retrieval","old_object","20","A78.jpg",".","3","36","1","774"
"204483619","21","retrieval","new_object","21","C31.jpg",".",".","37","1","794"
"204483619","21","retrieval","old_object","22","A44.jpg",".","3","36","1","670"
"204483619","21","retrieval","old_object","23","A57.jpg",".","3","36","1","611"
"204483619","21","retrieval","old_object","24","A24.jpg",".","3","36","1","583"
"204483619","21","retrieval","new_object","25","C76.jpg",".",".","37","1","796"
"204483619","21","retrieval","new_object","26","D49.jpg",".",".","37","1","913"
"204483619","21","retrieval","new_object","27","C2.jpg",".",".","37","1","765"
"204483619","21","retrieval","new_object","28","C57.jpg",".",".","37","1","617"
"204483619","21","retrieval","old_object","29","B16.jpg",".","1","37","0","598"
"204483619","21","retrieval","old_object","30","B60.jpg",".","1","36","1","1114"
"204483619","21","retrieval","old_object","31","B55.jpg",".","1","37","0","783"
"204483619","21","retrieval","new_object","32","C69.jpg",".",".","37","1","1363"
"204483619","21","retrieval","new_object","33","C32.jpg",".",".","37","1","1880"
"204483619","21","retrieval","old_object","34","A49.jpg",".","3","37","0","540"
"204483619","21","retrieval","new_object","35","D18.jpg",".",".","37","1","721"
"204483619","21","retrieval","new_object","36","C62.jpg",".",".","37","1","686"
"204483619","21","retrieval","new_object","37","C40.jpg",".",".","37","1","682"
"204483619","21","retrieval","old_object","38","B76.jpg",".","1","36","1","839"
"204483619","21","retrieval","old_object","39","B27.jpg",".","1","37","0","708"
"204483619","21","retrieval","new_object","40","D23.jpg",".",".","37","1","680"
"204483619","21","retrieval","new_object","41","D5.jpg",".",".","37","1","709"
"204483619","21","retrieval","new_object","42","C70.jpg",".",".","37","1","585"
"204483619","21","retrieval","old_object","43","B32.jpg",".","1","37","0","718"
"204483619","21","retrieval","old_object","44","A59.jpg",".","3","36","1","834"
"204483619","21","retrieval","new_object","45","C59.jpg",".",".","37","1","838"
"204483619","21","retrieval","old_object","46","B1.jpg",".","1","36","1","819"
"204483619","21","retrieval","new_object","47","C55.jpg",".",".","37","1","831"
"204483619","21","retrieval","old_object","48","A54.jpg",".","3","37","0","996"
"204483619","21","retrieval","new_object","49","C35.jpg",".",".","37","1","913"
"204483619","21","retrieval","new_object","50","D79.jpg",".",".","37","1","997"
"204483619","21","retrieval","old_object","51","A79.jpg",".","3","37","0","1250"
"204483619","21","retrieval","new_object","52","C15.jpg",".",".","37","1","1078"
"204483619","21","retrieval","old_object","53","A42.jpg",".","3","37","0","795"
"204483619","21","retrieval","old_object","54","B23.jpg",".","1","37","0","808"
"204483619","21","retrieval","new_object","55","D60.jpg",".",".","37","1","868"
"204483619","21","retrieval","old_object","56","B43.jpg",".","1","37","0","280"
"204483619","21","retrieval","new_object","57","D10.jpg",".",".","37","1","989"
"204483619","21","retrieval","old_object","58","A22.jpg",".","3","37","0","785"
"204483619","21","retrieval","new_object","59","D35.jpg",".",".","37","1","757"
"204483619","21","retrieval","new_object","60","C61.jpg",".",".","37","1","778"
"204483619","21","retrieval","new_object","61","C54.jpg",".",".","37","1","839"
"204483619","21","retrieval","new_object","62","D71.jpg",".",".","37","1","844"
"204483619","21","retrieval","old_object","63","A74.jpg",".","3","37","0","1224"
"204483619","21","retrieval","new_object","64","C36.jpg",".",".","37","1","1020"
"204483619","21","retrieval","old_object","65","B0.jpg",".","1","37","0","674"
"204483619","21","retrieval","old_object","67","A28.jpg",".","3","36","1","721"
"204483619","21","retrieval","new_object","68","C68.jpg",".",".","37","1","773"
"204483619","21","retrieval","old_object","69","A65.jpg",".","3","36","1","866"
"204483619","21","retrieval","new_object","70","D22.jpg",".",".","37","1","679"
"204483619","21","retrieval","old_object","71","A4.jpg",".","3","36","1","779"
"204483619","21","retrieval","old_object","72","B3.jpg",".","1","36","1","912"
"204483619","21","retrieval","old_object","73","B67.jpg",".","1","37","0","772"
"204483619","21","retrieval","new_object","74","D33.jpg",".",".","37","1","665"
"204483619","21","retrieval","new_object","75","C65.jpg",".",".","37","1","813"
"204483619","21","retrieval","new_object","76","D36.jpg",".",".","37","1","769"
"204483619","21","retrieval","old_object","77","B45.jpg",".","1","37","0","894"
"204483619","21","retrieval","new_object","78","D37.jpg",".",".","36","0","738"
"204483619","21","retrieval","old_object","79","A8.jpg",".","3","36","1","894"
"204483619","21","retrieval","new_object","80","D73.jpg",".",".","37","1","931"
"204483619","21","retrieval","new_object","81","D7.jpg",".",".","37","1","1120"
"204483619","21","retrieval","old_object","82","B78.jpg",".","1","37","0","724"
"204483619","21","retrieval","old_object","83","B46.jpg",".","1","37","0","905"
"204483619","21","retrieval","old_object","84","B72.jpg",".","1","37","0","933"
"204483619","21","retrieval","new_object","85","D52.jpg",".",".","37","1","954"
"204483619","21","retrieval","old_object","86","A61.jpg",".","3","37","0","583"
"204483619","21","retrieval","old_object","87","A77.jpg",".","3","37","0","771"
"204483619","21","retrieval","new_object","88","D44.jpg",".",".","37","1","1567"
"204483619","21","retrieval","new_object","89","D55.jpg",".",".","37","1","691"
"204483619","21","retrieval","old_object","90","B64.jpg",".","1","37","0","879"
"204483619","21","retrieval","new_object","91","D57.jpg",".",".","37","1","964"
"204483619","21","retrieval","new_object","92","C1.jpg",".",".","0","0","2000"
"204483619","21","retrieval","old_object","93","B12.jpg",".","1","36","1","781"
"204483619","21","retrieval","old_object","94","B26.jpg",".","1","37","0","930"
"204483619","21","retrieval","old_object","95","B62.jpg",".","1","37","0","678"
"204483619","21","retrieval","new_object","96","D9.jpg",".",".","37","1","843"
"204483619","21","retrieval","new_object","97","C53.jpg",".",".","37","1","720"
"204483619","21","retrieval","old_object","98","B50.jpg",".","1","37","0","843"
"204483619","21","retrieval","new_object","99","D29.jpg",".",".","37","1","777"
"204483619","21","retrieval","new_object","100","D24.jpg",".",".","37","1","589"
"204483619","21","retrieval","new_object","101","C74.jpg",".",".","37","1","912"
"204483619","21","retrieval","new_object","102","D69.jpg",".",".","37","1","860"
"204483619","21","retrieval","new_object","103","D28.jpg",".",".","37","1","1225"
"204483619","21","retrieval","old_object","104","B7.jpg",".","1","36","1","1245"
"204483619","21","retrieval","new_object","105","D39.jpg",".",".","37","1","1194"
"204483619","21","retrieval","old_object","106","B20.jpg",".","1","36","1","1254"
"204483619","21","retrieval","old_object","107","A69.jpg",".","3","37","0","988"
"204483619","21","retrieval","new_object","108","D41.jpg",".",".","37","1","1184"
"204483619","21","retrieval","old_object","109","A27.jpg",".","3","37","0","916"
"204483619","21","retrieval","old_object","110","B14.jpg",".","1","36","1","489"
"204483619","21","retrieval","old_object","111","B30.jpg",".","1","37","0","973"
"204483619","21","retrieval","new_object","112","D72.jpg",".",".","37","1","162"
"204483619","21","retrieval","old_object","113","B56.jpg",".","1","36","1","1158"
"204483619","21","retrieval","new_object","114","D4.jpg",".",".","36","0","1787"
"204483619","21","retrieval","new_object","115","C77.jpg",".",".","37","1","976"
"204483619","21","retrieval","old_object","116","A19.jpg",".","3","36","1","1436"
"204483619","21","retrieval","old_object","117","A38.jpg",".","3","36","1","1665"
"204483619","21","retrieval","old_object","118","A45.jpg",".","3","36","1","1469"
"204483619","21","retrieval","old_object","119","B48.jpg",".","1","36","1","698"
"204483619","21","retrieval","new_object","120","C10.jpg",".",".","37","1","1206"
"204483619","21","retrieval","old_object","121","B29.jpg",".","1","36","1","1426"
"204483619","21","retrieval","new_object","122","C72.jpg",".",".","36","0","863"
"204483619","21","retrieval","old_object","123","B37.jpg",".","1","37","0","628"
"204483619","21","retrieval","old_object","124","A14.jpg",".","3","37","0","664"
"204483619","21","retrieval","old_object","125","A26.jpg",".","3","36","1","877"
"204483619","21","retrieval","old_object","126","B69.jpg",".","1","36","1","777"
"204483619","21","retrieval","old_object","127","A66.jpg",".","3","36","1","598"
"204483619","21","retrieval","old_object","128","B31.jpg",".","1","36","1","866"
"204483619","21","retrieval","new_object","129","D40.jpg",".",".","37","1","639"
"204483619","21","retrieval","new_object","130","D46.jpg",".",".","37","1","772"
"204483619","21","retrieval","old_object","131","A67.jpg",".","3","37","0","936"
"204483619","21","retrieval","new_object","133","D6.jpg",".",".","36","0","583"
"204483619","21","retrieval","old_object","134","B9.jpg",".","1","37","0","948"
"204483619","21","retrieval","new_object","135","C71.jpg",".",".","37","1","704"
"204483619","21","retrieval","old_object","136","B42.jpg",".","1","37","0","772"
"204483619","21","retrieval","new_object","137","C25.jpg",".",".","37","1","689"
"204483619","21","retrieval","old_object","138","A68.jpg",".","3","37","0","854"
"204483619","21","retrieval","old_object","139","A64.jpg",".","3","37","0","1339"
"204483619","21","retrieval","new_object","140","D11.jpg",".",".","37","1","751"
"204483619","21","retrieval","new_object","141","C44.jpg",".",".","37","1","795"
"204483619","21","retrieval","new_object","142","C24.jpg",".",".","37","1","735"
"204483619","21","retrieval","old_object","143","A30.jpg",".","3","37","0","748"
"204483619","21","retrieval","new_object","144","D62.jpg",".",".","37","1","1128"
"204483619","21","retrieval","new_object","145","C16.jpg",".",".","0","0","2000"
"204483619","21","retrieval","old_object","146","B36.jpg",".","1","37","0","721"
"204483619","21","retrieval","old_object","147","A55.jpg",".","3","0","0","2000"
"204483619","21","retrieval","new_object","148","C48.jpg",".",".","37","1","698"
"204483619","21","retrieval","old_object","149","A36.jpg",".","3","37","0","951"
"204483619","21","retrieval","new_object","150","C47.jpg",".",".","37","1","1187"
"204483619","21","retrieval","old_object","151","B59.jpg",".","1","37","0","1071"
"204483619","21","retrieval","old_object","152","A9.jpg",".","3","37","0","948"
"204483619","21","retrieval","old_object","153","B2.jpg",".","1","37","0","624"
"204483619","21","retrieval","old_object","154","A60.jpg",".","3","36","1","741"
"204483619","21","retrieval","new_object","155","C27.jpg",".",".","37","1","817"
"204483619","21","retrieval","old_object","156","B13.jpg",".","1","37","0","733"
"204483619","21","retrieval","new_object","157","C79.jpg",".",".","37","1","698"
"204483619","21","retrieval","new_object","158","C17.jpg",".",".","36","0","439"
"204483619","21","retrieval","new_object","159","C33.jpg",".",".","37","1","138"
"204483619","21","retrieval","old_object","160","A75.jpg",".","3","37","0","1495"
"204483619","21","retrieval","new_object","161","D63.jpg",".",".","37","1","747"
"204483619","21","retrieval","new_object","162","C8.jpg",".",".","36","0","895"
"204483619","21","retrieval","old_object","163","B71.jpg",".","1","36","1","644"
"204483619","21","retrieval","old_object","164","B21.jpg",".","1","37","0","513"
"204483619","21","retrieval","new_object","165","C6.jpg",".",".","37","1","725"
"204483619","21","retrieval","new_object","166","C13.jpg",".",".","37","1","842"
"204483619","21","retrieval","new_object","167","D26.jpg",".",".","37","1","895"
"204483619","21","retrieval","old_object","168","A12.jpg",".","3","37","0","819"
"204483619","21","retrieval","old_object","169","A53.jpg",".","3","0","0","2000"
"204483619","21","retrieval","new_object","170","C22.jpg",".",".","37","1","708"
"204483619","21","retrieval","new_object","171","D2.jpg",".",".","0","0","2000"
"204483619","21","retrieval","new_object","172","C73.jpg",".",".","36","0","909"
"204483619","21","retrieval","new_object","173","C18.jpg",".",".","37","1","1202"
"204483619","21","retrieval","old_object","174","A23.jpg",".","3","0","0","2000"
"204483619","21","retrieval","new_object","175","D42.jpg",".",".","37","1","946"
"204483619","21","retrieval","old_object","176","A21.jpg",".","3","36","1","639"
"204483619","21","retrieval","new_object","177","C67.jpg",".",".","37","1","1140"
"204483619","21","retrieval","old_object","178","A58.jpg",".","3","36","1","808"
"204483619","21","retrieval","old_object","179","B38.jpg",".","1","37","0","941"
"204483619","21","retrieval","old_object","180","A41.jpg",".","3","36","1","625"
"204483619","21","retrieval","old_object","181","A17.jpg",".","3","37","0","685"
"204483619","21","retrieval","old_object","182","B8.jpg",".","1","37","0","1066"
"204483619","21","retrieval","old_object","183","B65.jpg",".","1","37","0","694"
"204483619","21","retrieval","new_object","184","C39.jpg",".",".","36","0","675"
"204483619","21","retrieval","new_object","185","D51.jpg",".",".","37","1","759"
"204483619","21","retrieval","old_object","186","A3.jpg",".","3","36","1","1100"
"204483619","21","retrieval","old_object","187","B77.jpg",".","1","37","0","712"
"204483619","21","retrieval","old_object","188","A1.jpg",".","3","36","1","1350"
"204483619","21","retrieval","old_object","189","B19.jpg",".","1","36","1","946"
"204483619","21","retrieval","old_object","190","B54.jpg",".","1","37","0","694"
"204483619","21","retrieval","old_object","191","B49.jpg",".","1","37","0","883"
"204483619","21","retrieval","new_object","192","C38.jpg",".",".","37","1","807"
"204483619","21","retrieval","new_object","193","D25.jpg",".",".","37","1","1507"
"204483619","21","retrieval","old_object","194","A31.jpg",".","3","36","1","1328"
"204483619","21","retrieval","new_object","195","D61.jpg",".",".","37","1","684"
"204483619","21","retrieval","old_object","196","B61.jpg",".","1","37","0","865"
"204483619","21","retrieval","new_object","197","D47.jpg",".",".","37","1","966"
"204483619","21","retrieval","new_object","199","D1.jpg",".",".","37","1","759"
"204483619","21","retrieval","new_object","200","D45.jpg",".",".","37","1","500"
"204483619","21","retrieval","new_object","201","C5.jpg",".",".","37","1","816"
"204483619","21","retrieval","new_object","202","C43.jpg",".",".","37","1","565"
"204483619","21","retrieval","new_object","203","D30.jpg",".",".","37","1","505"
"204483619","21","retrieval","new_object","204","C58.jpg",".",".","37","1","718"
"204483619","21","retrieval","old_object","205","B18.jpg",".","1","37","0","563"
"204483619","21","retrieval","new_object","206","D27.jpg",".",".","37","1","342"
"204483619","21","retrieval","new_object","207","C34.jpg",".",".","37","1","339"
"204483619","21","retrieval","new_object","208","C19.jpg",".",".","37","1","888"
"204483619","21","retrieval","old_object","209","B4.jpg",".","1","37","0","316"
"204483619","21","retrieval","old_object","210","A50.jpg",".","3","37","0","217"
"204483619","21","retrieval","old_object","211","A71.jpg",".","3","37","0","245"
"204483619","21","retrieval","new_object","212","D64.jpg",".",".","37","1","426"
"204483619","21","retrieval","old_object","213","B33.jpg",".","1","37","0","263"
"204483619","21","retrieval","new_object","214","D13.jpg",".",".","36","0","875"
"204483619","21","retrieval","old_object","215","A46.jpg",".","3","37","0","423"
"204483619","21","retrieval","old_object","216","A35.jpg",".","3","37","0","644"
"204483619","21","retrieval","old_object","217","B11.jpg",".","1","37","0","624"
"204483619","21","retrieval","old_object","218","B41.jpg",".","1","37","0","996"
"204483619","21","retrieval","new_object","219","C26.jpg",".",".","37","1","825"
"204483619","21","retrieval","old_object","220","A70.jpg",".","3","37","0","1285"
"204483619","21","retrieval","new_object","221","D32.jpg",".",".","37","1","793"
"204483619","21","retrieval","new_object","222","C50.jpg",".",".","37","1","734"
"204483619","21","retrieval","new_object","223","D76.jpg",".",".","37","1","1473"
"204483619","21","retrieval","new_object","224","C46.jpg",".",".","37","1","1302"
"204483619","21","retrieval","new_object","225","D56.jpg",".",".","37","1","586"
"204483619","21","retrieval","new_object","226","D48.jpg",".",".","37","1","1087"
"204483619","21","retrieval","new_object","227","C41.jpg",".",".","37","1","1237"
"204483619","21","retrieval","old_object","228","A0.jpg",".","3","36","1","632"
"204483619","21","retrieval","old_object","229","A73.jpg",".","3","37","0","732"
"204483619","21","retrieval","new_object","230","D12.jpg",".",".","37","1","905"
"204483619","21","retrieval","new_object","231","D66.jpg",".",".","37","1","781"
"204483619","21","retrieval","old_object","232","B74.jpg",".","1","36","1","1000"
"204483619","21","retrieval","new_object","233","C78.jpg",".",".","37","1","573"
"204483619","21","retrieval","old_object","234","B35.jpg",".","1","37","0","1297"
"204483619","21","retrieval","old_object","235","B24.jpg",".","1","37","0","678"
"204483619","21","retrieval","new_object","236","D38.jpg",".",".","37","1","842"
"204483619","21","retrieval","old_object","237","A16.jpg",".","3","37","0","654"
"204483619","21","retrieval","old_object","238","A33.jpg",".","3","36","1","763"
"204483619","21","retrieval","new_object","239","D68.jpg",".",".","37","1","863"
"204483619","21","retrieval","new_object","240","D43.jpg",".",".","37","1","916"
"204483619","21","retrieval","old_object","241","B66.jpg",".","1","36","1","952"
"204483619","21","retrieval","old_object","242","A2.jpg",".","3","36","1","853"
"204483619","21","retrieval","old_object","243","B28.jpg",".","1","37","0","913"
"204483619","21","retrieval","new_object","244","C64.jpg",".",".","36","0","550"
"204483619","21","retrieval","old_object","245","A51.jpg",".","3","37","0","347"
"204483619","21","retrieval","new_object","246","D15.jpg",".",".","37","1","271"
"204483619","21","retrieval","old_object","247","A62.jpg",".","3","36","1","1044"
"204483619","21","retrieval","new_object","248","D65.jpg",".",".","36","0","744"
"204483619","21","retrieval","new_object","249","C14.jpg",".",".","37","1","1004"
"204483619","21","retrieval","new_object","250","D74.jpg",".",".","37","1","983"
"204483619","21","retrieval","old_object","251","A32.jpg",".","3","37","0","892"
"204483619","21","retrieval","new_object","252","C56.jpg",".",".","37","1","1009"
"204483619","21","retrieval","old_object","253","B53.jpg",".","1","37","0","957"
"204483619","21","retrieval","old_object","254","A76.jpg",".","3","37","0","1594"
"204483619","21","retrieval","new_object","255","C60.jpg",".",".","37","1","886"
"204483619","21","retrieval","new_object","256","C52.jpg",".",".","37","1","1122"
"204483619","21","retrieval","old_object","257","A6.jpg",".","3","36","1","758"
"204483619","21","retrieval","old_object","258","A48.jpg",".","3","37","0","891"
"204483619","21","retrieval","old_object","259","B68.jpg",".","1","37","0","911"
"204483619","21","retrieval","new_object","260","C11.jpg",".",".","37","1","915"
"204483619","21","retrieval","new_object","261","C23.jpg",".",".","37","1","647"
"204483619","21","retrieval","old_object","262","A10.jpg",".","3","37","0","826"
"204483619","21","retrieval","old_object","263","A18.jpg",".","3","37","0","863"
"204483619","21","retrieval","new_object","265","D21.jpg",".",".","37","1","809"
"204483619","21","retrieval","old_object","266","B51.jpg",".","1","36","1","902"
"204483619","21","retrieval","new_object","267","C75.jpg",".",".","37","1","707"
"204483619","21","retrieval","new_object","268","C45.jpg",".",".","37","1","799"
"204483619","21","retrieval","old_object","269","A15.jpg",".","3","0","0","2000"
"204483619","21","retrieval","old_object","270","A29.jpg",".","3","37","0","568"
"204483619","21","retrieval","new_object","271","D67.jpg",".",".","0","0","2000"
"204483619","21","retrieval","old_object","272","B5.jpg",".","1","37","0","977"
"204483619","21","retrieval","new_object","273","D31.jpg",".",".","37","1","797"
"204483619","21","retrieval","new_object","274","D58.jpg",".",".","37","1","1170"
"204483619","21","retrieval","new_object","275","D8.jpg",".",".","37","1","663"
"204483619","21","retrieval","old_object","276","A47.jpg",".","3","36","1","955"
"204483619","21","retrieval","old_object","277","B79.jpg",".","1","0","0","2000"
"204483619","21","retrieval","new_object","278","C29.jpg",".",".","37","1","492"
"204483619","21","retrieval","new_object","279","D78.jpg",".",".","37","1","809"
"204483619","21","retrieval","new_object","280","D53.jpg",".",".","37","1","1045"
"204483619","21","retrieval","old_object","281","B17.jpg",".","1","37","0","1234"
"204483619","21","retrieval","new_object","282","D19.jpg",".",".","37","1","1582"
"204483619","21","retrieval","old_object","283","B15.jpg",".","1","37","0","555"
"204483619","21","retrieval","new_object","284","C0.jpg",".",".","37","1","591"
"204483619","21","retrieval","new_object","285","C3.jpg",".",".","0","0","2000"
"204483619","21","retrieval","old_object","286","B34.jpg",".","1","37","0","680"
"204483619","21","retrieval","new_object","287","D20.jpg",".",".","37","1","701"
"204483619","21","retrieval","new_object","288","C51.jpg",".",".","37","1","1514"
"204483619","21","retrieval","old_object","289","A5.jpg",".","3","36","1","774"
"204483619","21","retrieval","old_object","290","A56.jpg",".","3","36","1","1003"
"204483619","21","retrieval","old_object","291","B75.jpg",".","1","37","0","1599"
"204483619","21","retrieval","new_object","292","D70.jpg",".",".","37","1","948"
"204483619","21","retrieval","old_object","293","A63.jpg",".","3","37","0","976"
"204483619","21","retrieval","old_object","294","A39.jpg",".","3","37","0","652"
"204483619","21","retrieval","new_object","295","C30.jpg",".",".","37","1","664"
"204483619","21","retrieval","old_object","296","B58.jpg",".","1","37","0","1093"
"204483619","21","retrieval","new_object","297","D54.jpg",".",".","37","1","921"
"204483619","21","retrieval","old_object","298","A7.jpg",".","3","37","0","1284"
"204483619","21","retrieval","new_object","299","D50.jpg",".",".","0","0","2000"
"204483619","21","retrieval","old_object","300","A13.jpg",".","3","36","1","1358"
"204483619","21","retrieval","new_object","301","C4.jpg",".",".","37","1","1162"
"204483619","21","retrieval","old_object","302","B73.jpg",".","1","37","0","1149"
"204483619","21","retrieval","new_object","303","D0.jpg",".",".","36","0","42"
"204483619","21","retrieval","new_object","304","D77.jpg",".",".","37","1","557"
"204483619","21","retrieval","old_object","305","B10.jpg",".","1","37","0","914"
"204483619","21","retrieval","new_object","306","C66.jpg",".",".","36","0","893"
"204483619","21","retrieval","new_object","307","D34.jpg",".",".","37","1","984"
"204483619","21","retrieval","old_object","308","A37.jpg",".","3","37","0","820"
"204483619","21","retrieval","new_object","309","C37.jpg",".",".","37","1","825"
"204483619","21","retrieval","new_object","310","C12.jpg",".",".","37","1","789"
"204483619","21","retrieval","old_object","311","B57.jpg",".","1","37","0","905"
"204483619","21","retrieval","new_object","312","D3.jpg",".",".","37","1","990"
"204483619","21","retrieval","old_object","313","B40.jpg",".","1","37","0","667"
"204483619","21","retrieval","new_object","314","C28.jpg",".",".","37","1","806"
"204483619","21","retrieval","new_object","315","C21.jpg",".",".","37","1","755"
"204483619","21","retrieval","old_object","316","B63.jpg",".","1","37","0","647"
"204483619","21","retrieval","old_object","317","A43.jpg",".","3","37","0","683"
"204483619","21","retrieval","old_object","318","A34.jpg",".","3","37","0","711"
"204483619","21","retrieval","old_object","319","B39.jpg",".","1","37","0","819"
"204483619","21","retrieval","new_object","320","D59.jpg",".",".","37","1","671"
"204483619","21","retrieval","new_object","321","C20.jpg",".",".","37","1","492"
"204483619","21","retrieval","old_object","322","A52.jpg",".","3","37","0","840"
"204483619","21","retrieval","old_object","323","B52.jpg",".","1","37","0","700"
"204483619","21","retrieval","new_object","324","C79.jpg",".",".","0","0","2000"
"204483619","21","retrieval","old_object","325","A11.jpg",".","3","37","0","596"
"204483619","21","demographics_block","gender","1",".",".",".","Male","1","26990"
"204483619","21","demographics_block","age","1",".",".",".","32","1","26990"
"204483619","21","demographics_block","education","1",".",".",".","15","1","26990"
"204483619","21","demographics_block","left_right_handed","2",".",".",".","Right","1","9136"
"204483619","21","demographics_block","raceoption1","2",".",".",".","0","1","9136"
"204483619","21","demographics_block","raceoption2","2",".",".",".","","1","9136"
"204483619","21","demographics_block","raceoption3","2",".",".",".","","1","9136"
"204483619","21","demographics_block","raceoption4","2",".",".",".","","1","9136"
"204483619","21","demographics_block","raceoption5","2",".",".",".","","1","9136"
"204483619","21","demographics_block","raceoption6","2",".",".",".","","1","9136"
"204483619","21","demographics_block","raceoption7","2",".",".",".","","1","9136"
"204483619","21","demographics_block","raceoption8","2",".",".",".","","1","9136"
"204483619","21","demographics_block","raceoption9","2",".",".",".","","1","9136"
"204483619","21","demographics_block","raceother","2",".",".",".","","1","9136"
"204483619","21","demographics_block","raceother","2",".",".",".","","1","9136"
"204483619","21","demographics_block","english_language","2",".",".",".","Yes","1","9136"
"204483619","21","demographics_block","other","2",".",".",".","","1","9136"
"204483619","21","demographics_block","eyesight","3",".",".",".","Yes","1","72399"
"204483619","21","demographics_block","colorblind","3",".",".",".","No","1","72399"
