"group","subject","blockcode","trialcode","trialnum","stimulus","encoding_condition","old_object_condition","response","correct","latency"
"21","21","encoding","encoding","1","Hippopotamus.jpg","1",".","36","0","818"
"21","21","encoding","encoding","2","BusStop.jpg","3",".","37","0","737"
"21","21","encoding","encoding","3","Bottle_Blue.jpg","1",".","37","0","808"
"21","21","encoding","encoding","4","NeedlesAcupuncture.jpg","1",".","37","0","688"
"21","21","encoding","encoding","5","LeatherPuncherTool.jpg","1",".","37","0","493"
"21","21","encoding","encoding","6","Bottle_Wine.jpg","3",".","37","0","524"
"21","21","encoding","encoding","7","Dress_Party.jpg","3",".","37","0","585"
"21","21","encoding","encoding","8","Flute_Wooden.jpg","3",".","0","0","1000"
"21","21","encoding","encoding","9","Knife_Hunting.jpg","1",".","37","0","591"
"21","21","encoding","encoding","10","Knee.jpg","1",".","37","0","541"
"21","21","encoding","encoding","11","Bottle_Wine.jpg","3",".","37","0","459"
"21","21","encoding","encoding","12","Mug_Beer.jpg","3",".","37","0","635"
"21","21","encoding","encoding","13","Toy_RockingHorseBlack.jpg","3",".","37","0","572"
"21","21","encoding","encoding","14","MixingGlass.jpg","3",".","37","0","573"
"21","21","encoding","encoding","15","MonaLisa.jpg","3",".","37","0","527"
"21","21","encoding","encoding","16","Tripod.jpg","3",".","37","0","515"
"21","21","encoding","encoding","17","Sign_Wetfloor.jpg","1",".","37","0","430"
"21","21","encoding","encoding","18","SmokeDetector.jpg","3",".","37","0","536"
"21","21","encoding","encoding","19","CookieCutter_Bell.jpg","3",".","37","0","492"
"21","21","encoding","encoding","20","DogTreat.jpg","3",".","36","0","548"
"21","21","encoding","encoding","21","Shampoo.jpg","1",".","37","0","555"
"21","21","encoding","encoding","22","Chest_Toys.jpg","1",".","37","0","665"
"21","21","encoding","encoding","23","Light_Siren.jpg","3",".","37","0","701"
"21","21","encoding","encoding","24","Leaf_Clover.jpg","3",".","36","0","823"
"21","21","encoding","encoding","25","Fish_Rockbass.jpg","3",".","36","0","699"
"21","21","encoding","encoding","26","Exercise_Stretch.jpg","3",".","37","0","585"
"21","21","encoding","encoding","27","Blanket.jpg","3",".","37","0","629"
"21","21","encoding","encoding","28","Autocreeper.jpg","3",".","37","0","529"
"21","21","encoding","encoding","29","Mattress.jpg","1",".","37","0","559"
"21","21","encoding","encoding","30","Bird_Cardinal.jpg","1",".","37","0","554"
"21","21","encoding","encoding","31","JukeboxAntique.jpg","1",".","37","0","470"
"21","21","encoding","encoding","32","BicycleHandleGrip.jpg","3",".","37","0","752"
"21","21","encoding","encoding","33","Chair_BeanBag.jpg","1",".","37","0","691"
"21","21","encoding","encoding","34","Fruit_Cactus.jpg","3",".","36","0","619"
"21","21","encoding","encoding","35","Autocreeper.jpg","3",".","37","0","506"
"21","21","encoding","encoding","36","Pitcher.jpg","3",".","37","0","517"
"21","21","encoding","encoding","37","ShoulderPads.jpg","3",".","37","0","562"
"21","21","encoding","encoding","38","Saw.jpg","3",".","37","0","503"
"21","21","encoding","encoding","39","Mitt_Oven.jpg","3",".","37","0","622"
"21","21","encoding","encoding","40","Exercise_Stretch.jpg","3",".","37","0","529"
"21","21","encoding","encoding","41","Pipe_Drain.jpg","3",".","37","0","511"
"21","21","encoding","encoding","42","Candy_Chocolate.jpg","3",".","37","0","700"
"21","21","encoding","encoding","43","Fuse.jpg","1",".","37","0","504"
"21","21","encoding","encoding","44","Guitar_Acoustic.jpg","3",".","37","0","437"
"21","21","encoding","encoding","45","Toy_BlocksPlastic Colourful.jpg","3",".","37","0","411"
"21","21","encoding","encoding","46","DentistOverheadLight.jpg","3",".","37","0","516"
"21","21","encoding","encoding","47","Pineapple.jpg","1",".","36","0","417"
"21","21","encoding","encoding","48","Golf_Bag.jpg","3",".","37","0","429"
"21","21","encoding","encoding","49","BicycleBrake.jpg","3",".","37","0","438"
"21","21","encoding","encoding","50","Shoes_DutchClogs.jpg","3",".","37","0","459"
"21","21","encoding","encoding","51","Box_Jewellery.jpg","3",".","37","0","428"
"21","21","encoding","encoding","52","DrinkingFountain.jpg","3",".","37","0","497"
"21","21","encoding","encoding","53","Bullet.jpg","1",".","37","0","468"
"21","21","encoding","encoding","54","WireStripper.jpg","3",".","37","0","423"
"21","21","encoding","encoding","55","Toys_Lego.jpg","3",".","37","0","366"
"21","21","encoding","encoding","56","Toy_Moose.jpg","1",".","37","0","969"
"21","21","encoding","encoding","57","Tickets_Blank.jpg","1",".","37","0","707"
"21","21","encoding","encoding","58","Speaker_OnStand.jpg","1",".","37","0","510"
"21","21","encoding","encoding","59","Lock_Combination.jpg","3",".","37","0","502"
"21","21","encoding","encoding","60","Helmet_Construction.jpg","3",".","37","0","477"
"21","21","encoding","encoding","61","Mitt_Oven.jpg","3",".","37","0","527"
"21","21","encoding","encoding","62","Megaphone.jpg","1",".","37","0","389"
"21","21","encoding","encoding","63","DoorBell.jpg","3",".","37","0","459"
"21","21","encoding","encoding","64","Flamingo_Cartoon.jpg","3",".","37","0","602"
"21","21","encoding","encoding","65","Table_Poker.jpg","3",".","37","0","543"
"21","21","encoding","encoding","67","Apple_RedAndGreen.jpg","3",".","36","0","572"
"21","21","encoding","encoding","68","Golf_Bag.jpg","3",".","37","0","389"
"21","21","encoding","encoding","69","Thermostat_Digital.jpg","3",".","37","0","389"
"21","21","encoding","encoding","70","CandyDispenser.jpg","3",".","37","0","494"
"21","21","encoding","encoding","71","Cup_Styrofoam.jpg","1",".","37","0","656"
"21","21","encoding","encoding","72","Paratrooper.jpg","1",".","37","0","495"
"21","21","encoding","encoding","73","Helmet_Soldier.jpg","3",".","37","0","509"
"21","21","encoding","encoding","74","Flute_Wooden.jpg","3",".","37","0","622"
"21","21","encoding","encoding","75","NintendoWii.jpg","1",".","37","0","523"
"21","21","encoding","encoding","76","Clip_Paper.jpg","1",".","37","0","478"
"21","21","encoding","encoding","77","Candy_Chocolate.jpg","3",".","37","0","434"
"21","21","encoding","encoding","78","Fortress.jpg","3",".","37","0","493"
"21","21","encoding","encoding","79","DrinkingFountain.jpg","3",".","37","0","492"
"21","21","encoding","encoding","80","SmokeDetector.jpg","3",".","37","0","509"
"21","21","encoding","encoding","81","Lantern_TeaBox.jpg","3",".","37","0","487"
"21","21","encoding","encoding","82","Fortress.jpg","3",".","37","0","539"
"21","21","encoding","encoding","83","Shoes_DutchClogs.jpg","3",".","37","0","461"
"21","21","encoding","encoding","84","Helmet_Construction.jpg","3",".","37","0","418"
"21","21","encoding","encoding","85","Helmet_Soldier.jpg","3",".","37","0","427"
"21","21","encoding","encoding","86","HairDryer.jpg","3",".","37","0","494"
"21","21","encoding","encoding","87","PassionFruit.jpg","1",".","36","0","668"
"21","21","encoding","encoding","88","Ashtray_Empty.jpg","1",".","37","0","492"
"21","21","encoding","encoding","89","Hook_Fish.jpg","1",".","0","0","1000"
"21","21","encoding","encoding","90","CameoPortrait.jpg","3",".","37","0","540"
"21","21","encoding","encoding","91","DogTreat.jpg","3",".","37","0","733"
"21","21","encoding","encoding","92","Keg.jpg","3",".","37","0","447"
"21","21","encoding","encoding","93","IceCream_Chocolate.jpg","3",".","37","0","523"
"21","21","encoding","encoding","94","Mop.jpg","3",".","37","0","536"
"21","21","encoding","encoding","95","Teabag.jpg","1",".","37","0","669"
"21","21","encoding","encoding","96","Toy_RockingHorseBlack.jpg","3",".","37","0","559"
"21","21","encoding","encoding","97","Box_Floral.jpg","1",".","37","0","540"
"21","21","encoding","encoding","98","Flamingo_Cartoon.jpg","3",".","37","0","651"
"21","21","encoding","encoding","99","DentistOverheadLight.jpg","3",".","37","0","568"
"21","21","encoding","encoding","100","AmpMeter.jpg","1",".","37","0","463"
"21","21","encoding","encoding","101","Toys_Lego.jpg","3",".","37","0","448"
"21","21","encoding","encoding","102","WashRack.jpg","3",".","37","0","470"
"21","21","encoding","encoding","103","SmokeDetector.jpg","3",".","37","0","419"
"21","21","encoding","encoding","104","ShoulderPads.jpg","3",".","37","0","413"
"21","21","encoding","encoding","105","MonaLisa.jpg","3",".","37","0","437"
"21","21","encoding","encoding","106","Cassette_Audio.jpg","1",".","37","0","439"
"21","21","encoding","encoding","107","Mango.jpg","3",".","36","0","394"
"21","21","encoding","encoding","108","Sushi.jpg","3",".","36","0","520"
"21","21","encoding","encoding","109","Fish_Rockbass.jpg","3",".","36","0","684"
"21","21","encoding","encoding","110","Bowl_Chinese.jpg","1",".","37","0","576"
"21","21","encoding","encoding","111","Lollipop_Grape.jpg","3",".","37","0","479"
"21","21","encoding","encoding","112","NailPolish.jpg","1",".","37","0","547"
"21","21","encoding","encoding","113","GPS.jpg","1",".","37","0","541"
"21","21","encoding","encoding","114","WashRack.jpg","3",".","37","0","414"
"21","21","encoding","encoding","115","Helmet_Soldier.jpg","3",".","37","0","431"
"21","21","encoding","encoding","116","Flute_Wooden.jpg","3",".","37","0","608"
"21","21","encoding","encoding","117","BusStop.jpg","3",".","37","0","490"
"21","21","encoding","encoding","118","ButterDish.jpg","3",".","37","0","512"
"21","21","encoding","encoding","119","Bellows.jpg","1",".","37","0","541"
"21","21","encoding","encoding","120","CameoPortrait.jpg","3",".","37","0","472"
"21","21","encoding","encoding","121","BusStop.jpg","3",".","37","0","468"
"21","21","encoding","encoding","122","Almond.jpg","3",".","36","0","550"
"21","21","encoding","encoding","123","Toys_Lego.jpg","3",".","37","0","387"
"21","21","encoding","encoding","124","Trumpet.jpg","1",".","37","0","719"
"21","21","encoding","encoding","125","BicycleBrake.jpg","3",".","37","0","497"
"21","21","encoding","encoding","126","Table_Poker.jpg","3",".","37","0","494"
"21","21","encoding","encoding","127","Glove_Rubber.jpg","1",".","37","0","631"
"21","21","encoding","encoding","128","Toy_BlocksPlastic Colourful.jpg","3",".","37","0","456"
"21","21","encoding","encoding","129","Desk_School.jpg","1",".","37","0","527"
"21","21","encoding","encoding","130","fries.jpg","3",".","37","0","573"
"21","21","encoding","encoding","131","TinChristmas.jpg","3",".","37","0","496"
"21","21","encoding","encoding","133","DoorKnob.jpg","1",".","37","0","528"
"21","21","encoding","encoding","134","Tripod.jpg","3",".","37","0","402"
"21","21","encoding","encoding","135","Chair_MedicalToilet.jpg","3",".","37","0","406"
"21","21","encoding","encoding","136","Spoons_MeasuringDetached.jpg","3",".","37","0","442"
"21","21","encoding","encoding","137","Toy_Shapesorter.jpg","3",".","37","0","628"
"21","21","encoding","encoding","138","Golf_Bag.jpg","3",".","37","0","521"
"21","21","encoding","encoding","139","Colander.jpg","3",".","37","0","338"
"21","21","encoding","encoding","140","Car_Sedan.jpg","1",".","37","0","393"
"21","21","encoding","encoding","141","Exercise_Stretch.jpg","3",".","37","0","501"
"21","21","encoding","encoding","142","Shoes_DutchClogs.jpg","3",".","37","0","455"
"21","21","encoding","encoding","143","BicycleBrake.jpg","3",".","37","0","418"
"21","21","encoding","encoding","144","Toy_Shapesorter.jpg","3",".","37","0","447"
"21","21","encoding","encoding","145","Fruit_Cactus.jpg","3",".","36","0","514"
"21","21","encoding","encoding","146","IceCrusher.jpg","1",".","37","0","429"
"21","21","encoding","encoding","147","Chest.jpg","3",".","37","0","496"
"21","21","encoding","encoding","148","FlashlightHeadBand.jpg","3",".","37","0","489"
"21","21","encoding","encoding","149","Fish_Rockbass.jpg","3",".","36","0","526"
"21","21","encoding","encoding","150","Phone_Wireless.jpg","1",".","37","0","548"
"21","21","encoding","encoding","151","DentistOverheadLight.jpg","3",".","37","0","424"
"21","21","encoding","encoding","152","Sushi.jpg","3",".","37","0","778"
"21","21","encoding","encoding","153","Notebook.jpg","3",".","37","0","430"
"21","21","encoding","encoding","154","Steeple.jpg","1",".","37","0","435"
"21","21","encoding","encoding","155","Hammer_Reflex.jpg","3",".","37","0","536"
"21","21","encoding","encoding","156","MonkeyPuppet.jpg","1",".","37","0","474"
"21","21","encoding","encoding","157","BicycleHandleGrip.jpg","3",".","37","0","476"
"21","21","encoding","encoding","158","PotatoMasher_Zigzag.jpg","1",".","37","0","470"
"21","21","encoding","encoding","159","fries.jpg","3",".","37","0","667"
"21","21","encoding","encoding","160","BottleOpener.jpg","3",".","37","0","546"
"21","21","encoding","encoding","161","Mug_Beer.jpg","3",".","37","0","421"
"21","21","encoding","encoding","162","Toy_StackingRing.jpg","1",".","37","0","535"
"21","21","encoding","encoding","163","Lollipop_Grape.jpg","3",".","37","0","471"
"21","21","encoding","encoding","164","Mango.jpg","3",".","36","0","545"
"21","21","encoding","encoding","165","Colander.jpg","3",".","37","0","404"
"21","21","encoding","encoding","166","Lilypad.jpg","1",".","36","0","569"
"21","21","encoding","encoding","167","CandyDispenser.jpg","3",".","37","0","410"
"21","21","encoding","encoding","168","BottleOpener.jpg","3",".","37","0","466"
"21","21","encoding","encoding","169","Flamingo_Cartoon.jpg","3",".","37","0","545"
"21","21","encoding","encoding","170","Candy_Heart.jpg","1",".","0","0","1000"
"21","21","encoding","encoding","171","GasBurner.jpg","3",".","37","0","617"
"21","21","encoding","encoding","172","DogTreat.jpg","3",".","37","0","600"
"21","21","encoding","encoding","173","Sushi.jpg","3",".","37","0","652"
"21","21","encoding","encoding","174","Table_Poker.jpg","3",".","37","0","456"
"21","21","encoding","encoding","175","Cantaloupe.jpg","3",".","36","0","543"
"21","21","encoding","encoding","176","ShoulderPads.jpg","3",".","37","0","402"
"21","21","encoding","encoding","177","Keg.jpg","3",".","37","0","436"
"21","21","encoding","encoding","178","BicyclePedal.jpg","1",".","37","0","458"
"21","21","encoding","encoding","179","Candle_Blue.jpg","3",".","37","0","478"
"21","21","encoding","encoding","180","WindowBlinds.jpg","1",".","37","0","473"
"21","21","encoding","encoding","181","Cake_Wedding.jpg","3",".","37","0","403"
"21","21","encoding","encoding","182","Almond.jpg","3",".","36","0","509"
"21","21","encoding","encoding","183","ButterDish.jpg","3",".","37","0","396"
"21","21","encoding","encoding","184","MouthGuard.jpg","1",".","37","0","384"
"21","21","encoding","encoding","185","Candy_Chocolate.jpg","3",".","37","0","449"
"21","21","encoding","encoding","186","Mitt_Oven.jpg","3",".","37","0","490"
"21","21","encoding","encoding","187","Peppermill.jpg","3",".","37","0","428"
"21","21","encoding","encoding","188","Skates.jpg","1",".","37","0","445"
"21","21","encoding","encoding","189","Mug_Beer.jpg","3",".","37","0","409"
"21","21","encoding","encoding","190","Keg.jpg","3",".","37","0","401"
"21","21","encoding","encoding","191","Hammer_Reflex.jpg","3",".","37","0","418"
"21","21","encoding","encoding","192","Light_Siren.jpg","3",".","37","0","386"
"21","21","encoding","encoding","193","Jar_JellyBeans.jpg","1",".","37","0","431"
"21","21","encoding","encoding","194","WireStripper.jpg","3",".","37","0","407"
"21","21","encoding","encoding","195","Mop.jpg","3",".","37","0","453"
"21","21","encoding","encoding","196","Toy_Witch.jpg","1",".","37","0","454"
"21","21","encoding","encoding","197","TinChristmas.jpg","3",".","37","0","455"
"21","21","encoding","encoding","199","Mop.jpg","3",".","37","0","443"
"21","21","encoding","encoding","200","SculptureMetalFish.jpg","3",".","37","0","481"
"21","21","encoding","encoding","201","Mask_Happy.jpg","3",".","37","0","496"
"21","21","encoding","encoding","202","Mask_Happy.jpg","3",".","37","0","390"
"21","21","encoding","encoding","203","Chair_MedicalToilet.jpg","3",".","37","0","420"
"21","21","encoding","encoding","204","Pitcher.jpg","3",".","37","0","502"
"21","21","encoding","encoding","205","CookieCutter_Bell.jpg","3",".","37","0","340"
"21","21","encoding","encoding","206","Lantern_TeaBox.jpg","3",".","37","0","342"
"21","21","encoding","encoding","207","IceCream_Chocolate.jpg","3",".","37","0","488"
"21","21","encoding","encoding","208","Bottle_Wine.jpg","3",".","37","0","424"
"21","21","encoding","encoding","209","PaintRollTray.jpg","1",".","37","0","668"
"21","21","encoding","encoding","210","Hammer_Reflex.jpg","3",".","37","0","453"
"21","21","encoding","encoding","211","Apple_RedAndGreen.jpg","3",".","36","0","472"
"21","21","encoding","encoding","212","Thermostat_Digital.jpg","3",".","37","0","432"
"21","21","encoding","encoding","213","DoorBell.jpg","3",".","37","0","390"
"21","21","encoding","encoding","214","Drink_Green.jpg","1",".","37","0","458"
"21","21","encoding","encoding","215","Toy_BlocksPlastic Colourful.jpg","3",".","37","0","405"
"21","21","encoding","encoding","216","Balalaika.jpg","1",".","37","0","376"
"21","21","encoding","encoding","217","Thermostat_Digital.jpg","3",".","37","0","344"
"21","21","encoding","encoding","218","HairDryer.jpg","3",".","37","0","349"
"21","21","encoding","encoding","219","Blanket.jpg","3",".","37","0","391"
"21","21","encoding","encoding","220","Cherry.jpg","1",".","36","0","512"
"21","21","encoding","encoding","221","Oyster.jpg","1",".","36","0","716"
"21","21","encoding","encoding","222","Notebook.jpg","3",".","37","0","387"
"21","21","encoding","encoding","223","WireStripper.jpg","3",".","37","0","441"
"21","21","encoding","encoding","224","Trophy.jpg","1",".","37","0","358"
"21","21","encoding","encoding","225","Guitar_Acoustic.jpg","3",".","37","0","338"
"21","21","encoding","encoding","226","Toy_Shapesorter.jpg","3",".","37","0","366"
"21","21","encoding","encoding","227","Peppermill.jpg","3",".","37","0","358"
"21","21","encoding","encoding","228","Generator.jpg","1",".","37","0","414"
"21","21","encoding","encoding","229","Cake_Wedding.jpg","3",".","37","0","443"
"21","21","encoding","encoding","230","Guitar_Acoustic.jpg","3",".","37","0","345"
"21","21","encoding","encoding","231","Lock_Combination.jpg","3",".","37","0","436"
"21","21","encoding","encoding","232","PuppetTheatre_WhiteGold.jpg","1",".","37","0","378"
"21","21","encoding","encoding","233","MonaLisa.jpg","3",".","37","0","444"
"21","21","encoding","encoding","234","Hourglass.jpg","1",".","37","0","382"
"21","21","encoding","encoding","235","Box_Jewellery.jpg","3",".","37","0","405"
"21","21","encoding","encoding","236","Cantaloupe.jpg","3",".","36","0","427"
"21","21","encoding","encoding","237","Candle_Blue.jpg","3",".","37","0","391"
"21","21","encoding","encoding","238","Lantern_TeaBox.jpg","3",".","37","0","335"
"21","21","encoding","encoding","239","Peppermill.jpg","3",".","37","0","311"
"21","21","encoding","encoding","240","WashRack.jpg","3",".","37","0","268"
"21","21","encoding","encoding","241","BottleOpener.jpg","3",".","37","0","480"
"21","21","encoding","encoding","242","Wheelbarrow_Green.jpg","3",".","37","0","485"
"21","21","encoding","encoding","243","FlashlightHeadBand.jpg","3",".","37","0","375"
"21","21","encoding","encoding","244","DoorBell.jpg","3",".","37","0","374"
"21","21","encoding","encoding","245","Nyala.jpg","1",".","37","0","395"
"21","21","encoding","encoding","246","Almond.jpg","3",".","36","0","480"
"21","21","encoding","encoding","247","Toy_GasPump.jpg","1",".","37","0","363"
"21","21","encoding","encoding","248","Pipe_Drain.jpg","3",".","37","0","377"
"21","21","encoding","encoding","249","Stove_Camping.jpg","1",".","37","0","441"
"21","21","encoding","encoding","250","GasBurner.jpg","3",".","37","0","450"
"21","21","encoding","encoding","251","Saw.jpg","3",".","37","0","372"
"21","21","encoding","encoding","252","FireExtinguisher.jpg","3",".","37","0","387"
"21","21","encoding","encoding","253","Bathtub.jpg","3",".","37","0","472"
"21","21","encoding","encoding","254","BadgeSpecialAgent.jpg","1",".","37","0","484"
"21","21","encoding","encoding","255","Mat_Door.jpg","1",".","37","0","397"
"21","21","encoding","encoding","256","BicycleHandleGrip.jpg","3",".","37","0","419"
"21","21","encoding","encoding","257","Light_Siren.jpg","3",".","37","0","391"
"21","21","encoding","encoding","258","Fruit_Cactus.jpg","3",".","36","0","462"
"21","21","encoding","encoding","259","Goose_Canadian.jpg","1",".","37","0","355"
"21","21","encoding","encoding","260","Leaf_Clover.jpg","3",".","36","0","550"
"21","21","encoding","encoding","261","CameoPortrait.jpg","3",".","37","0","518"
"21","21","encoding","encoding","262","Pants_Jeans.jpg","3",".","37","0","577"
"21","21","encoding","encoding","263","Saw.jpg","3",".","37","0","447"
"21","21","encoding","encoding","265","Spoon_Wooden.jpg","1",".","37","0","626"
"21","21","encoding","encoding","266","Leaf_Clover.jpg","3",".","36","0","382"
"21","21","encoding","encoding","267","IceCream_Chocolate.jpg","3",".","37","0","448"
"21","21","encoding","encoding","268","Wheelbarrow_Green.jpg","3",".","37","0","520"
"21","21","encoding","encoding","269","Chest.jpg","3",".","37","0","403"
"21","21","encoding","encoding","270","Notebook.jpg","3",".","37","0","365"
"21","21","encoding","encoding","271","DryRack_Dishes.jpg","1",".","37","0","436"
"21","21","encoding","encoding","272","Blanket.jpg","3",".","37","0","337"
"21","21","encoding","encoding","273","MixingGlass.jpg","3",".","37","0","399"
"21","21","encoding","encoding","274","Tortilla.jpg","1",".","37","0","401"
"21","21","encoding","encoding","275","SculptureMetalFish.jpg","3",".","37","0","449"
"21","21","encoding","encoding","276","Mango.jpg","3",".","36","0","509"
"21","21","encoding","encoding","277","Guitarcase.jpg","1",".","37","0","404"
"21","21","encoding","encoding","278","TinChristmas.jpg","3",".","37","0","456"
"21","21","encoding","encoding","279","Lock_Combination.jpg","3",".","37","0","397"
"21","21","encoding","encoding","280","Fortress.jpg","3",".","37","0","438"
"21","21","encoding","encoding","281","MixingGlass.jpg","3",".","37","0","396"
"21","21","encoding","encoding","282","Chest.jpg","3",".","37","0","378"
"21","21","encoding","encoding","283","Spoons_MeasuringDetached.jpg","3",".","37","0","506"
"21","21","encoding","encoding","284","Bathtub.jpg","3",".","37","0","405"
"21","21","encoding","encoding","285","Pitcher.jpg","3",".","37","0","411"
"21","21","encoding","encoding","286","Colander.jpg","3",".","37","0","405"
"21","21","encoding","encoding","287","CandyDispenser.jpg","3",".","37","0","437"
"21","21","encoding","encoding","288","Beater_Electric.jpg","1",".","37","0","492"
"21","21","encoding","encoding","289","Pants_Jeans.jpg","3",".","37","0","468"
"21","21","encoding","encoding","290","Lollipop_Grape.jpg","3",".","37","0","574"
"21","21","encoding","encoding","291","PaintBrushAndPallette.jpg","1",".","37","0","571"
"21","21","encoding","encoding","292","Sign_Parking.jpg","1",".","37","0","548"
"21","21","encoding","encoding","293","Spoons_MeasuringDetached.jpg","3",".","37","0","530"
"21","21","encoding","encoding","294","Dress_Party.jpg","3",".","37","0","484"
"21","21","encoding","encoding","295","FlashlightHeadBand.jpg","3",".","37","0","485"
"21","21","encoding","encoding","296","Dress_Party.jpg","3",".","37","0","452"
"21","21","encoding","encoding","297","Tripod.jpg","3",".","37","0","494"
"21","21","encoding","encoding","298","Helmet_Construction.jpg","3",".","37","0","450"
"21","21","encoding","encoding","299","Chair_MedicalToilet.jpg","3",".","37","0","421"
"21","21","encoding","encoding","300","TartStrawberry.jpg","1",".","36","0","505"
"21","21","encoding","encoding","301","DrinkingFountain.jpg","3",".","37","0","422"
"21","21","encoding","encoding","302","Wheelbarrow_Green.jpg","3",".","37","0","363"
"21","21","encoding","encoding","303","Cantaloupe.jpg","3",".","36","0","524"
"21","21","encoding","encoding","304","Bathtub.jpg","3",".","37","0","380"
"21","21","encoding","encoding","305","TeethMould.jpg","1",".","37","0","593"
"21","21","encoding","encoding","306","Autocreeper.jpg","3",".","37","0","405"
"21","21","encoding","encoding","307","HairDryer.jpg","3",".","37","0","372"
"21","21","encoding","encoding","308","CookieCutter_Bell.jpg","3",".","37","0","381"
"21","21","encoding","encoding","309","fries.jpg","3",".","37","0","505"
"21","21","encoding","encoding","310","Apple_RedAndGreen.jpg","3",".","36","0","507"
"21","21","encoding","encoding","311","FireExtinguisher.jpg","3",".","37","0","339"
"21","21","encoding","encoding","312","SculptureMetalFish.jpg","3",".","37","0","542"
"21","21","encoding","encoding","313","Box_Jewellery.jpg","3",".","37","0","414"
"21","21","encoding","encoding","314","Cake_Wedding.jpg","3",".","37","0","357"
"21","21","encoding","encoding","315","Mask_Happy.jpg","3",".","37","0","430"
"21","21","encoding","encoding","316","Pipe_Drain.jpg","3",".","37","0","473"
"21","21","encoding","encoding","317","FireExtinguisher.jpg","3",".","37","0","394"
"21","21","encoding","encoding","318","ButterDish.jpg","3",".","37","0","413"
"21","21","encoding","encoding","319","Toy_RockingHorseBlack.jpg","3",".","37","0","412"
"21","21","encoding","encoding","320","GasBurner.jpg","3",".","37","0","301"
"21","21","encoding","encoding","321","StringBean.jpg","1",".","36","0","642"
"21","21","encoding","encoding","322","Pants_Jeans.jpg","3",".","37","0","468"
"21","21","encoding","encoding","323","RemoteControl.jpg","1",".","37","0","445"
"21","21","encoding","encoding","324","Candle_Blue.jpg","3",".","37","0","377"
"21","21","encoding","encoding","325","Hippopotamus.jpg","",".","36","0","630"
"21","21","retrieval","new_object","1","Bindings_Snowboard.jpg",".",".","36","0","1085"
"21","21","retrieval","new_object","2","DivingBoard.jpg",".",".","37","1","1307"
"21","21","retrieval","old_object","3","Car_Sedan.jpg",".","1","37","0","685"
"21","21","retrieval","old_object","4","Lock_Combination.jpg",".","3","36","1","647"
"21","21","retrieval","old_object","5","Bottle_Blue.jpg",".","1","36","1","915"
"21","21","retrieval","old_object","6","Bowl_Chinese.jpg",".","1","37","0","551"
"21","21","retrieval","new_object","7","Thermos_MetalSleek.jpg",".",".","37","1","968"
"21","21","retrieval","old_object","8","Trumpet.jpg",".","1","36","1","697"
"21","21","retrieval","old_object","9","Hook_Fish.jpg",".","1","36","1","823"
"21","21","retrieval","old_object","10","Toys_Lego.jpg",".","3","36","1","701"
"21","21","retrieval","old_object","11","Keg.jpg",".","3","36","1","713"
"21","21","retrieval","new_object","12","CrepeMaker.jpg",".",".","37","1","629"
"21","21","retrieval","new_object","13","Toolbox_Old.jpg",".",".","37","1","718"
"21","21","retrieval","old_object","14","Flamingo_Cartoon.jpg",".","3","36","1","790"
"21","21","retrieval","old_object","15","BadgeSpecialAgent.jpg",".","1","36","1","789"
"21","21","retrieval","new_object","16","Currants.jpg",".",".","37","1","654"
"21","21","retrieval","old_object","17","Hourglass.jpg",".","1","37","0","969"
"21","21","retrieval","old_object","18","Knee.jpg",".","1","36","1","822"
"21","21","retrieval","old_object","19","Spoon_Wooden.jpg",".","1","36","1","724"
"21","21","retrieval","old_object","20","Bullet.jpg",".","1","36","1","862"
"21","21","retrieval","old_object","21","Lantern_TeaBox.jpg",".","3","36","1","674"
"21","21","retrieval","old_object","22","Apple_RedAndGreen.jpg",".","3","36","1","631"
"21","21","retrieval","new_object","23","Hawk.jpg",".",".","37","1","687"
"21","21","retrieval","new_object","24","Dart.jpg",".",".","37","1","600"
"21","21","retrieval","old_object","25","Guitarcase.jpg",".","1","37","0","727"
"21","21","retrieval","new_object","26","Pickaxe.jpg",".",".","37","1","779"
"21","21","retrieval","new_object","27","Iron_Antique.jpg",".",".","37","1","662"
"21","21","retrieval","old_object","28","Mug_Beer.jpg",".","3","36","1","650"
"21","21","retrieval","old_object","29","Box_Jewellery.jpg",".","3","36","1","681"
"21","21","retrieval","new_object","30","Arch.jpg",".",".","37","1","673"
"21","21","retrieval","old_object","31","Autocreeper.jpg",".","3","36","1","712"
"21","21","retrieval","new_object","32","Hazelnut.jpg",".",".","37","1","872"
"21","21","retrieval","old_object","33","RemoteControl.jpg",".","1","36","1","776"
"21","21","retrieval","new_object","34","LampPost_OneBulb.jpg",".",".","37","1","723"
"21","21","retrieval","new_object","35","OnionRed.jpg",".",".","37","1","708"
"21","21","retrieval","new_object","36","ToothPaste.jpg",".",".","37","1","572"
"21","21","retrieval","old_object","37","Skates.jpg",".","1","36","1","762"
"21","21","retrieval","old_object","38","TartStrawberry.jpg",".","1","36","1","570"
"21","21","retrieval","new_object","39","Boardgame_Checkers.jpg",".",".","37","1","575"
"21","21","retrieval","new_object","40","Helmet_Knight.jpg",".",".","37","1","831"
"21","21","retrieval","new_object","41","Glass_Martini.jpg",".",".","37","1","590"
"21","21","retrieval","new_object","42","Exercise_Machine.jpg",".",".","37","1","490"
"21","21","retrieval","new_object","43","RibbonSpool.jpg",".",".","37","1","527"
"21","21","retrieval","old_object","44","Spoons_MeasuringDetached.jpg",".","3","36","1","795"
"21","21","retrieval","old_object","45","JukeboxAntique.jpg",".","1","36","1","765"
"21","21","retrieval","new_object","46","Case_DVD.jpg",".",".","37","1","542"
"21","21","retrieval","new_object","47","Beaker.jpg",".",".","37","1","488"
"21","21","retrieval","new_object","48","ChessPiece_Knight.jpg",".",".","37","1","560"
"21","21","retrieval","new_object","49","Caterpillar.jpg",".",".","37","1","798"
"21","21","retrieval","old_object","50","DryRack_Dishes.jpg",".","1","36","1","843"
"21","21","retrieval","new_object","51","Sock_Ankle.jpg",".",".","37","1","586"
"21","21","retrieval","new_object","52","FlipFlop_PairBlue.jpg",".",".","37","1","585"
"21","21","retrieval","new_object","53","CuttingBoard.jpg",".",".","37","1","556"
"21","21","retrieval","old_object","54","Chair_BeanBag.jpg",".","1","36","1","768"
"21","21","retrieval","old_object","55","Tickets_Blank.jpg",".","1","36","1","694"
"21","21","retrieval","old_object","56","Table_Poker.jpg",".","3","36","1","547"
"21","21","retrieval","new_object","57","BoogieBoard.jpg",".",".","37","1","595"
"21","21","retrieval","new_object","58","TurkeyDinner.jpg",".",".","37","1","645"
"21","21","retrieval","new_object","59","Frame_Oval.jpg",".",".","37","1","454"
"21","21","retrieval","new_object","60","PaperStack.jpg",".",".","37","1","471"
"21","21","retrieval","new_object","61","Fridge.jpg",".",".","37","1","489"
"21","21","retrieval","old_object","62","DoorKnob.jpg",".","1","37","0","904"
"21","21","retrieval","new_object","63","Jug_Milk.jpg",".",".","37","1","735"
"21","21","retrieval","old_object","64","PotatoMasher_Zigzag.jpg",".","1","36","1","655"
"21","21","retrieval","new_object","65","ReindeerHeadband.jpg",".",".","37","1","567"
"21","21","retrieval","old_object","67","DogTreat.jpg",".","3","36","1","894"
"21","21","retrieval","new_object","68","Brace_Back.jpg",".",".","37","1","639"
"21","21","retrieval","new_object","69","Syrup_Maple.jpg",".",".","37","1","702"
"21","21","retrieval","new_object","70","Bandage_Wrap.jpg",".",".","37","1","562"
"21","21","retrieval","new_object","71","Pig.jpg",".",".","37","1","625"
"21","21","retrieval","old_object","72","MonkeyPuppet.jpg",".","1","36","1","805"
"21","21","retrieval","new_object","73","Pen_Ballpoint.jpg",".",".","37","1","716"
"21","21","retrieval","old_object","74","HairDryer.jpg",".","3","36","1","729"
"21","21","retrieval","new_object","75","Seashell_AlternateTellin.jpg",".",".","37","1","629"
"21","21","retrieval","new_object","76","Crib_Basket.jpg",".",".","37","1","801"
"21","21","retrieval","new_object","77","Hoverboard.jpg",".",".","37","1","825"
"21","21","retrieval","old_object","78","TeethMould.jpg",".","1","36","1","889"
"21","21","retrieval","old_object","79","Helmet_Construction.jpg",".","3","36","1","731"
"21","21","retrieval","new_object","80","Box_Present.jpg",".",".","37","1","724"
"21","21","retrieval","new_object","81","Tribunal_Wooden.jpg",".",".","37","1","609"
"21","21","retrieval","old_object","82","Ashtray_Empty.jpg",".","1","36","1","1346"
"21","21","retrieval","new_object","83","Toy_SeeSaw.jpg",".",".","37","1","663"
"21","21","retrieval","old_object","84","Shoes_DutchClogs.jpg",".","3","36","1","724"
"21","21","retrieval","old_object","85","Leaf_Clover.jpg",".","3","36","1","499"
"21","21","retrieval","old_object","86","Flute_Wooden.jpg",".","3","36","1","580"
"21","21","retrieval","new_object","87","Lighter_Yellow.jpg",".",".","37","1","573"
"21","21","retrieval","old_object","88","IceCream_Chocolate.jpg",".","3","36","1","718"
"21","21","retrieval","old_object","89","Tortilla.jpg",".","1","36","1","662"
"21","21","retrieval","old_object","90","DoorBell.jpg",".","3","36","1","680"
"21","21","retrieval","old_object","91","Golf_Bag.jpg",".","3","36","1","643"
"21","21","retrieval","new_object","92","Boxcutter.jpg",".",".","37","1","717"
"21","21","retrieval","old_object","93","CameoPortrait.jpg",".","3","36","1","630"
"21","21","retrieval","new_object","94","Pipe.jpg",".",".","37","1","612"
"21","21","retrieval","old_object","95","Glove_Rubber.jpg",".","1","36","1","751"
"21","21","retrieval","old_object","96","Beater_Electric.jpg",".","1","36","1","582"
"21","21","retrieval","old_object","97","Sign_Wetfloor.jpg",".","1","36","1","627"
"21","21","retrieval","new_object","98","CartonEggs.jpg",".",".","37","1","530"
"21","21","retrieval","new_object","99","Statue_SouthAmerican.jpg",".",".","37","1","566"
"21","21","retrieval","old_object","100","Pitcher.jpg",".","3","36","1","750"
"21","21","retrieval","new_object","101","CookieCutter_Tree.jpg",".",".","37","1","1010"
"21","21","retrieval","new_object","102","Bell_Hand.jpg",".",".","37","1","675"
"21","21","retrieval","old_object","103","Cassette_Audio.jpg",".","1","37","0","569"
"21","21","retrieval","old_object","104","MouthGuard.jpg",".","1","36","1","713"
"21","21","retrieval","old_object","105","Candy_Chocolate.jpg",".","3","36","1","641"
"21","21","retrieval","old_object","106","WireStripper.jpg",".","3","36","1","622"
"21","21","retrieval","new_object","107","Jar_Cotton.jpg",".",".","37","1","586"
"21","21","retrieval","new_object","108","Shoe_Pink.jpg",".",".","37","1","782"
"21","21","retrieval","old_object","109","Box_Floral.jpg",".","1","36","1","773"
"21","21","retrieval","old_object","110","Bathtub.jpg",".","3","36","1","728"
"21","21","retrieval","old_object","111","Thermostat_Digital.jpg",".","3","36","1","657"
"21","21","retrieval","old_object","112","Cup_Styrofoam.jpg",".","1","36","1","643"
"21","21","retrieval","new_object","113","SewingMachine.jpg",".",".","37","1","550"
"21","21","retrieval","old_object","114","Mop.jpg",".","3","36","1","724"
"21","21","retrieval","new_object","115","Brooch_Fish.jpg",".",".","37","1","701"
"21","21","retrieval","new_object","116","Hat_Baseball.jpg",".",".","37","1","827"
"21","21","retrieval","old_object","117","Mattress.jpg",".","1","36","1","858"
"21","21","retrieval","old_object","118","Paratrooper.jpg",".","1","36","1","610"
"21","21","retrieval","new_object","119","Playground.jpg",".",".","37","1","567"
"21","21","retrieval","old_object","120","Fortress.jpg",".","3","36","1","719"
"21","21","retrieval","new_object","121","Crutches.jpg",".",".","37","1","766"
"21","21","retrieval","old_object","122","Shampoo.jpg",".","1","37","0","701"
"21","21","retrieval","old_object","123","Mango.jpg",".","3","36","1","552"
"21","21","retrieval","old_object","124","Peppermill.jpg",".","3","36","1","687"
"21","21","retrieval","old_object","125","Candle_Blue.jpg",".","3","36","1","581"
"21","21","retrieval","new_object","126","ShearsGarden.jpg",".",".","37","1","627"
"21","21","retrieval","old_object","127","Goose_Canadian.jpg",".","1","36","1","748"
"21","21","retrieval","new_object","128","Flower_Orchid.jpg",".",".","37","1","610"
"21","21","retrieval","old_object","129","Toy_StackingRing.jpg",".","1","36","1","768"
"21","21","retrieval","new_object","130","Clock_Radio.jpg",".",".","37","1","580"
"21","21","retrieval","old_object","131","fries.jpg",".","3","36","1","763"
"21","21","retrieval","old_object","133","Sign_Parking.jpg",".","1","36","1","784"
"21","21","retrieval","new_object","134","HumanSkeleton.jpg",".",".","37","1","594"
"21","21","retrieval","old_object","135","Toy_BlocksPlastic Colourful.jpg",".","3","36","1","644"
"21","21","retrieval","old_object","136","GasBurner.jpg",".","3","36","1","774"
"21","21","retrieval","new_object","137","Tire_Hollow.jpg",".",".","37","1","622"
"21","21","retrieval","old_object","138","PaintBrushAndPallette.jpg",".","1","36","1","741"
"21","21","retrieval","old_object","139","Bird_Cardinal.jpg",".","1","37","0","998"
"21","21","retrieval","old_object","140","Colander.jpg",".","3","36","1","695"
"21","21","retrieval","new_object","141","Dress_Blue.jpg",".",".","37","1","708"
"21","21","retrieval","new_object","142","Statue_VirginMary.jpg",".",".","37","1","587"
"21","21","retrieval","old_object","143","NintendoWii.jpg",".","1","37","0","906"
"21","21","retrieval","new_object","144","Chinchilla.jpg",".",".","37","1","675"
"21","21","retrieval","new_object","145","Gun_Glue.jpg",".",".","37","1","687"
"21","21","retrieval","new_object","146","KeyHook_Occupied.jpg",".",".","37","1","597"
"21","21","retrieval","new_object","147","Drum_Brazilan.jpg",".",".","37","1","612"
"21","21","retrieval","old_object","148","Sushi.jpg",".","3","36","1","765"
"21","21","retrieval","new_object","149","Waffle.jpg",".",".","37","1","768"
"21","21","retrieval","new_object","150","Icepick.jpg",".",".","37","1","658"
"21","21","retrieval","old_object","151","FlashlightHeadBand.jpg",".","3","36","1","822"
"21","21","retrieval","old_object","152","ButterDish.jpg",".","3","36","1","656"
"21","21","retrieval","new_object","153","BicycleOdometer.jpg",".",".","37","1","816"
"21","21","retrieval","new_object","154","Toy_DollOffice.jpg",".",".","37","1","676"
"21","21","retrieval","old_object","155","Hippopotamus.jpg",".","1","36","1","731"
"21","21","retrieval","new_object","156","Dolphine.jpg",".",".","37","1","669"
"21","21","retrieval","old_object","157","GPS.jpg",".","1","36","1","865"
"21","21","retrieval","old_object","158","Desk_School.jpg",".","1","36","1","758"
"21","21","retrieval","old_object","159","Fuse.jpg",".","1","36","1","805"
"21","21","retrieval","new_object","160","SmokingPipe.jpg",".",".","37","1","800"
"21","21","retrieval","new_object","161","Toy_Lighthouse.jpg",".",".","37","1","490"
"21","21","retrieval","new_object","162","SkiPoles.jpg",".",".","37","1","719"
"21","21","retrieval","old_object","163","Jar_JellyBeans.jpg",".","1","36","1","584"
"21","21","retrieval","new_object","164","Hottub.jpg",".",".","37","1","924"
"21","21","retrieval","new_object","165","Can_OilSpout.jpg",".",".","37","1","552"
"21","21","retrieval","new_object","166","Chipmunk.jpg",".",".","37","1","532"
"21","21","retrieval","new_object","167","Kite_Rainbow.jpg",".",".","37","1","923"
"21","21","retrieval","new_object","168","MobilityScooter.jpg",".",".","37","1","467"
"21","21","retrieval","new_object","169","Cross.jpg",".",".","37","1","466"
"21","21","retrieval","new_object","170","Lamp_TableWhite.jpg",".",".","37","1","552"
"21","21","retrieval","old_object","171","PaintRollTray.jpg",".","1","36","1","862"
"21","21","retrieval","new_object","172","Pot_Cooking.jpg",".",".","37","1","689"
"21","21","retrieval","old_object","173","Saw.jpg",".","3","36","1","596"
"21","21","retrieval","new_object","174","Truck_Dump.jpg",".",".","37","1","502"
"21","21","retrieval","old_object","175","Bellows.jpg",".","1","36","1","916"
"21","21","retrieval","old_object","176","Pants_Jeans.jpg",".","3","36","1","653"
"21","21","retrieval","old_object","177","Blanket.jpg",".","3","36","1","642"
"21","21","retrieval","new_object","178","Bench_Wooden.jpg",".",".","37","1","693"
"21","21","retrieval","new_object","179","Toy_TableSet.jpg",".",".","37","1","822"
"21","21","retrieval","new_object","180","Screw.jpg",".",".","37","1","733"
"21","21","retrieval","old_object","181","Wheelbarrow_Green.jpg",".","3","36","1","682"
"21","21","retrieval","old_object","182","Toy_RockingHorseBlack.jpg",".","3","36","1","632"
"21","21","retrieval","old_object","183","SmokeDetector.jpg",".","3","36","1","653"
"21","21","retrieval","new_object","184","Comb.jpg",".",".","36","0","938"
"21","21","retrieval","new_object","185","Wheel_Steering.jpg",".",".","37","1","677"
"21","21","retrieval","old_object","186","Toy_Shapesorter.jpg",".","3","36","1","695"
"21","21","retrieval","old_object","187","Mask_Happy.jpg",".","3","36","1","673"
"21","21","retrieval","old_object","188","BicycleHandleGrip.jpg",".","3","36","1","711"
"21","21","retrieval","old_object","189","Teabag.jpg",".","1","36","1","809"
"21","21","retrieval","new_object","190","Toolbox_RedOpen.jpg",".",".","37","1","633"
"21","21","retrieval","new_object","191","DrillBit.jpg",".",".","37","1","536"
"21","21","retrieval","new_object","192","Strainer_Tea.jpg",".",".","37","1","626"
"21","21","retrieval","old_object","193","Bottle_Wine.jpg",".","3","36","1","721"
"21","21","retrieval","old_object","194","Speaker_OnStand.jpg",".","1","36","1","880"
"21","21","retrieval","old_object","195","PassionFruit.jpg",".","1","36","1","725"
"21","21","retrieval","new_object","196","Sink_Bathroom.jpg",".",".","37","1","848"
"21","21","retrieval","new_object","197","Boots_KneeHigh.jpg",".",".","37","1","673"
"21","21","retrieval","old_object","199","Cantaloupe.jpg",".","3","36","1","537"
"21","21","retrieval","old_object","200","DrinkingFountain.jpg",".","3","36","1","651"
"21","21","retrieval","old_object","201","Chest.jpg",".","3","36","1","577"
"21","21","retrieval","old_object","202","Chest_Toys.jpg",".","1","36","1","823"
"21","21","retrieval","old_object","203","Candy_Heart.jpg",".","1","36","1","680"
"21","21","retrieval","new_object","204","Glass_Cup.jpg",".",".","37","1","750"
"21","21","retrieval","new_object","205","Fencing_HelmetSwords.jpg",".",".","37","1","584"
"21","21","retrieval","old_object","206","MonaLisa.jpg",".","3","36","1","636"
"21","21","retrieval","old_object","207","Pineapple.jpg",".","1","36","1","473"
"21","21","retrieval","new_object","208","BicycleGear.jpg",".",".","37","1","549"
"21","21","retrieval","new_object","209","Flower_Hibiscus.jpg",".",".","37","1","584"
"21","21","retrieval","old_object","210","Helmet_Soldier.jpg",".","3","36","1","790"
"21","21","retrieval","new_object","211","Sign_TrafficArrow.jpg",".",".","37","1","1200"
"21","21","retrieval","old_object","212","Nyala.jpg",".","1","36","1","1207"
"21","21","retrieval","new_object","213","AnsweringMachine.jpg",".",".","37","1","776"
"21","21","retrieval","new_object","214","Hockey_Equipment.jpg",".",".","37","1","636"
"21","21","retrieval","old_object","215","FireExtinguisher.jpg",".","3","36","1","711"
"21","21","retrieval","new_object","216","Ball_Disco.jpg",".",".","37","1","581"
"21","21","retrieval","old_object","217","Knife_Hunting.jpg",".","1","36","1","947"
"21","21","retrieval","new_object","218","SafetyPin.jpg",".",".","37","1","588"
"21","21","retrieval","new_object","219","Makeup_Foundation.jpg",".",".","36","0","1436"
"21","21","retrieval","old_object","220","BicyclePedal.jpg",".","1","36","1","799"
"21","21","retrieval","old_object","221","Oyster.jpg",".","1","36","1","575"
"21","21","retrieval","old_object","222","Drink_Green.jpg",".","1","36","1","645"
"21","21","retrieval","new_object","223","Outhouse.jpg",".",".","37","1","723"
"21","21","retrieval","new_object","224","Socks_Winter.jpg",".",".","37","1","542"
"21","21","retrieval","new_object","225","Chopsticks.jpg",".",".","37","1","645"
"21","21","retrieval","new_object","226","Tweezers.jpg",".",".","37","1","609"
"21","21","retrieval","new_object","227","Bugle.jpg",".",".","37","1","864"
"21","21","retrieval","old_object","228","Light_Siren.jpg",".","3","36","1","746"
"21","21","retrieval","new_object","229","Cage_Bird.jpg",".",".","37","1","960"
"21","21","retrieval","new_object","230","Toy_PoliceCar.jpg",".",".","37","1","694"
"21","21","retrieval","new_object","231","House_Rural.jpg",".",".","37","1","739"
"21","21","retrieval","new_object","232","Ball_8.jpg",".",".","37","1","1130"
"21","21","retrieval","new_object","233","Hammer.jpg",".",".","37","1","1309"
"21","21","retrieval","new_object","234","Loofa.jpg",".",".","37","1","717"
"21","21","retrieval","old_object","235","Pipe_Drain.jpg",".","3","36","1","1213"
"21","21","retrieval","new_object","236","Baster.jpg",".",".","37","1","820"
"21","21","retrieval","old_object","237","Phone_Wireless.jpg",".","1","36","1","1097"
"21","21","retrieval","new_object","238","Bomb.jpg",".",".","37","1","665"
"21","21","retrieval","old_object","239","NailPolish.jpg",".","1","36","1","1628"
"21","21","retrieval","new_object","240","Tape_Washi.jpg",".",".","37","1","638"
"21","21","retrieval","old_object","241","NeedlesAcupuncture.jpg",".","1","36","1","793"
"21","21","retrieval","old_object","242","Cherry.jpg",".","1","36","1","523"
"21","21","retrieval","new_object","243","CoffeeGrinder.jpg",".",".","37","1","981"
"21","21","retrieval","new_object","244","PropellerFan.jpg",".",".","37","1","601"
"21","21","retrieval","old_object","245","StringBean.jpg",".","1","36","1","611"
"21","21","retrieval","old_object","246","SculptureMetalFish.jpg",".","3","36","1","614"
"21","21","retrieval","old_object","247","Chair_MedicalToilet.jpg",".","3","36","1","546"
"21","21","retrieval","new_object","248","PedestalGreek.jpg",".",".","37","1","608"
"21","21","retrieval","new_object","249","Shield_Antique.jpg",".",".","37","1","643"
"21","21","retrieval","old_object","250","CandyDispenser.jpg",".","3","36","1","722"
"21","21","retrieval","new_object","251","Thermostat.jpg",".",".","37","1","714"
"21","21","retrieval","old_object","252","Almond.jpg",".","3","36","1","545"
"21","21","retrieval","new_object","253","TireRims.jpg",".",".","37","1","635"
"21","21","retrieval","new_object","254","Cabinet_Office.jpg",".",".","37","1","875"
"21","21","retrieval","old_object","255","DentistOverheadLight.jpg",".","3","36","1","976"
"21","21","retrieval","old_object","256","CookieCutter_Bell.jpg",".","3","36","1","582"
"21","21","retrieval","new_object","257","Bottle_BubbleBlower.jpg",".",".","37","1","601"
"21","21","retrieval","new_object","258","Bottle_Specimen.jpg",".",".","37","1","506"
"21","21","retrieval","new_object","259","ElasticBand.jpg",".",".","37","1","601"
"21","21","retrieval","new_object","260","Switch_LightWhite.jpg",".",".","37","1","758"
"21","21","retrieval","old_object","261","AmpMeter.jpg",".","1","37","0","947"
"21","21","retrieval","old_object","262","Exercise_Stretch.jpg",".","3","36","1","696"
"21","21","retrieval","new_object","263","ShoppingCart.jpg",".",".","37","1","554"
"21","21","retrieval","old_object","265","Toy_GasPump.jpg",".","1","36","1","838"
"21","21","retrieval","old_object","266","Hammer_Reflex.jpg",".","3","36","1","706"
"21","21","retrieval","new_object","267","Toy_BearBlackPlastic.jpg",".",".","37","1","637"
"21","21","retrieval","old_object","268","Lilypad.jpg",".","1","36","1","568"
"21","21","retrieval","old_object","269","PuppetTheatre_WhiteGold.jpg",".","1","36","1","765"
"21","21","retrieval","new_object","270","Box_FirstAidOpen.jpg",".",".","37","1","893"
"21","21","retrieval","old_object","271","Generator.jpg",".","1","36","1","769"
"21","21","retrieval","new_object","272","Telescope.jpg",".",".","37","1","624"
"21","21","retrieval","new_object","273","Gorilla.jpg",".",".","37","1","719"
"21","21","retrieval","old_object","274","ShoulderPads.jpg",".","3","36","1","676"
"21","21","retrieval","old_object","275","Trophy.jpg",".","1","36","1","642"
"21","21","retrieval","old_object","276","WashRack.jpg",".","3","36","1","590"
"21","21","retrieval","old_object","277","Steeple.jpg",".","1","36","1","731"
"21","21","retrieval","old_object","278","TinChristmas.jpg",".","3","36","1","641"
"21","21","retrieval","new_object","279","SundaeBanana.jpg",".",".","37","1","768"
"21","21","retrieval","new_object","280","Pasta_Spaghetti.jpg",".",".","37","1","743"
"21","21","retrieval","new_object","281","SaxophoneSoprano.jpg",".",".","37","1","677"
"21","21","retrieval","new_object","282","Decoration_WallOrnament.jpg",".",".","37","1","553"
"21","21","retrieval","old_object","283","LeatherPuncherTool.jpg",".","1","37","0","801"
"21","21","retrieval","old_object","284","Fish_Rockbass.jpg",".","3","36","1","629"
"21","21","retrieval","old_object","285","Stove_Camping.jpg",".","1","36","1","680"
"21","21","retrieval","old_object","286","Lollipop_Grape.jpg",".","3","36","1","589"
"21","21","retrieval","new_object","287","Cannister_Gas.jpg",".",".","36","0","1558"
"21","21","retrieval","new_object","288","Knife_Butter.jpg",".",".","37","1","955"
"21","21","retrieval","old_object","289","MixingGlass.jpg",".","3","36","1","635"
"21","21","retrieval","old_object","290","WindowBlinds.jpg",".","1","36","1","718"
"21","21","retrieval","new_object","291","PanCooking.jpg",".",".","37","1","606"
"21","21","retrieval","old_object","292","BusStop.jpg",".","3","36","1","716"
"21","21","retrieval","new_object","293","Pajamas.jpg",".",".","37","1","567"
"21","21","retrieval","new_object","294","Paddle_Beach.jpg",".",".","37","1","673"
"21","21","retrieval","new_object","295","Cabinet_Display.jpg",".",".","37","1","650"
"21","21","retrieval","new_object","296","BloodpPresureCuff.jpg",".",".","37","1","728"
"21","21","retrieval","new_object","297","Tofu.jpg",".",".","37","1","1085"
"21","21","retrieval","old_object","298","Tripod.jpg",".","3","36","1","887"
"21","21","retrieval","old_object","299","Clip_Paper.jpg",".","1","36","1","708"
"21","21","retrieval","new_object","300","Radio_Vintage.jpg",".",".","37","1","546"
"21","21","retrieval","old_object","301","BicycleBrake.jpg",".","3","36","1","703"
"21","21","retrieval","old_object","302","Dress_Party.jpg",".","3","36","1","611"
"21","21","retrieval","old_object","303","Fruit_Cactus.jpg",".","3","36","1","477"
"21","21","retrieval","new_object","304","Microphone.jpg",".",".","37","1","694"
"21","21","retrieval","old_object","305","Balalaika.jpg",".","1","36","1","693"
"21","21","retrieval","old_object","306","Cake_Wedding.jpg",".","3","36","1","668"
"21","21","retrieval","new_object","307","PaintRoller.jpg",".",".","37","1","723"
"21","21","retrieval","new_object","308","ContactLens.jpg",".",".","37","1","638"
"21","21","retrieval","old_object","309","Toy_Witch.jpg",".","1","36","1","669"
"21","21","retrieval","old_object","310","Mat_Door.jpg",".","1","36","1","692"
"21","21","retrieval","old_object","311","Notebook.jpg",".","3","36","1","621"
"21","21","retrieval","old_object","312","Megaphone.jpg",".","1","37","0","633"
"21","21","retrieval","old_object","313","Guitar_Acoustic.jpg",".","3","36","1","663"
"21","21","retrieval","old_object","314","Mitt_Oven.jpg",".","3","36","1","566"
"21","21","retrieval","old_object","315","IceCrusher.jpg",".","1","36","1","737"
"21","21","retrieval","old_object","316","Toy_Moose.jpg",".","1","36","1","1043"
"21","21","retrieval","old_object","317","BottleOpener.jpg",".","3","36","1","731"
"21","21","retrieval","new_object","318","Carbiner_Ascender.jpg",".",".","37","1","695"
"21","21","retrieval","new_object","319","GranolaBar.jpg",".",".","37","1","770"
"21","21","retrieval","new_object","320","BicycleChain.jpg",".",".","37","1","703"
"21","21","retrieval","new_object","321","Spatula_1.jpg",".",".","37","1","739"
"21","21","retrieval","new_object","322","Broom_Long.jpg",".",".","37","1","664"
"21","21","retrieval","new_object","323","SkullDeer.jpg",".",".","37","1","644"
"21","21","retrieval","new_object","324","KitchenTools.jpg",".",".","37","1","736"
"21","21","retrieval","new_object","325","Telescope.jpg",".",".","36","0","748"
"21","21","demographics_block","gender","1",".",".",".","female","1","21693"
"21","21","demographics_block","age","1",".",".",".","46","1","21693"
"21","21","demographics_block","education","1",".",".",".","18","1","21693"
"21","21","demographics_block","left_right_handed","2",".",".",".","Right","1","6643"
"21","21","demographics_block","raceoption1","2",".",".",".","0","1","6643"
"21","21","demographics_block","raceoption2","2",".",".",".","","1","6643"
"21","21","demographics_block","raceoption3","2",".",".",".","2","1","6643"
"21","21","demographics_block","raceoption4","2",".",".",".","","1","6643"
"21","21","demographics_block","raceoption5","2",".",".",".","","1","6643"
"21","21","demographics_block","raceoption6","2",".",".",".","","1","6643"
"21","21","demographics_block","raceoption7","2",".",".",".","","1","6643"
"21","21","demographics_block","raceoption8","2",".",".",".","","1","6643"
"21","21","demographics_block","raceoption9","2",".",".",".","","1","6643"
"21","21","demographics_block","raceother","2",".",".",".","","1","6643"
"21","21","demographics_block","raceother","2",".",".",".","","1","6643"
"21","21","demographics_block","english_language","2",".",".",".","Yes","1","6643"
"21","21","demographics_block","other","2",".",".",".","","1","6643"
"21","21","demographics_block","eyesight","3",".",".",".","Yes","1","6327"
"21","21","demographics_block","colorblind","3",".",".",".","No","1","6327"
