"group","subject","blockcode","trialcode","trialnum","stimulus","encoding_condition","old_object_condition","response","correct","latency"
"19","19","encoding","encoding","1","A73.jpg","1",".","0","0","1000"
"19","19","encoding","encoding","2","B55.jpg","3",".","37","0","152"
"19","19","encoding","encoding","3","A54.jpg","1",".","36","0","52"
"19","19","encoding","encoding","4","B6.jpg","3",".","37","0","285"
"19","19","encoding","encoding","5","B47.jpg","3",".","36","0","872"
"19","19","encoding","encoding","6","A53.jpg","1",".","37","0","120"
"19","19","encoding","encoding","7","B20.jpg","3",".","37","0","16"
"19","19","encoding","encoding","8","A57.jpg","1",".","37","0","162"
"19","19","encoding","encoding","9","B76.jpg","3",".","37","0","135"
"19","19","encoding","encoding","10","A62.jpg","1",".","37","0","106"
"19","19","encoding","encoding","11","B36.jpg","3",".","37","0","65"
"19","19","encoding","encoding","12","B49.jpg","3",".","37","0","83"
"19","19","encoding","encoding","13","B44.jpg","3",".","37","0","86"
"19","19","encoding","encoding","14","A50.jpg","1",".","37","0","345"
"19","19","encoding","encoding","15","A71.jpg","1",".","37","0","360"
"19","19","encoding","encoding","16","B25.jpg","3",".","37","0","387"
"19","19","encoding","encoding","17","A42.jpg","1",".","37","0","368"
"19","19","encoding","encoding","18","B47.jpg","3",".","37","0","31"
"19","19","encoding","encoding","19","A5.jpg","1",".","37","0","74"
"19","19","encoding","encoding","20","B71.jpg","3",".","36","0","3"
"19","19","encoding","encoding","21","B10.jpg","3",".","37","0","304"
"19","19","encoding","encoding","22","B28.jpg","3",".","37","0","296"
"19","19","encoding","encoding","23","B19.jpg","3",".","37","0","159"
"19","19","encoding","encoding","24","B34.jpg","3",".","37","0","41"
"19","19","encoding","encoding","25","A44.jpg","1",".","37","0","325"
"19","19","encoding","encoding","26","B42.jpg","3",".","37","0","233"
"19","19","encoding","encoding","27","B24.jpg","3",".","37","0","111"
"19","19","encoding","encoding","28","B31.jpg","3",".","37","0","31"
"19","19","encoding","encoding","29","B78.jpg","3",".","37","0","372"
"19","19","encoding","encoding","30","B49.jpg","3",".","37","0","374"
"19","19","encoding","encoding","31","A13.jpg","1",".","37","0","381"
"19","19","encoding","encoding","32","B42.jpg","3",".","37","0","320"
"19","19","encoding","encoding","33","B31.jpg","3",".","37","0","348"
"19","19","encoding","encoding","34","B73.jpg","3",".","37","0","343"
"19","19","encoding","encoding","35","A1.jpg","1",".","37","0","190"
"19","19","encoding","encoding","36","B68.jpg","3",".","36","0","161"
"19","19","encoding","encoding","37","B12.jpg","3",".","36","0","136"
"19","19","encoding","encoding","38","A14.jpg","1",".","37","0","319"
"19","19","encoding","encoding","39","B15.jpg","3",".","37","0","182"
"19","19","encoding","encoding","40","B29.jpg","3",".","37","0","30"
"19","19","encoding","encoding","41","A34.jpg","1",".","37","0","329"
"19","19","encoding","encoding","42","B29.jpg","3",".","37","0","196"
"19","19","encoding","encoding","43","B26.jpg","3",".","36","0","4"
"19","19","encoding","encoding","44","B13.jpg","3",".","37","0","164"
"19","19","encoding","encoding","45","A46.jpg","1",".","37","0","205"
"19","19","encoding","encoding","46","B12.jpg","3",".","36","0","317"
"19","19","encoding","encoding","47","B57.jpg","3",".","36","0","83"
"19","19","encoding","encoding","48","B63.jpg","3",".","37","0","174"
"19","19","encoding","encoding","49","B8.jpg","3",".","36","0","175"
"19","19","encoding","encoding","50","B53.jpg","3",".","36","0","272"
"19","19","encoding","encoding","51","B39.jpg","3",".","36","0","118"
"19","19","encoding","encoding","52","B48.jpg","3",".","0","0","1000"
"19","19","encoding","encoding","53","B71.jpg","3",".","36","0","259"
"19","19","encoding","encoding","54","B45.jpg","3",".","36","0","149"
"19","19","encoding","encoding","55","B24.jpg","3",".","37","0","65"
"19","19","encoding","encoding","56","B59.jpg","3",".","36","0","368"
"19","19","encoding","encoding","57","B26.jpg","3",".","37","0","190"
"19","19","encoding","encoding","58","B77.jpg","3",".","36","0","682"
"19","19","encoding","encoding","59","B39.jpg","3",".","37","0","588"
"19","19","encoding","encoding","60","B51.jpg","3",".","37","0","623"
"19","19","encoding","encoding","61","B7.jpg","3",".","37","0","598"
"19","19","encoding","encoding","62","A68.jpg","1",".","37","0","372"
"19","19","encoding","encoding","63","B46.jpg","3",".","36","0","596"
"19","19","encoding","encoding","64","B15.jpg","3",".","36","0","646"
"19","19","encoding","encoding","65","B70.jpg","3",".","37","0","856"
"19","19","encoding","encoding","67","B46.jpg","3",".","36","0","570"
"19","19","encoding","encoding","68","B4.jpg","3",".","36","0","653"
"19","19","encoding","encoding","69","B40.jpg","3",".","36","0","603"
"19","19","encoding","encoding","70","B49.jpg","3",".","36","0","614"
"19","19","encoding","encoding","71","B72.jpg","3",".","36","0","557"
"19","19","encoding","encoding","72","B54.jpg","3",".","36","0","602"
"19","19","encoding","encoding","73","B40.jpg","3",".","36","0","559"
"19","19","encoding","encoding","74","A65.jpg","1",".","36","0","641"
"19","19","encoding","encoding","75","A30.jpg","1",".","37","0","626"
"19","19","encoding","encoding","76","B11.jpg","3",".","36","0","590"
"19","19","encoding","encoding","77","B69.jpg","3",".","37","0","392"
"19","19","encoding","encoding","78","B77.jpg","3",".","0","0","1000"
"19","19","encoding","encoding","79","B12.jpg","3",".","36","0","788"
"19","19","encoding","encoding","80","B3.jpg","3",".","0","0","1000"
"19","19","encoding","encoding","81","A22.jpg","1",".","0","0","1000"
"19","19","encoding","encoding","82","A56.jpg","1",".","0","0","1000"
"19","19","encoding","encoding","83","B13.jpg","3",".","0","0","1000"
"19","19","encoding","encoding","84","B4.jpg","3",".","36","0","922"
"19","19","encoding","encoding","85","B67.jpg","3",".","36","0","204"
"19","19","encoding","encoding","86","B22.jpg","3",".","36","0","602"
"19","19","encoding","encoding","87","B23.jpg","3",".","36","0","592"
"19","19","encoding","encoding","88","B36.jpg","3",".","36","0","534"
"19","19","encoding","encoding","89","B64.jpg","3",".","36","0","301"
"19","19","encoding","encoding","90","B58.jpg","3",".","36","0","580"
"19","19","encoding","encoding","91","A15.jpg","1",".","36","0","574"
"19","19","encoding","encoding","92","B70.jpg","3",".","36","0","562"
"19","19","encoding","encoding","93","B72.jpg","3",".","36","0","561"
"19","19","encoding","encoding","94","B27.jpg","3",".","37","0","603"
"19","19","encoding","encoding","95","A40.jpg","1",".","37","0","600"
"19","19","encoding","encoding","96","B58.jpg","3",".","37","0","563"
"19","19","encoding","encoding","97","A28.jpg","1",".","37","0","608"
"19","19","encoding","encoding","98","A60.jpg","1",".","37","0","595"
"19","19","encoding","encoding","99","B47.jpg","3",".","37","0","531"
"19","19","encoding","encoding","100","B46.jpg","3",".","37","0","550"
"19","19","encoding","encoding","101","B66.jpg","3",".","37","0","541"
"19","19","encoding","encoding","102","A32.jpg","1",".","37","0","529"
"19","19","encoding","encoding","103","B53.jpg","3",".","37","0","569"
"19","19","encoding","encoding","104","A20.jpg","1",".","37","0","584"
"19","19","encoding","encoding","105","B54.jpg","3",".","37","0","548"
"19","19","encoding","encoding","106","A6.jpg","1",".","37","0","610"
"19","19","encoding","encoding","107","B75.jpg","3",".","37","0","466"
"19","19","encoding","encoding","108","B10.jpg","3",".","37","0","579"
"19","19","encoding","encoding","109","B7.jpg","3",".","37","0","621"
"19","19","encoding","encoding","110","B19.jpg","3",".","37","0","600"
"19","19","encoding","encoding","111","B52.jpg","3",".","36","0","606"
"19","19","encoding","encoding","112","B23.jpg","3",".","36","0","603"
"19","19","encoding","encoding","113","B75.jpg","3",".","36","0","611"
"19","19","encoding","encoding","114","A11.jpg","1",".","36","0","608"
"19","19","encoding","encoding","115","B7.jpg","3",".","37","0","609"
"19","19","encoding","encoding","116","A66.jpg","1",".","37","0","609"
"19","19","encoding","encoding","117","A52.jpg","1",".","37","0","563"
"19","19","encoding","encoding","118","B76.jpg","3",".","37","0","584"
"19","19","encoding","encoding","119","B9.jpg","3",".","37","0","571"
"19","19","encoding","encoding","120","B13.jpg","3",".","36","0","573"
"19","19","encoding","encoding","121","B19.jpg","3",".","37","0","562"
"19","19","encoding","encoding","122","B4.jpg","3",".","37","0","797"
"19","19","encoding","encoding","123","B21.jpg","3",".","37","0","874"
"19","19","encoding","encoding","124","A19.jpg","1",".","37","0","721"
"19","19","encoding","encoding","125","B44.jpg","3",".","37","0","606"
"19","19","encoding","encoding","126","B20.jpg","3",".","37","0","672"
"19","19","encoding","encoding","127","A24.jpg","1",".","36","0","565"
"19","19","encoding","encoding","128","A0.jpg","1",".","36","0","628"
"19","19","encoding","encoding","129","A76.jpg","1",".","36","0","604"
"19","19","encoding","encoding","130","B56.jpg","3",".","37","0","581"
"19","19","encoding","encoding","131","B8.jpg","3",".","37","0","572"
"19","19","encoding","encoding","133","B52.jpg","3",".","37","0","548"
"19","19","encoding","encoding","134","B75.jpg","3",".","37","0","608"
"19","19","encoding","encoding","135","B30.jpg","3",".","37","0","541"
"19","19","encoding","encoding","136","B38.jpg","3",".","36","0","594"
"19","19","encoding","encoding","137","B9.jpg","3",".","37","0","546"
"19","19","encoding","encoding","138","B57.jpg","3",".","37","0","571"
"19","19","encoding","encoding","139","B53.jpg","3",".","36","0","594"
"19","19","encoding","encoding","140","B5.jpg","3",".","36","0","559"
"19","19","encoding","encoding","141","B66.jpg","3",".","36","0","628"
"19","19","encoding","encoding","142","B1.jpg","3",".","37","0","599"
"19","19","encoding","encoding","143","A23.jpg","1",".","37","0","604"
"19","19","encoding","encoding","144","A4.jpg","1",".","37","0","531"
"19","19","encoding","encoding","145","B26.jpg","3",".","36","0","614"
"19","19","encoding","encoding","146","B5.jpg","3",".","37","0","586"
"19","19","encoding","encoding","147","A38.jpg","1",".","37","0","631"
"19","19","encoding","encoding","148","B32.jpg","3",".","37","0","581"
"19","19","encoding","encoding","149","B17.jpg","3",".","37","0","560"
"19","19","encoding","encoding","150","B78.jpg","3",".","37","0","576"
"19","19","encoding","encoding","151","A55.jpg","1",".","37","0","612"
"19","19","encoding","encoding","152","B79.jpg","3",".","37","0","661"
"19","19","encoding","encoding","153","A51.jpg","1",".","37","0","605"
"19","19","encoding","encoding","154","B22.jpg","3",".","37","0","547"
"19","19","encoding","encoding","155","A21.jpg","1",".","36","0","608"
"19","19","encoding","encoding","156","B2.jpg","3",".","37","0","594"
"19","19","encoding","encoding","157","B65.jpg","3",".","36","0","608"
"19","19","encoding","encoding","158","A72.jpg","1",".","36","0","645"
"19","19","encoding","encoding","159","B50.jpg","3",".","37","0","679"
"19","19","encoding","encoding","160","B58.jpg","3",".","37","0","604"
"19","19","encoding","encoding","161","B45.jpg","3",".","36","0","661"
"19","19","encoding","encoding","162","B31.jpg","3",".","36","0","620"
"19","19","encoding","encoding","163","B35.jpg","3",".","37","0","893"
"19","19","encoding","encoding","164","A39.jpg","1",".","37","0","688"
"19","19","encoding","encoding","165","A45.jpg","1",".","0","0","1000"
"19","19","encoding","encoding","166","B66.jpg","3",".","37","0","824"
"19","19","encoding","encoding","167","B2.jpg","3",".","37","0","974"
"19","19","encoding","encoding","168","B76.jpg","3",".","36","0","787"
"19","19","encoding","encoding","169","B55.jpg","3",".","36","0","604"
"19","19","encoding","encoding","170","B33.jpg","3",".","36","0","537"
"19","19","encoding","encoding","171","B56.jpg","3",".","36","0","567"
"19","19","encoding","encoding","172","B45.jpg","3",".","37","0","489"
"19","19","encoding","encoding","173","A7.jpg","1",".","37","0","526"
"19","19","encoding","encoding","174","A27.jpg","1",".","36","0","401"
"19","19","encoding","encoding","175","B28.jpg","3",".","37","0","545"
"19","19","encoding","encoding","176","A48.jpg","1",".","37","0","509"
"19","19","encoding","encoding","177","B57.jpg","3",".","36","0","616"
"19","19","encoding","encoding","178","B79.jpg","3",".","36","0","629"
"19","19","encoding","encoding","179","B22.jpg","3",".","37","0","652"
"19","19","encoding","encoding","180","B55.jpg","3",".","36","0","741"
"19","19","encoding","encoding","181","A43.jpg","1",".","36","0","612"
"19","19","encoding","encoding","182","A35.jpg","1",".","36","0","537"
"19","19","encoding","encoding","183","B32.jpg","3",".","36","0","590"
"19","19","encoding","encoding","184","B6.jpg","3",".","36","0","583"
"19","19","encoding","encoding","185","A64.jpg","1",".","37","0","619"
"19","19","encoding","encoding","186","B35.jpg","3",".","36","0","589"
"19","19","encoding","encoding","187","B41.jpg","3",".","37","0","652"
"19","19","encoding","encoding","188","B62.jpg","3",".","36","0","607"
"19","19","encoding","encoding","189","B8.jpg","3",".","36","0","636"
"19","19","encoding","encoding","190","B64.jpg","3",".","37","0","579"
"19","19","encoding","encoding","191","B17.jpg","3",".","37","0","580"
"19","19","encoding","encoding","192","A78.jpg","1",".","36","0","634"
"19","19","encoding","encoding","193","B33.jpg","3",".","37","0","589"
"19","19","encoding","encoding","194","A31.jpg","1",".","36","0","573"
"19","19","encoding","encoding","195","B11.jpg","3",".","37","0","563"
"19","19","encoding","encoding","196","B60.jpg","3",".","36","0","596"
"19","19","encoding","encoding","197","B43.jpg","3",".","37","0","560"
"19","19","encoding","encoding","199","B2.jpg","3",".","37","0","539"
"19","19","encoding","encoding","200","B78.jpg","3",".","36","0","549"
"19","19","encoding","encoding","201","B43.jpg","3",".","37","0","519"
"19","19","encoding","encoding","202","B69.jpg","3",".","36","0","566"
"19","19","encoding","encoding","203","A12.jpg","1",".","37","0","269"
"19","19","encoding","encoding","204","B37.jpg","3",".","37","0","40"
"19","19","encoding","encoding","205","B50.jpg","3",".","37","0","691"
"19","19","encoding","encoding","206","B51.jpg","3",".","37","0","504"
"19","19","encoding","encoding","207","A25.jpg","1",".","37","0","620"
"19","19","encoding","encoding","208","A3.jpg","1",".","37","0","531"
"19","19","encoding","encoding","209","A26.jpg","1",".","36","0","312"
"19","19","encoding","encoding","210","A29.jpg","1",".","37","0","581"
"19","19","encoding","encoding","211","B50.jpg","3",".","36","0","785"
"19","19","encoding","encoding","212","B41.jpg","3",".","36","0","623"
"19","19","encoding","encoding","213","B24.jpg","3",".","37","0","642"
"19","19","encoding","encoding","214","B1.jpg","3",".","37","0","598"
"19","19","encoding","encoding","215","B65.jpg","3",".","36","0","649"
"19","19","encoding","encoding","216","B43.jpg","3",".","37","0","532"
"19","19","encoding","encoding","217","B56.jpg","3",".","37","0","608"
"19","19","encoding","encoding","218","B51.jpg","3",".","37","0","594"
"19","19","encoding","encoding","219","B16.jpg","3",".","37","0","590"
"19","19","encoding","encoding","220","A77.jpg","1",".","37","0","641"
"19","19","encoding","encoding","221","B39.jpg","3",".","37","0","605"
"19","19","encoding","encoding","222","B61.jpg","3",".","37","0","614"
"19","19","encoding","encoding","223","B35.jpg","3",".","37","0","560"
"19","19","encoding","encoding","224","B3.jpg","3",".","37","0","576"
"19","19","encoding","encoding","225","B15.jpg","3",".","37","0","585"
"19","19","encoding","encoding","226","A9.jpg","1",".","36","0","21"
"19","19","encoding","encoding","227","B63.jpg","3",".","37","0","627"
"19","19","encoding","encoding","228","B16.jpg","3",".","37","0","587"
"19","19","encoding","encoding","229","B59.jpg","3",".","37","0","656"
"19","19","encoding","encoding","230","B70.jpg","3",".","37","0","598"
"19","19","encoding","encoding","231","A61.jpg","1",".","37","0","627"
"19","19","encoding","encoding","232","A67.jpg","1",".","37","0","691"
"19","19","encoding","encoding","233","A59.jpg","1",".","37","0","640"
"19","19","encoding","encoding","234","A75.jpg","1",".","37","0","633"
"19","19","encoding","encoding","235","A41.jpg","1",".","36","0","503"
"19","19","encoding","encoding","236","B67.jpg","3",".","36","0","541"
"19","19","encoding","encoding","237","B0.jpg","3",".","36","0","653"
"19","19","encoding","encoding","238","A49.jpg","1",".","37","0","634"
"19","19","encoding","encoding","239","B62.jpg","3",".","37","0","565"
"19","19","encoding","encoding","240","B68.jpg","3",".","36","0","539"
"19","19","encoding","encoding","241","B73.jpg","3",".","37","0","597"
"19","19","encoding","encoding","242","B74.jpg","3",".","36","0","571"
"19","19","encoding","encoding","243","B74.jpg","3",".","37","0","489"
"19","19","encoding","encoding","244","A58.jpg","1",".","37","0","145"
"19","19","encoding","encoding","245","B14.jpg","3",".","36","0","79"
"19","19","encoding","encoding","246","A69.jpg","1",".","37","0","503"
"19","19","encoding","encoding","247","B30.jpg","3",".","0","0","1000"
"19","19","encoding","encoding","248","A47.jpg","1",".","37","0","78"
"19","19","encoding","encoding","249","B61.jpg","3",".","0","0","1000"
"19","19","encoding","encoding","250","B27.jpg","3",".","37","0","668"
"19","19","encoding","encoding","251","B67.jpg","3",".","0","0","1000"
"19","19","encoding","encoding","252","B14.jpg","3",".","0","0","1000"
"19","19","encoding","encoding","253","B77.jpg","3",".","36","0","576"
"19","19","encoding","encoding","254","B30.jpg","3",".","0","0","1000"
"19","19","encoding","encoding","255","B36.jpg","3",".","36","0","811"
"19","19","encoding","encoding","256","A36.jpg","1",".","37","0","828"
"19","19","encoding","encoding","257","A70.jpg","1",".","36","0","796"
"19","19","encoding","encoding","258","B74.jpg","3",".","36","0","631"
"19","19","encoding","encoding","259","A79.jpg","1",".","36","0","577"
"19","19","encoding","encoding","260","B63.jpg","3",".","37","0","547"
"19","19","encoding","encoding","261","B44.jpg","3",".","37","0","574"
"19","19","encoding","encoding","262","B18.jpg","3",".","37","0","558"
"19","19","encoding","encoding","263","B48.jpg","3",".","37","0","668"
"19","19","encoding","encoding","265","A63.jpg","1",".","37","0","458"
"19","19","encoding","encoding","266","B59.jpg","3",".","37","0","618"
"19","19","encoding","encoding","267","A16.jpg","1",".","37","0","777"
"19","19","encoding","encoding","268","A10.jpg","1",".","37","0","818"
"19","19","encoding","encoding","269","B27.jpg","3",".","37","0","638"
"19","19","encoding","encoding","270","B60.jpg","3",".","36","0","604"
"19","19","encoding","encoding","271","B37.jpg","3",".","36","0","855"
"19","19","encoding","encoding","272","B0.jpg","3",".","36","0","646"
"19","19","encoding","encoding","273","B34.jpg","3",".","36","0","569"
"19","19","encoding","encoding","274","B69.jpg","3",".","37","0","587"
"19","19","encoding","encoding","275","B68.jpg","3",".","37","0","771"
"19","19","encoding","encoding","276","A2.jpg","1",".","37","0","888"
"19","19","encoding","encoding","277","B9.jpg","3",".","37","0","793"
"19","19","encoding","encoding","278","B38.jpg","3",".","37","0","634"
"19","19","encoding","encoding","279","B41.jpg","3",".","37","0","613"
"19","19","encoding","encoding","280","B79.jpg","3",".","36","0","549"
"19","19","encoding","encoding","281","A37.jpg","1",".","36","0","559"
"19","19","encoding","encoding","282","B29.jpg","3",".","36","0","519"
"19","19","encoding","encoding","283","B20.jpg","3",".","36","0","649"
"19","19","encoding","encoding","284","B23.jpg","3",".","36","0","376"
"19","19","encoding","encoding","285","B5.jpg","3",".","37","0","553"
"19","19","encoding","encoding","286","B21.jpg","3",".","37","0","511"
"19","19","encoding","encoding","287","B21.jpg","3",".","0","0","1000"
"19","19","encoding","encoding","288","B60.jpg","3",".","37","0","826"
"19","19","encoding","encoding","289","B72.jpg","3",".","37","0","647"
"19","19","encoding","encoding","290","B38.jpg","3",".","36","0","602"
"19","19","encoding","encoding","291","B3.jpg","3",".","36","0","582"
"19","19","encoding","encoding","292","B25.jpg","3",".","36","0","571"
"19","19","encoding","encoding","293","B18.jpg","3",".","36","0","164"
"19","19","encoding","encoding","294","B48.jpg","3",".","36","0","84"
"19","19","encoding","encoding","295","B62.jpg","3",".","37","0","311"
"19","19","encoding","encoding","296","B33.jpg","3",".","37","0","373"
"19","19","encoding","encoding","297","B40.jpg","3",".","37","0","126"
"19","19","encoding","encoding","298","B54.jpg","3",".","37","0","292"
"19","19","encoding","encoding","299","B28.jpg","3",".","0","0","1000"
"19","19","encoding","encoding","300","B73.jpg","3",".","37","0","865"
"19","19","encoding","encoding","301","B61.jpg","3",".","37","0","803"
"19","19","encoding","encoding","302","B32.jpg","3",".","36","0","704"
"19","19","encoding","encoding","303","A8.jpg","1",".","37","0","106"
"19","19","encoding","encoding","304","B25.jpg","3",".","37","0","625"
"19","19","encoding","encoding","305","B65.jpg","3",".","37","0","653"
"19","19","encoding","encoding","306","B18.jpg","3",".","37","0","647"
"19","19","encoding","encoding","307","B64.jpg","3",".","37","0","602"
"19","19","encoding","encoding","308","B10.jpg","3",".","36","0","659"
"19","19","encoding","encoding","309","B37.jpg","3",".","37","0","669"
"19","19","encoding","encoding","310","B42.jpg","3",".","37","0","649"
"19","19","encoding","encoding","311","B16.jpg","3",".","37","0","658"
"19","19","encoding","encoding","312","B34.jpg","3",".","37","0","674"
"19","19","encoding","encoding","313","B6.jpg","3",".","37","0","611"
"19","19","encoding","encoding","314","A17.jpg","1",".","37","0","603"
"19","19","encoding","encoding","315","B17.jpg","3",".","36","0","695"
"19","19","encoding","encoding","316","A33.jpg","1",".","37","0","629"
"19","19","encoding","encoding","317","A18.jpg","1",".","36","0","668"
"19","19","encoding","encoding","318","A74.jpg","1",".","36","0","831"
"19","19","encoding","encoding","319","B11.jpg","3",".","37","0","634"
"19","19","encoding","encoding","320","B52.jpg","3",".","37","0","439"
"19","19","encoding","encoding","321","B0.jpg","3",".","37","0","393"
"19","19","encoding","encoding","322","B1.jpg","3",".","37","0","601"
"19","19","encoding","encoding","323","B71.jpg","3",".","37","0","649"
"19","19","encoding","encoding","324","B14.jpg","3",".","37","0","825"
"19","19","encoding","encoding","325","A73.jpg","",".","0","0","1000"
"19","19","retrieval","old_object","1","B4.jpg",".","3","37","0","727"
"19","19","retrieval","new_object","2","C25.jpg",".",".","37","1","250"
"19","19","retrieval","old_object","3","A56.jpg",".","1","37","0","905"
"19","19","retrieval","new_object","4","D5.jpg",".",".","37","1","1240"
"19","19","retrieval","new_object","5","D54.jpg",".",".","37","1","807"
"19","19","retrieval","new_object","6","C48.jpg",".",".","37","1","629"
"19","19","retrieval","old_object","7","B54.jpg",".","3","37","0","719"
"19","19","retrieval","old_object","8","A17.jpg",".","1","37","0","931"
"19","19","retrieval","new_object","9","C65.jpg",".",".","37","1","654"
"19","19","retrieval","new_object","10","D19.jpg",".",".","37","1","516"
"19","19","retrieval","old_object","11","A78.jpg",".","1","37","0","798"
"19","19","retrieval","old_object","12","A18.jpg",".","1","37","0","606"
"19","19","retrieval","new_object","13","C77.jpg",".",".","37","1","584"
"19","19","retrieval","old_object","14","A4.jpg",".","1","37","0","668"
"19","19","retrieval","new_object","15","D16.jpg",".",".","37","1","801"
"19","19","retrieval","new_object","16","C8.jpg",".",".","37","1","650"
"19","19","retrieval","old_object","17","A74.jpg",".","1","36","1","571"
"19","19","retrieval","old_object","18","B20.jpg",".","3","37","0","552"
"19","19","retrieval","old_object","19","B53.jpg",".","3","36","1","702"
"19","19","retrieval","new_object","20","D68.jpg",".",".","37","1","608"
"19","19","retrieval","old_object","21","A63.jpg",".","1","36","1","630"
"19","19","retrieval","old_object","22","A65.jpg",".","1","37","0","594"
"19","19","retrieval","new_object","23","C28.jpg",".",".","37","1","600"
"19","19","retrieval","new_object","24","D18.jpg",".",".","36","0","600"
"19","19","retrieval","new_object","25","C76.jpg",".",".","37","1","528"
"19","19","retrieval","new_object","26","D10.jpg",".",".","36","0","665"
"19","19","retrieval","new_object","27","C71.jpg",".",".","36","0","812"
"19","19","retrieval","old_object","28","B62.jpg",".","3","37","0","502"
"19","19","retrieval","old_object","29","A43.jpg",".","1","37","0","648"
"19","19","retrieval","old_object","30","B43.jpg",".","3","37","0","647"
"19","19","retrieval","old_object","31","A30.jpg",".","1","37","0","576"
"19","19","retrieval","old_object","32","A31.jpg",".","1","37","0","842"
"19","19","retrieval","old_object","33","B31.jpg",".","3","37","0","1683"
"19","19","retrieval","old_object","34","A21.jpg",".","1","36","1","1108"
"19","19","retrieval","old_object","35","A69.jpg",".","1","37","0","635"
"19","19","retrieval","new_object","36","C23.jpg",".",".","37","1","412"
"19","19","retrieval","old_object","37","B71.jpg",".","3","36","1","308"
"19","19","retrieval","new_object","38","C21.jpg",".",".","36","0","504"
"19","19","retrieval","old_object","39","A9.jpg",".","1","37","0","676"
"19","19","retrieval","new_object","40","D2.jpg",".",".","37","1","614"
"19","19","retrieval","old_object","41","B26.jpg",".","3","36","1","506"
"19","19","retrieval","old_object","42","B14.jpg",".","3","37","0","647"
"19","19","retrieval","old_object","43","A34.jpg",".","1","36","1","638"
"19","19","retrieval","new_object","44","C62.jpg",".",".","37","1","748"
"19","19","retrieval","old_object","45","B68.jpg",".","3","36","1","697"
"19","19","retrieval","old_object","46","B55.jpg",".","3","36","1","706"
"19","19","retrieval","old_object","47","A29.jpg",".","1","37","0","640"
"19","19","retrieval","new_object","48","D66.jpg",".",".","36","0","621"
"19","19","retrieval","old_object","49","A64.jpg",".","1","37","0","526"
"19","19","retrieval","new_object","50","C47.jpg",".",".","37","1","358"
"19","19","retrieval","old_object","51","B67.jpg",".","3","37","0","629"
"19","19","retrieval","new_object","52","D36.jpg",".",".","37","1","601"
"19","19","retrieval","old_object","53","B33.jpg",".","3","36","1","557"
"19","19","retrieval","new_object","54","D11.jpg",".",".","36","0","450"
"19","19","retrieval","old_object","55","B2.jpg",".","3","36","1","525"
"19","19","retrieval","old_object","56","B7.jpg",".","3","37","0","615"
"19","19","retrieval","new_object","57","D65.jpg",".",".","37","1","650"
"19","19","retrieval","old_object","58","A44.jpg",".","1","36","1","626"
"19","19","retrieval","new_object","59","D46.jpg",".",".","36","0","633"
"19","19","retrieval","old_object","60","B39.jpg",".","3","36","1","295"
"19","19","retrieval","new_object","61","C35.jpg",".",".","36","0","86"
"19","19","retrieval","new_object","62","C10.jpg",".",".","36","0","220"
"19","19","retrieval","new_object","63","D70.jpg",".",".","37","1","334"
"19","19","retrieval","new_object","64","C36.jpg",".",".","36","0","225"
"19","19","retrieval","new_object","65","D52.jpg",".",".","36","0","129"
"19","19","retrieval","old_object","67","A16.jpg",".","1","37","0","551"
"19","19","retrieval","old_object","68","A8.jpg",".","1","37","0","489"
"19","19","retrieval","new_object","69","D76.jpg",".",".","36","0","357"
"19","19","retrieval","old_object","70","A70.jpg",".","1","37","0","391"
"19","19","retrieval","old_object","71","B44.jpg",".","3","37","0","534"
"19","19","retrieval","old_object","72","A5.jpg",".","1","36","1","258"
"19","19","retrieval","old_object","73","A0.jpg",".","1","36","1","460"
"19","19","retrieval","old_object","74","B9.jpg",".","3","36","1","480"
"19","19","retrieval","new_object","75","C45.jpg",".",".","37","1","592"
"19","19","retrieval","new_object","76","C40.jpg",".",".","36","0","558"
"19","19","retrieval","old_object","77","B47.jpg",".","3","36","1","586"
"19","19","retrieval","new_object","78","D25.jpg",".",".","36","0","458"
"19","19","retrieval","old_object","79","A66.jpg",".","1","36","1","587"
"19","19","retrieval","new_object","80","D43.jpg",".",".","36","0","659"
"19","19","retrieval","old_object","81","B27.jpg",".","3","36","1","643"
"19","19","retrieval","new_object","82","C12.jpg",".",".","36","0","559"
"19","19","retrieval","new_object","83","C51.jpg",".",".","36","0","579"
"19","19","retrieval","old_object","84","B21.jpg",".","3","36","1","477"
"19","19","retrieval","new_object","85","D12.jpg",".",".","37","1","577"
"19","19","retrieval","old_object","86","A27.jpg",".","1","37","0","577"
"19","19","retrieval","new_object","87","C59.jpg",".",".","36","0","524"
"19","19","retrieval","old_object","88","A73.jpg",".","1","36","1","621"
"19","19","retrieval","new_object","89","C46.jpg",".",".","36","0","333"
"19","19","retrieval","new_object","90","D1.jpg",".",".","36","0","601"
"19","19","retrieval","old_object","91","B59.jpg",".","3","37","0","177"
"19","19","retrieval","old_object","92","A39.jpg",".","1","36","1","57"
"19","19","retrieval","old_object","93","B17.jpg",".","3","37","0","555"
"19","19","retrieval","new_object","94","C56.jpg",".",".","37","1","473"
"19","19","retrieval","new_object","95","C66.jpg",".",".","36","0","645"
"19","19","retrieval","new_object","96","D24.jpg",".",".","36","0","696"
"19","19","retrieval","new_object","97","C79.jpg",".",".","36","0","804"
"19","19","retrieval","old_object","98","A19.jpg",".","1","36","1","692"
"19","19","retrieval","new_object","99","D55.jpg",".",".","37","1","616"
"19","19","retrieval","new_object","100","C11.jpg",".",".","37","1","614"
"19","19","retrieval","old_object","101","B42.jpg",".","3","37","0","600"
"19","19","retrieval","new_object","102","D45.jpg",".",".","37","1","709"
"19","19","retrieval","old_object","103","A48.jpg",".","1","37","0","725"
"19","19","retrieval","new_object","104","D53.jpg",".",".","37","1","823"
"19","19","retrieval","new_object","105","C5.jpg",".",".","37","1","655"
"19","19","retrieval","old_object","106","B30.jpg",".","3","37","0","493"
"19","19","retrieval","new_object","107","C15.jpg",".",".","36","0","600"
"19","19","retrieval","new_object","108","D49.jpg",".",".","36","0","860"
"19","19","retrieval","new_object","109","D39.jpg",".",".","37","1","782"
"19","19","retrieval","new_object","110","C39.jpg",".",".","36","0","754"
"19","19","retrieval","old_object","111","B46.jpg",".","3","37","0","1011"
"19","19","retrieval","old_object","112","B73.jpg",".","3","36","1","840"
"19","19","retrieval","old_object","113","B29.jpg",".","3","37","0","778"
"19","19","retrieval","old_object","114","A68.jpg",".","1","36","1","629"
"19","19","retrieval","new_object","115","D38.jpg",".",".","36","0","809"
"19","19","retrieval","old_object","116","B35.jpg",".","3","36","1","580"
"19","19","retrieval","new_object","117","D47.jpg",".",".","37","1","553"
"19","19","retrieval","old_object","118","B65.jpg",".","3","37","0","214"
"19","19","retrieval","new_object","119","C33.jpg",".",".","37","1","593"
"19","19","retrieval","new_object","120","D20.jpg",".",".","37","1","739"
"19","19","retrieval","old_object","121","A79.jpg",".","1","36","1","700"
"19","19","retrieval","old_object","122","A33.jpg",".","1","36","1","719"
"19","19","retrieval","new_object","123","C31.jpg",".",".","36","0","674"
"19","19","retrieval","old_object","124","A7.jpg",".","1","37","0","1563"
"19","19","retrieval","old_object","125","A22.jpg",".","1","36","1","340"
"19","19","retrieval","old_object","126","B22.jpg",".","3","36","1","139"
"19","19","retrieval","new_object","127","D13.jpg",".",".","36","0","657"
"19","19","retrieval","old_object","128","B12.jpg",".","3","36","1","612"
"19","19","retrieval","old_object","129","A62.jpg",".","1","36","1","620"
"19","19","retrieval","new_object","130","C44.jpg",".",".","37","1","587"
"19","19","retrieval","old_object","131","B66.jpg",".","3","36","1","651"
"19","19","retrieval","old_object","133","A59.jpg",".","1","37","0","360"
"19","19","retrieval","new_object","134","C38.jpg",".",".","36","0","116"
"19","19","retrieval","new_object","135","D58.jpg",".",".","36","0","283"
"19","19","retrieval","new_object","136","D67.jpg",".",".","36","0","501"
"19","19","retrieval","old_object","137","A38.jpg",".","1","36","1","630"
"19","19","retrieval","old_object","138","B1.jpg",".","3","36","1","656"
"19","19","retrieval","old_object","139","B61.jpg",".","3","36","1","853"
"19","19","retrieval","old_object","140","A77.jpg",".","1","36","1","574"
"19","19","retrieval","old_object","141","B69.jpg",".","3","36","1","579"
"19","19","retrieval","old_object","142","A2.jpg",".","1","36","1","411"
"19","19","retrieval","old_object","143","B56.jpg",".","3","36","1","500"
"19","19","retrieval","new_object","144","D48.jpg",".",".","36","0","682"
"19","19","retrieval","old_object","145","A32.jpg",".","1","37","0","650"
"19","19","retrieval","new_object","146","D21.jpg",".",".","37","1","418"
"19","19","retrieval","old_object","147","B74.jpg",".","3","37","0","695"
"19","19","retrieval","new_object","148","D7.jpg",".",".","36","0","577"
"19","19","retrieval","old_object","149","B58.jpg",".","3","37","0","1537"
"19","19","retrieval","new_object","150","D64.jpg",".",".","37","1","158"
"19","19","retrieval","new_object","151","D0.jpg",".",".","37","1","43"
"19","19","retrieval","new_object","152","C64.jpg",".",".","37","1","15"
"19","19","retrieval","old_object","153","B78.jpg",".","3","36","1","559"
"19","19","retrieval","new_object","154","D44.jpg",".",".","37","1","400"
"19","19","retrieval","new_object","155","D72.jpg",".",".","36","0","662"
"19","19","retrieval","new_object","156","C58.jpg",".",".","36","0","718"
"19","19","retrieval","old_object","157","B8.jpg",".","3","36","1","621"
"19","19","retrieval","old_object","158","A76.jpg",".","1","36","1","417"
"19","19","retrieval","old_object","159","B3.jpg",".","3","36","1","613"
"19","19","retrieval","new_object","160","C17.jpg",".",".","36","0","340"
"19","19","retrieval","new_object","161","D74.jpg",".",".","36","0","531"
"19","19","retrieval","old_object","162","A52.jpg",".","1","36","1","762"
"19","19","retrieval","old_object","163","B51.jpg",".","3","36","1","1119"
"19","19","retrieval","old_object","164","B70.jpg",".","3","0","0","2000"
"19","19","retrieval","old_object","165","B75.jpg",".","3","37","0","640"
"19","19","retrieval","old_object","166","A25.jpg",".","1","37","0","611"
"19","19","retrieval","new_object","167","D15.jpg",".",".","36","0","674"
"19","19","retrieval","new_object","168","D28.jpg",".",".","37","1","298"
"19","19","retrieval","old_object","169","A51.jpg",".","1","36","1","152"
"19","19","retrieval","new_object","170","D59.jpg",".",".","36","0","195"
"19","19","retrieval","old_object","171","B16.jpg",".","3","36","1","760"
"19","19","retrieval","old_object","172","B63.jpg",".","3","36","1","724"
"19","19","retrieval","new_object","173","D8.jpg",".",".","37","1","4"
"19","19","retrieval","new_object","174","C72.jpg",".",".","36","0","4"
"19","19","retrieval","new_object","175","C14.jpg",".",".","37","1","845"
"19","19","retrieval","new_object","176","C24.jpg",".",".","37","1","648"
"19","19","retrieval","new_object","177","C60.jpg",".",".","36","0","83"
"19","19","retrieval","new_object","178","C57.jpg",".",".","36","0","615"
"19","19","retrieval","new_object","179","C69.jpg",".",".","36","0","645"
"19","19","retrieval","old_object","180","B13.jpg",".","3","36","1","632"
"19","19","retrieval","old_object","181","A1.jpg",".","1","36","1","184"
"19","19","retrieval","old_object","182","B48.jpg",".","3","37","0","742"
"19","19","retrieval","old_object","183","B28.jpg",".","3","37","0","759"
"19","19","retrieval","new_object","184","C50.jpg",".",".","36","0","544"
"19","19","retrieval","old_object","185","B60.jpg",".","3","37","0","581"
"19","19","retrieval","old_object","186","B40.jpg",".","3","36","1","642"
"19","19","retrieval","new_object","187","D6.jpg",".",".","36","0","658"
"19","19","retrieval","old_object","188","A26.jpg",".","1","36","1","643"
"19","19","retrieval","new_object","189","C22.jpg",".",".","36","0","594"
"19","19","retrieval","old_object","190","A60.jpg",".","1","37","0","605"
"19","19","retrieval","new_object","191","D4.jpg",".",".","37","1","671"
"19","19","retrieval","old_object","192","A50.jpg",".","1","37","0","1107"
"19","19","retrieval","new_object","193","C16.jpg",".",".","37","1","334"
"19","19","retrieval","new_object","194","C26.jpg",".",".","36","0","670"
"19","19","retrieval","new_object","195","C55.jpg",".",".","36","0","560"
"19","19","retrieval","new_object","196","D69.jpg",".",".","36","0","689"
"19","19","retrieval","old_object","197","B19.jpg",".","3","36","1","468"
"19","19","retrieval","new_object","199","D26.jpg",".",".","36","0","429"
"19","19","retrieval","new_object","200","D30.jpg",".",".","37","1","576"
"19","19","retrieval","old_object","201","B41.jpg",".","3","36","1","668"
"19","19","retrieval","new_object","202","D31.jpg",".",".","37","1","433"
"19","19","retrieval","new_object","203","D56.jpg",".",".","36","0","609"
"19","19","retrieval","old_object","204","B45.jpg",".","3","37","0","608"
"19","19","retrieval","new_object","205","C42.jpg",".",".","37","1","303"
"19","19","retrieval","old_object","206","A57.jpg",".","1","36","1","557"
"19","19","retrieval","old_object","207","B0.jpg",".","3","36","1","540"
"19","19","retrieval","new_object","208","D75.jpg",".",".","36","0","370"
"19","19","retrieval","new_object","209","C73.jpg",".",".","37","1","389"
"19","19","retrieval","old_object","210","A11.jpg",".","1","37","0","658"
"19","19","retrieval","old_object","211","A3.jpg",".","1","36","1","588"
"19","19","retrieval","new_object","212","C0.jpg",".",".","37","1","616"
"19","19","retrieval","old_object","213","A12.jpg",".","1","36","1","551"
"19","19","retrieval","old_object","214","A41.jpg",".","1","36","1","315"
"19","19","retrieval","new_object","215","C68.jpg",".",".","37","1","592"
"19","19","retrieval","new_object","216","D73.jpg",".",".","37","1","680"
"19","19","retrieval","old_object","217","A20.jpg",".","1","37","0","1143"
"19","19","retrieval","old_object","218","B11.jpg",".","3","36","1","186"
"19","19","retrieval","new_object","219","D50.jpg",".",".","37","1","720"
"19","19","retrieval","new_object","220","C61.jpg",".",".","36","0","666"
"19","19","retrieval","new_object","221","C3.jpg",".",".","37","1","646"
"19","19","retrieval","new_object","222","D40.jpg",".",".","37","1","436"
"19","19","retrieval","old_object","223","A35.jpg",".","1","37","0","581"
"19","19","retrieval","old_object","224","A55.jpg",".","1","37","0","651"
"19","19","retrieval","old_object","225","A10.jpg",".","1","37","0","616"
"19","19","retrieval","old_object","226","B50.jpg",".","3","36","1","1045"
"19","19","retrieval","new_object","227","C32.jpg",".",".","36","0","873"
"19","19","retrieval","new_object","228","D27.jpg",".",".","36","0","596"
"19","19","retrieval","old_object","229","A15.jpg",".","1","37","0","772"
"19","19","retrieval","new_object","230","D79.jpg",".",".","37","1","556"
"19","19","retrieval","old_object","231","B38.jpg",".","3","37","0","1027"
"19","19","retrieval","new_object","232","D42.jpg",".",".","37","1","946"
"19","19","retrieval","new_object","233","C54.jpg",".",".","36","0","1122"
"19","19","retrieval","old_object","234","B37.jpg",".","3","37","0","807"
"19","19","retrieval","new_object","235","D29.jpg",".",".","36","0","1541"
"19","19","retrieval","old_object","236","A61.jpg",".","1","36","1","829"
"19","19","retrieval","old_object","237","A67.jpg",".","1","36","1","609"
"19","19","retrieval","new_object","238","C27.jpg",".",".","37","1","893"
"19","19","retrieval","new_object","239","D17.jpg",".",".","37","1","487"
"19","19","retrieval","new_object","240","D37.jpg",".",".","37","1","78"
"19","19","retrieval","old_object","241","A54.jpg",".","1","37","0","702"
"19","19","retrieval","old_object","242","A24.jpg",".","1","36","1","538"
"19","19","retrieval","old_object","243","B18.jpg",".","3","36","1","645"
"19","19","retrieval","new_object","244","D71.jpg",".",".","36","0","782"
"19","19","retrieval","new_object","245","C2.jpg",".",".","36","0","615"
"19","19","retrieval","old_object","246","A23.jpg",".","1","36","1","612"
"19","19","retrieval","old_object","247","A72.jpg",".","1","37","0","589"
"19","19","retrieval","new_object","248","D32.jpg",".",".","36","0","634"
"19","19","retrieval","old_object","249","A42.jpg",".","1","37","0","673"
"19","19","retrieval","old_object","250","B57.jpg",".","3","36","1","925"
"19","19","retrieval","new_object","251","C1.jpg",".",".","36","0","767"
"19","19","retrieval","new_object","252","C37.jpg",".",".","36","0","622"
"19","19","retrieval","old_object","253","B25.jpg",".","3","36","1","680"
"19","19","retrieval","old_object","254","B77.jpg",".","3","37","0","658"
"19","19","retrieval","new_object","255","C63.jpg",".",".","37","1","616"
"19","19","retrieval","old_object","256","A47.jpg",".","1","37","0","639"
"19","19","retrieval","old_object","257","A75.jpg",".","1","37","0","570"
"19","19","retrieval","old_object","258","A46.jpg",".","1","37","0","172"
"19","19","retrieval","new_object","259","C20.jpg",".",".","37","1","165"
"19","19","retrieval","old_object","260","B23.jpg",".","3","37","0","519"
"19","19","retrieval","new_object","261","D14.jpg",".",".","37","1","537"
"19","19","retrieval","old_object","262","B32.jpg",".","3","37","0","562"
"19","19","retrieval","old_object","263","B34.jpg",".","3","37","0","10"
"19","19","retrieval","old_object","265","B49.jpg",".","3","37","0","752"
"19","19","retrieval","old_object","266","B6.jpg",".","3","37","0","522"
"19","19","retrieval","new_object","267","C70.jpg",".",".","37","1","563"
"19","19","retrieval","new_object","268","C43.jpg",".",".","36","0","604"
"19","19","retrieval","new_object","269","D78.jpg",".",".","36","0","609"
"19","19","retrieval","new_object","270","C9.jpg",".",".","36","0","637"
"19","19","retrieval","new_object","271","D62.jpg",".",".","36","0","683"
"19","19","retrieval","old_object","272","A45.jpg",".","1","36","1","580"
"19","19","retrieval","new_object","273","C29.jpg",".",".","36","0","637"
"19","19","retrieval","new_object","274","D3.jpg",".",".","36","0","588"
"19","19","retrieval","new_object","275","C74.jpg",".",".","36","0","598"
"19","19","retrieval","old_object","276","B15.jpg",".","3","36","1","660"
"19","19","retrieval","new_object","277","C52.jpg",".",".","36","0","646"
"19","19","retrieval","new_object","278","C53.jpg",".",".","37","1","734"
"19","19","retrieval","new_object","279","C41.jpg",".",".","37","1","751"
"19","19","retrieval","new_object","280","D51.jpg",".",".","37","1","545"
"19","19","retrieval","old_object","281","A13.jpg",".","1","37","0","646"
"19","19","retrieval","new_object","282","C49.jpg",".",".","37","1","405"
"19","19","retrieval","old_object","283","A36.jpg",".","1","36","1","257"
"19","19","retrieval","new_object","284","C4.jpg",".",".","36","0","301"
"19","19","retrieval","old_object","285","B72.jpg",".","3","37","0","62"
"19","19","retrieval","old_object","286","A40.jpg",".","1","37","0","356"
"19","19","retrieval","new_object","287","D22.jpg",".",".","36","0","615"
"19","19","retrieval","new_object","288","C75.jpg",".",".","36","0","561"
"19","19","retrieval","new_object","289","D77.jpg",".",".","36","0","578"
"19","19","retrieval","new_object","290","D33.jpg",".",".","36","0","627"
"19","19","retrieval","old_object","291","A58.jpg",".","1","37","0","599"
"19","19","retrieval","new_object","292","C13.jpg",".",".","36","0","1258"
"19","19","retrieval","old_object","293","A71.jpg",".","1","36","1","691"
"19","19","retrieval","new_object","294","C19.jpg",".",".","36","0","565"
"19","19","retrieval","old_object","295","A14.jpg",".","1","37","0","648"
"19","19","retrieval","new_object","296","C30.jpg",".",".","37","1","593"
"19","19","retrieval","new_object","297","D57.jpg",".",".","36","0","496"
"19","19","retrieval","old_object","298","B64.jpg",".","3","37","0","516"
"19","19","retrieval","new_object","299","C6.jpg",".",".","36","0","632"
"19","19","retrieval","old_object","300","A6.jpg",".","1","37","0","562"
"19","19","retrieval","new_object","301","D23.jpg",".",".","37","1","595"
"19","19","retrieval","new_object","302","C18.jpg",".",".","36","0","573"
"19","19","retrieval","old_object","303","B36.jpg",".","3","36","1","754"
"19","19","retrieval","new_object","304","D9.jpg",".",".","36","0","664"
"19","19","retrieval","old_object","305","B24.jpg",".","3","37","0","589"
"19","19","retrieval","new_object","306","D60.jpg",".",".","37","1","638"
"19","19","retrieval","old_object","307","B76.jpg",".","3","37","0","679"
"19","19","retrieval","new_object","308","C78.jpg",".",".","36","0","511"
"19","19","retrieval","new_object","309","C67.jpg",".",".","37","1","590"
"19","19","retrieval","old_object","310","A53.jpg",".","1","36","1","693"
"19","19","retrieval","new_object","311","C7.jpg",".",".","37","1","916"
"19","19","retrieval","new_object","312","D35.jpg",".",".","37","1","1271"
"19","19","retrieval","old_object","313","B10.jpg",".","3","37","0","614"
"19","19","retrieval","new_object","314","D41.jpg",".",".","36","0","400"
"19","19","retrieval","new_object","315","D34.jpg",".",".","37","1","662"
"19","19","retrieval","new_object","316","C34.jpg",".",".","36","0","711"
"19","19","retrieval","old_object","317","B79.jpg",".","3","36","1","700"
"19","19","retrieval","old_object","318","A49.jpg",".","1","36","1","1248"
"19","19","retrieval","new_object","319","D61.jpg",".",".","36","0","840"
"19","19","retrieval","old_object","320","A28.jpg",".","1","37","0","849"
"19","19","retrieval","new_object","321","D63.jpg",".",".","37","1","213"
"19","19","retrieval","old_object","322","B5.jpg",".","3","0","0","2000"
"19","19","retrieval","old_object","323","B52.jpg",".","3","37","0","274"
"19","19","retrieval","old_object","324","A37.jpg",".","1","36","1","709"
"19","19","retrieval","new_object","325","C28.jpg",".",".","36","0","198"
"19","19","demographics_block","gender","1",".",".",".","Male","1","21380"
"19","19","demographics_block","age","1",".",".",".","33","1","21380"
"19","19","demographics_block","education","1",".",".",".","MS","1","21380"
"19","19","demographics_block","left_right_handed","2",".",".",".","Right","1","27069"
"19","19","demographics_block","raceoption1","2",".",".",".","0","1","27069"
"19","19","demographics_block","raceoption2","2",".",".",".","","1","27069"
"19","19","demographics_block","raceoption3","2",".",".",".","","1","27069"
"19","19","demographics_block","raceoption4","2",".",".",".","","1","27069"
"19","19","demographics_block","raceoption5","2",".",".",".","","1","27069"
"19","19","demographics_block","raceoption6","2",".",".",".","","1","27069"
"19","19","demographics_block","raceoption7","2",".",".",".","","1","27069"
"19","19","demographics_block","raceoption8","2",".",".",".","","1","27069"
"19","19","demographics_block","raceoption9","2",".",".",".","","1","27069"
"19","19","demographics_block","raceother","2",".",".",".","","1","27069"
"19","19","demographics_block","raceother","2",".",".",".","","1","27069"
"19","19","demographics_block","english_language","2",".",".",".","Yes","1","27069"
"19","19","demographics_block","other","2",".",".",".","","1","27069"
"19","19","demographics_block","eyesight","3",".",".",".","No","1","128485"
"19","19","demographics_block","colorblind","3",".",".",".","No","1","128485"
"21","21","encoding","encoding","1","A73.jpg","1",".","0","0","1000"
"21","21","encoding","encoding","2","B55.jpg","3",".","0","0","1000"
"21","21","encoding","encoding","3","A54.jpg","1",".","37","0","796"
"21","21","encoding","encoding","4","B6.jpg","3",".","0","0","1000"
"21","21","encoding","encoding","5","B47.jpg","3",".","37","0","721"
"21","21","encoding","encoding","6","A53.jpg","1",".","0","0","1000"
"21","21","encoding","encoding","7","B20.jpg","3",".","0","0","1000"
"21","21","encoding","encoding","8","A57.jpg","1",".","0","0","1000"
"21","21","encoding","encoding","9","B76.jpg","3",".","0","0","1000"
"21","21","encoding","encoding","10","A62.jpg","1",".","37","0","685"
"21","21","encoding","encoding","11","B36.jpg","3",".","37","0","852"
"21","21","encoding","encoding","12","B49.jpg","3",".","0","0","1000"
"21","21","encoding","encoding","13","B44.jpg","3",".","0","0","1000"
"21","21","encoding","encoding","14","A50.jpg","1",".","0","0","1000"
"21","21","encoding","encoding","15","A71.jpg","1",".","37","0","522"
"21","21","encoding","encoding","16","B25.jpg","3",".","37","0","585"
"21","21","encoding","encoding","17","A42.jpg","1",".","37","0","648"
"21","21","encoding","encoding","18","B47.jpg","3",".","37","0","654"
"21","21","encoding","encoding","19","A5.jpg","1",".","37","0","721"
"21","21","encoding","encoding","20","B71.jpg","3",".","0","0","1000"
"21","21","encoding","encoding","21","B10.jpg","3",".","0","0","1000"
"21","21","encoding","encoding","22","B28.jpg","3",".","0","0","1000"
"21","21","encoding","encoding","23","B19.jpg","3",".","0","0","1000"
"21","21","encoding","encoding","24","B34.jpg","3",".","0","0","1000"
"21","21","encoding","encoding","25","A44.jpg","1",".","37","0","656"
"21","21","encoding","encoding","26","B42.jpg","3",".","0","0","1000"
"21","21","encoding","encoding","27","B24.jpg","3",".","37","0","617"
"21","21","encoding","encoding","28","B31.jpg","3",".","37","0","512"
"21","21","encoding","encoding","29","B78.jpg","3",".","37","0","531"
"21","21","encoding","encoding","30","B49.jpg","3",".","37","0","736"
"21","21","encoding","encoding","31","A13.jpg","1",".","37","0","747"
"21","21","encoding","encoding","32","B42.jpg","3",".","0","0","1000"
"21","21","encoding","encoding","33","B31.jpg","3",".","37","0","712"
"21","21","encoding","encoding","34","B73.jpg","3",".","0","0","1000"
"21","21","encoding","encoding","35","A1.jpg","1",".","0","0","1000"
"21","21","encoding","encoding","36","B68.jpg","3",".","37","0","616"
"21","21","encoding","encoding","37","B12.jpg","3",".","0","0","1000"
"21","21","encoding","encoding","38","A14.jpg","1",".","37","0","533"
"21","21","encoding","encoding","39","B15.jpg","3",".","37","0","607"
"21","21","encoding","encoding","40","B29.jpg","3",".","37","0","526"
"21","21","encoding","encoding","41","A34.jpg","1",".","37","0","592"
"21","21","encoding","encoding","42","B29.jpg","3",".","37","0","343"
"21","21","encoding","encoding","43","B26.jpg","3",".","37","0","290"
"21","21","encoding","encoding","44","B13.jpg","3",".","37","0","452"
"21","21","encoding","encoding","45","A46.jpg","1",".","37","0","231"
"21","21","encoding","encoding","46","B12.jpg","3",".","37","0","125"
"21","21","encoding","encoding","47","B57.jpg","3",".","37","0","82"
"21","21","encoding","encoding","48","B63.jpg","3",".","37","0","26"
"21","21","encoding","encoding","49","B8.jpg","3",".","37","0","105"
"21","21","encoding","encoding","50","B53.jpg","3",".","37","0","392"
"21","21","encoding","encoding","51","B39.jpg","3",".","37","0","18"
"21","21","encoding","encoding","52","B48.jpg","3",".","37","0","88"
"21","21","encoding","encoding","53","B71.jpg","3",".","37","0","31"
"21","21","encoding","encoding","54","B45.jpg","3",".","37","0","13"
"21","21","encoding","encoding","55","B24.jpg","3",".","37","0","228"
"21","21","encoding","encoding","56","B59.jpg","3",".","37","0","75"
"21","21","encoding","encoding","57","B26.jpg","3",".","37","0","233"
"21","21","encoding","encoding","58","B77.jpg","3",".","37","0","51"
"21","21","encoding","encoding","59","B39.jpg","3",".","37","0","122"
"21","21","encoding","encoding","60","B51.jpg","3",".","37","0","92"
"21","21","encoding","encoding","61","B7.jpg","3",".","37","0","139"
"21","21","encoding","encoding","62","A68.jpg","1",".","37","0","221"
"21","21","encoding","encoding","63","B46.jpg","3",".","37","0","268"
"21","21","encoding","encoding","64","B15.jpg","3",".","37","0","307"
"21","21","encoding","encoding","65","B70.jpg","3",".","37","0","257"
"21","21","encoding","encoding","67","B46.jpg","3",".","37","0","879"
"21","21","encoding","encoding","68","B4.jpg","3",".","37","0","118"
"21","21","encoding","encoding","69","B40.jpg","3",".","37","0","588"
"21","21","encoding","encoding","70","B49.jpg","3",".","0","0","1000"
"21","21","encoding","encoding","71","B72.jpg","3",".","37","0","605"
"21","21","encoding","encoding","72","B54.jpg","3",".","0","0","1000"
"21","21","encoding","encoding","73","B40.jpg","3",".","37","0","366"
"21","21","encoding","encoding","74","A65.jpg","1",".","37","0","625"
"21","21","encoding","encoding","75","A30.jpg","1",".","37","0","680"
"21","21","encoding","encoding","76","B11.jpg","3",".","37","0","562"
"21","21","encoding","encoding","77","B69.jpg","3",".","37","0","465"
"21","21","encoding","encoding","78","B77.jpg","3",".","37","0","430"
"21","21","encoding","encoding","79","B12.jpg","3",".","37","0","469"
"21","21","encoding","encoding","80","B3.jpg","3",".","37","0","484"
"21","21","encoding","encoding","81","A22.jpg","1",".","37","0","586"
"21","21","encoding","encoding","82","A56.jpg","1",".","0","0","1000"
"21","21","encoding","encoding","83","B13.jpg","3",".","37","0","343"
"21","21","encoding","encoding","84","B4.jpg","3",".","37","0","750"
"21","21","encoding","encoding","85","B67.jpg","3",".","0","0","1000"
"21","21","encoding","encoding","86","B22.jpg","3",".","37","0","563"
"21","21","encoding","encoding","87","B23.jpg","3",".","37","0","769"
"21","21","encoding","encoding","88","B36.jpg","3",".","37","0","496"
"21","21","encoding","encoding","89","B64.jpg","3",".","0","0","1000"
"21","21","encoding","encoding","90","B58.jpg","3",".","37","0","613"
"21","21","encoding","encoding","91","A15.jpg","1",".","37","0","712"
"21","21","encoding","encoding","92","B70.jpg","3",".","0","0","1000"
"21","21","encoding","encoding","93","B72.jpg","3",".","0","0","1000"
"21","21","encoding","encoding","94","B27.jpg","3",".","0","0","1000"
"21","21","encoding","encoding","95","A40.jpg","1",".","0","0","1000"
"21","21","encoding","encoding","96","B58.jpg","3",".","0","0","1000"
"21","21","encoding","encoding","97","A28.jpg","1",".","0","0","1000"
"21","21","encoding","encoding","98","A60.jpg","1",".","0","0","1000"
"21","21","encoding","encoding","99","B47.jpg","3",".","37","0","520"
"21","21","encoding","encoding","100","B46.jpg","3",".","37","0","839"
"21","21","encoding","encoding","101","B66.jpg","3",".","0","0","1000"
"21","21","encoding","encoding","102","A32.jpg","1",".","0","0","1000"
"21","21","encoding","encoding","103","B53.jpg","3",".","0","0","1000"
"21","21","encoding","encoding","104","A20.jpg","1",".","0","0","1000"
"21","21","encoding","encoding","105","B54.jpg","3",".","37","0","666"
"21","21","encoding","encoding","106","A6.jpg","1",".","37","0","605"
"21","21","encoding","encoding","107","B75.jpg","3",".","0","0","1000"
"21","21","encoding","encoding","108","B10.jpg","3",".","37","0","854"
"21","21","encoding","encoding","109","B7.jpg","3",".","0","0","1000"
"21","21","encoding","encoding","110","B19.jpg","3",".","0","0","1000"
"21","21","encoding","encoding","111","B52.jpg","3",".","37","0","602"
"21","21","encoding","encoding","112","B23.jpg","3",".","37","0","649"
"21","21","encoding","encoding","113","B75.jpg","3",".","0","0","1000"
"21","21","encoding","encoding","114","A11.jpg","1",".","37","0","894"
"21","21","encoding","encoding","115","B7.jpg","3",".","0","0","1000"
"21","21","encoding","encoding","116","A66.jpg","1",".","37","0","635"
"21","21","encoding","encoding","117","A52.jpg","1",".","37","0","713"
"21","21","encoding","encoding","118","B76.jpg","3",".","0","0","1000"
"21","21","encoding","encoding","119","B9.jpg","3",".","37","0","695"
"21","21","encoding","encoding","120","B13.jpg","3",".","37","0","709"
"21","21","encoding","encoding","121","B19.jpg","3",".","0","0","1000"
"21","21","encoding","encoding","122","B4.jpg","3",".","37","0","722"
"21","21","encoding","encoding","123","B21.jpg","3",".","37","0","353"
"21","21","encoding","encoding","124","A19.jpg","1",".","37","0","55"
"21","21","encoding","encoding","125","B44.jpg","3",".","37","0","70"
"21","21","encoding","encoding","126","B20.jpg","3",".","37","0","220"
"21","21","encoding","encoding","127","A24.jpg","1",".","37","0","51"
"21","21","encoding","encoding","128","A0.jpg","1",".","37","0","362"
"21","21","encoding","encoding","129","A76.jpg","1",".","37","0","156"
"21","21","encoding","encoding","130","B56.jpg","3",".","37","0","15"
"21","21","encoding","encoding","131","B8.jpg","3",".","37","0","164"
"21","21","encoding","encoding","133","B52.jpg","3",".","0","0","1000"
"21","21","encoding","encoding","134","B75.jpg","3",".","0","0","1000"
"21","21","encoding","encoding","135","B30.jpg","3",".","0","0","1000"
"21","21","encoding","encoding","136","B38.jpg","3",".","0","0","1000"
"21","21","encoding","encoding","137","B9.jpg","3",".","0","0","1000"
"21","21","encoding","encoding","138","B57.jpg","3",".","0","0","1000"
"21","21","encoding","encoding","139","B53.jpg","3",".","0","0","1000"
"21","21","encoding","encoding","140","B5.jpg","3",".","0","0","1000"
"21","21","encoding","encoding","141","B66.jpg","3",".","36","0","1"
"21","21","encoding","encoding","142","B1.jpg","3",".","37","0","5"
"21","21","encoding","encoding","143","A23.jpg","1",".","37","0","136"
"21","21","encoding","encoding","144","A4.jpg","1",".","36","0","129"
"21","21","encoding","encoding","145","B26.jpg","3",".","37","0","167"
"21","21","encoding","encoding","146","B5.jpg","3",".","36","0","38"
"21","21","encoding","encoding","147","A38.jpg","1",".","36","0","1"
"21","21","encoding","encoding","148","B32.jpg","3",".","37","0","447"
"21","21","encoding","encoding","149","B17.jpg","3",".","37","0","503"
"21","21","encoding","encoding","150","B78.jpg","3",".","37","0","508"
"21","21","encoding","encoding","151","A55.jpg","1",".","37","0","503"
"21","21","encoding","encoding","152","B79.jpg","3",".","37","0","629"
"21","21","encoding","encoding","153","A51.jpg","1",".","37","0","504"
"21","21","encoding","encoding","154","B22.jpg","3",".","37","0","510"
"21","21","encoding","encoding","155","A21.jpg","1",".","37","0","569"
"21","21","encoding","encoding","156","B2.jpg","3",".","37","0","400"
"21","21","encoding","encoding","157","B65.jpg","3",".","37","0","366"
"21","21","encoding","encoding","158","A72.jpg","1",".","36","0","525"
"21","21","encoding","encoding","159","B50.jpg","3",".","37","0","435"
"21","21","encoding","encoding","160","B58.jpg","3",".","37","0","466"
"21","21","encoding","encoding","161","B45.jpg","3",".","36","0","465"
"21","21","encoding","encoding","162","B31.jpg","3",".","37","0","463"
"21","21","encoding","encoding","163","B35.jpg","3",".","37","0","457"
"21","21","encoding","encoding","164","A39.jpg","1",".","37","0","624"
"21","21","encoding","encoding","165","A45.jpg","1",".","37","0","327"
"21","21","encoding","encoding","166","B66.jpg","3",".","37","0","53"
"21","21","encoding","encoding","167","B2.jpg","3",".","37","0","60"
"21","21","encoding","encoding","168","B76.jpg","3",".","37","0","234"
"21","21","encoding","encoding","169","B55.jpg","3",".","36","0","48"
"21","21","encoding","encoding","170","B33.jpg","3",".","37","0","231"
"21","21","encoding","encoding","171","B56.jpg","3",".","37","0","38"
"21","21","encoding","encoding","172","B45.jpg","3",".","36","0","164"
"21","21","encoding","encoding","173","A7.jpg","1",".","36","0","135"
"21","21","encoding","encoding","174","A27.jpg","1",".","37","0","45"
"21","21","encoding","encoding","175","B28.jpg","3",".","37","0","83"
"21","21","encoding","encoding","176","A48.jpg","1",".","0","0","1000"
"21","21","encoding","encoding","177","B57.jpg","3",".","0","0","1000"
"21","21","encoding","encoding","178","B79.jpg","3",".","36","0","23"
"21","21","encoding","encoding","179","B22.jpg","3",".","36","0","694"
"21","21","encoding","encoding","180","B55.jpg","3",".","36","0","196"
"21","21","encoding","encoding","181","A43.jpg","1",".","36","0","335"
"21","21","encoding","encoding","182","A35.jpg","1",".","36","0","5"
"21","21","encoding","encoding","183","B32.jpg","3",".","36","0","156"
"21","21","encoding","encoding","184","B6.jpg","3",".","36","0","154"
"21","21","encoding","encoding","185","A64.jpg","1",".","36","0","296"
"21","21","encoding","encoding","186","B35.jpg","3",".","36","0","64"
"21","21","encoding","encoding","187","B41.jpg","3",".","36","0","74"
"21","21","encoding","encoding","188","B62.jpg","3",".","37","0","297"
"21","21","encoding","encoding","189","B8.jpg","3",".","37","0","167"
"21","21","encoding","encoding","190","B64.jpg","3",".","36","0","142"
"21","21","encoding","encoding","191","B17.jpg","3",".","36","0","92"
"21","21","encoding","encoding","192","A78.jpg","1",".","36","0","287"
"21","21","encoding","encoding","193","B33.jpg","3",".","37","0","333"
"21","21","encoding","encoding","194","A31.jpg","1",".","36","0","311"
"21","21","encoding","encoding","195","B11.jpg","3",".","36","0","302"
"21","21","encoding","encoding","196","B60.jpg","3",".","36","0","264"
"21","21","encoding","encoding","197","B43.jpg","3",".","37","0","235"
"21","21","encoding","encoding","199","B2.jpg","3",".","36","0","681"
"21","21","encoding","encoding","200","B78.jpg","3",".","36","0","63"
"21","21","encoding","encoding","201","B43.jpg","3",".","36","0","21"
"21","21","encoding","encoding","202","B69.jpg","3",".","37","0","156"
"21","21","encoding","encoding","203","A12.jpg","1",".","36","0","211"
"21","21","encoding","encoding","204","B37.jpg","3",".","37","0","121"
"21","21","encoding","encoding","205","B50.jpg","3",".","36","0","80"
"21","21","encoding","encoding","206","B51.jpg","3",".","36","0","214"
"21","21","encoding","encoding","207","A25.jpg","1",".","37","0","97"
"21","21","encoding","encoding","208","A3.jpg","1",".","37","0","244"
"21","21","encoding","encoding","209","A26.jpg","1",".","37","0","158"
"21","21","encoding","encoding","210","A29.jpg","1",".","37","0","37"
"21","21","encoding","encoding","211","B50.jpg","3",".","36","0","259"
"21","21","encoding","encoding","212","B41.jpg","3",".","37","0","18"
"21","21","encoding","encoding","213","B24.jpg","3",".","36","0","288"
"21","21","encoding","encoding","214","B1.jpg","3",".","36","0","167"
"21","21","encoding","encoding","215","B65.jpg","3",".","37","0","4"
"21","21","encoding","encoding","216","B43.jpg","3",".","37","0","60"
"21","21","encoding","encoding","217","B56.jpg","3",".","37","0","299"
"21","21","encoding","encoding","218","B51.jpg","3",".","36","0","201"
"21","21","encoding","encoding","219","B16.jpg","3",".","36","0","212"
"21","21","encoding","encoding","220","A77.jpg","1",".","36","0","5"
"21","21","encoding","encoding","221","B39.jpg","3",".","37","0","124"
"21","21","encoding","encoding","222","B61.jpg","3",".","36","0","46"
"21","21","encoding","encoding","223","B35.jpg","3",".","36","0","605"
"21","21","encoding","encoding","224","B3.jpg","3",".","36","0","188"
"21","21","encoding","encoding","225","B15.jpg","3",".","37","0","98"
"21","21","encoding","encoding","226","A9.jpg","1",".","37","0","101"
"21","21","encoding","encoding","227","B63.jpg","3",".","36","0","19"
"21","21","encoding","encoding","228","B16.jpg","3",".","36","0","146"
"21","21","encoding","encoding","229","B59.jpg","3",".","37","0","152"
"21","21","encoding","encoding","230","B70.jpg","3",".","36","0","208"
"21","21","encoding","encoding","231","A61.jpg","1",".","36","0","358"
"21","21","encoding","encoding","232","A67.jpg","1",".","36","0","185"
"21","21","encoding","encoding","233","A59.jpg","1",".","36","0","67"
"21","21","encoding","encoding","234","A75.jpg","1",".","37","0","177"
"21","21","encoding","encoding","235","A41.jpg","1",".","36","0","352"
"21","21","encoding","encoding","236","B67.jpg","3",".","36","0","238"
"21","21","encoding","encoding","237","B0.jpg","3",".","37","0","37"
"21","21","encoding","encoding","238","A49.jpg","1",".","36","0","180"
"21","21","encoding","encoding","239","B62.jpg","3",".","37","0","58"
"21","21","encoding","encoding","240","B68.jpg","3",".","36","0","39"
"21","21","encoding","encoding","241","B73.jpg","3",".","36","0","23"
"21","21","encoding","encoding","242","B74.jpg","3",".","36","0","197"
"21","21","encoding","encoding","243","B74.jpg","3",".","36","0","172"
"21","21","encoding","encoding","244","A58.jpg","1",".","36","0","99"
"21","21","encoding","encoding","245","B14.jpg","3",".","37","0","24"
"21","21","encoding","encoding","246","A69.jpg","1",".","36","0","31"
"21","21","encoding","encoding","247","B30.jpg","3",".","36","0","422"
"21","21","encoding","encoding","248","A47.jpg","1",".","36","0","284"
"21","21","encoding","encoding","249","B61.jpg","3",".","36","0","331"
"21","21","encoding","encoding","250","B27.jpg","3",".","36","0","225"
"21","21","encoding","encoding","251","B67.jpg","3",".","37","0","216"
"21","21","encoding","encoding","252","B14.jpg","3",".","36","0","118"
"21","21","encoding","encoding","253","B77.jpg","3",".","36","0","293"
"21","21","encoding","encoding","254","B30.jpg","3",".","36","0","195"
"21","21","encoding","encoding","255","B36.jpg","3",".","37","0","138"
"21","21","encoding","encoding","256","A36.jpg","1",".","37","0","13"
"21","21","encoding","encoding","257","A70.jpg","1",".","36","0","83"
"21","21","encoding","encoding","258","B74.jpg","3",".","37","0","258"
"21","21","encoding","encoding","259","A79.jpg","1",".","37","0","128"
"21","21","encoding","encoding","260","B63.jpg","3",".","37","0","239"
"21","21","encoding","encoding","261","B44.jpg","3",".","36","0","37"
"21","21","encoding","encoding","262","B18.jpg","3",".","36","0","340"
"21","21","encoding","encoding","263","B48.jpg","3",".","36","0","267"
"21","21","encoding","encoding","265","A63.jpg","1",".","36","0","487"
"21","21","encoding","encoding","266","B59.jpg","3",".","36","0","109"
"21","21","encoding","encoding","267","A16.jpg","1",".","36","0","47"
"21","21","encoding","encoding","268","A10.jpg","1",".","36","0","314"
"21","21","encoding","encoding","269","B27.jpg","3",".","36","0","440"
"21","21","encoding","encoding","270","B60.jpg","3",".","36","0","254"
"21","21","encoding","encoding","271","B37.jpg","3",".","36","0","318"
"21","21","encoding","encoding","272","B0.jpg","3",".","36","0","172"
"21","21","encoding","encoding","273","B34.jpg","3",".","36","0","282"
"21","21","encoding","encoding","274","B69.jpg","3",".","36","0","73"
"21","21","encoding","encoding","275","B68.jpg","3",".","36","0","31"
"21","21","encoding","encoding","276","A2.jpg","1",".","36","0","206"
"21","21","encoding","encoding","277","B9.jpg","3",".","37","0","116"
"21","21","encoding","encoding","278","B38.jpg","3",".","36","0","363"
"21","21","encoding","encoding","279","B41.jpg","3",".","37","0","177"
"21","21","encoding","encoding","280","B79.jpg","3",".","37","0","128"
"21","21","encoding","encoding","281","A37.jpg","1",".","37","0","47"
"21","21","encoding","encoding","282","B29.jpg","3",".","37","0","45"
"21","21","encoding","encoding","283","B20.jpg","3",".","36","0","12"
"21","21","encoding","encoding","284","B23.jpg","3",".","37","0","58"
"21","21","encoding","encoding","285","B5.jpg","3",".","37","0","161"
"21","21","encoding","encoding","286","B21.jpg","3",".","37","0","239"
"21","21","encoding","encoding","287","B21.jpg","3",".","37","0","246"
"21","21","encoding","encoding","288","B60.jpg","3",".","37","0","4"
"21","21","encoding","encoding","289","B72.jpg","3",".","36","0","74"
"21","21","encoding","encoding","290","B38.jpg","3",".","36","0","177"
"21","21","encoding","encoding","291","B3.jpg","3",".","36","0","120"
"21","21","encoding","encoding","292","B25.jpg","3",".","36","0","23"
"21","21","encoding","encoding","293","B18.jpg","3",".","36","0","196"
"21","21","encoding","encoding","294","B48.jpg","3",".","37","0","76"
"21","21","encoding","encoding","295","B62.jpg","3",".","37","0","178"
"21","21","encoding","encoding","296","B33.jpg","3",".","36","0","152"
"21","21","encoding","encoding","297","B40.jpg","3",".","37","0","127"
"21","21","encoding","encoding","298","B54.jpg","3",".","36","0","325"
"21","21","encoding","encoding","299","B28.jpg","3",".","37","0","252"
"21","21","encoding","encoding","300","B73.jpg","3",".","37","0","274"
"21","21","encoding","encoding","301","B61.jpg","3",".","36","0","88"
"21","21","encoding","encoding","302","B32.jpg","3",".","36","0","55"
"21","21","encoding","encoding","303","A8.jpg","1",".","37","0","238"
"21","21","encoding","encoding","304","B25.jpg","3",".","36","0","4"
"21","21","encoding","encoding","305","B65.jpg","3",".","36","0","507"
"21","21","encoding","encoding","306","B18.jpg","3",".","37","0","306"
"21","21","encoding","encoding","307","B64.jpg","3",".","37","0","184"
"21","21","encoding","encoding","308","B10.jpg","3",".","36","0","215"
"21","21","encoding","encoding","309","B37.jpg","3",".","36","0","221"
"21","21","encoding","encoding","310","B42.jpg","3",".","36","0","212"
"21","21","encoding","encoding","311","B16.jpg","3",".","37","0","74"
"21","21","encoding","encoding","312","B34.jpg","3",".","37","0","65"
"21","21","encoding","encoding","313","B6.jpg","3",".","36","0","119"
"21","21","encoding","encoding","314","A17.jpg","1",".","36","0","294"
"21","21","encoding","encoding","315","B17.jpg","3",".","36","0","252"
"21","21","encoding","encoding","316","A33.jpg","1",".","36","0","159"
"21","21","encoding","encoding","317","A18.jpg","1",".","36","0","244"
"21","21","encoding","encoding","318","A74.jpg","1",".","36","0","140"
"21","21","encoding","encoding","319","B11.jpg","3",".","37","0","138"
"21","21","encoding","encoding","320","B52.jpg","3",".","36","0","17"
"21","21","encoding","encoding","321","B0.jpg","3",".","37","0","303"
"21","21","encoding","encoding","322","B1.jpg","3",".","37","0","53"
"21","21","encoding","encoding","323","B71.jpg","3",".","36","0","236"
"21","21","encoding","encoding","324","B14.jpg","3",".","37","0","499"
"21","21","encoding","encoding","325","A73.jpg","",".","36","0","97"
"21","21","retrieval","new_object","1","D58.jpg",".",".","36","0","1695"
"21","21","retrieval","old_object","2","B4.jpg",".","3","37","0","1335"
"21","21","retrieval","old_object","3","A56.jpg",".","1","37","0","671"
"21","21","retrieval","new_object","4","C74.jpg",".",".","36","0","87"
"21","21","retrieval","new_object","5","C9.jpg",".",".","36","0","196"
"21","21","retrieval","old_object","6","B54.jpg",".","3","36","1","140"
"21","21","retrieval","new_object","7","D28.jpg",".",".","37","1","272"
"21","21","retrieval","new_object","8","C40.jpg",".",".","37","1","244"
"21","21","retrieval","new_object","9","C13.jpg",".",".","36","0","25"
"21","21","retrieval","old_object","10","A17.jpg",".","1","37","0","121"
"21","21","retrieval","new_object","11","C16.jpg",".",".","36","0","317"
"21","21","retrieval","old_object","12","A78.jpg",".","1","36","1","333"
"21","21","retrieval","new_object","13","D42.jpg",".",".","36","0","69"
"21","21","retrieval","old_object","14","A18.jpg",".","1","36","1","197"
"21","21","retrieval","old_object","15","A4.jpg",".","1","37","0","213"
"21","21","retrieval","old_object","16","A74.jpg",".","1","37","0","277"
"21","21","retrieval","old_object","17","B20.jpg",".","3","36","1","21"
"21","21","retrieval","new_object","18","D13.jpg",".",".","36","0","318"
"21","21","retrieval","new_object","19","C0.jpg",".",".","37","1","29"
"21","21","retrieval","new_object","20","C47.jpg",".",".","37","1","190"
"21","21","retrieval","old_object","21","B53.jpg",".","3","36","1","78"
"21","21","retrieval","old_object","22","A63.jpg",".","1","36","1","478"
"21","21","retrieval","new_object","23","D2.jpg",".",".","36","0","78"
"21","21","retrieval","old_object","24","A65.jpg",".","1","36","1","271"
"21","21","retrieval","old_object","25","B62.jpg",".","3","36","1","71"
"21","21","retrieval","old_object","26","A43.jpg",".","1","36","1","7"
"21","21","retrieval","old_object","27","B43.jpg",".","3","37","0","183"
"21","21","retrieval","new_object","28","D71.jpg",".",".","37","1","256"
"21","21","retrieval","new_object","29","D29.jpg",".",".","36","0","312"
"21","21","retrieval","new_object","30","C36.jpg",".",".","36","0","63"
"21","21","retrieval","new_object","31","D69.jpg",".",".","37","1","39"
"21","21","retrieval","new_object","32","C49.jpg",".",".","37","1","256"
"21","21","retrieval","old_object","33","A30.jpg",".","1","36","1","872"
"21","21","retrieval","new_object","34","C42.jpg",".",".","36","0","40"
"21","21","retrieval","new_object","35","C25.jpg",".",".","36","0","344"
"21","21","retrieval","old_object","36","A31.jpg",".","1","36","1","112"
"21","21","retrieval","new_object","37","C50.jpg",".",".","36","0","193"
"21","21","retrieval","new_object","38","C3.jpg",".",".","37","1","81"
"21","21","retrieval","old_object","39","B31.jpg",".","3","36","1","377"
"21","21","retrieval","old_object","40","A21.jpg",".","1","36","1","81"
"21","21","retrieval","old_object","41","A69.jpg",".","1","36","1","378"
"21","21","retrieval","new_object","42","D77.jpg",".",".","37","1","58"
"21","21","retrieval","new_object","43","C32.jpg",".",".","36","0","226"
"21","21","retrieval","old_object","44","B71.jpg",".","3","36","1","122"
"21","21","retrieval","new_object","45","C15.jpg",".",".","36","0","241"
"21","21","retrieval","new_object","46","D6.jpg",".",".","37","1","90"
"21","21","retrieval","new_object","47","D51.jpg",".",".","36","0","130"
"21","21","retrieval","old_object","48","A9.jpg",".","1","36","1","282"
"21","21","retrieval","new_object","49","C72.jpg",".",".","36","0","42"
"21","21","retrieval","old_object","50","B26.jpg",".","3","37","0","203"
"21","21","retrieval","new_object","51","D27.jpg",".",".","36","0","98"
"21","21","retrieval","old_object","52","B14.jpg",".","3","36","1","27"
"21","21","retrieval","new_object","53","C60.jpg",".",".","37","1","243"
"21","21","retrieval","old_object","54","A34.jpg",".","1","36","1","299"
"21","21","retrieval","old_object","55","B68.jpg",".","3","36","1","124"
"21","21","retrieval","old_object","56","B55.jpg",".","3","37","0","100"
"21","21","retrieval","new_object","57","D57.jpg",".",".","37","1","17"
"21","21","retrieval","new_object","58","D38.jpg",".",".","37","1","92"
"21","21","retrieval","new_object","59","C54.jpg",".",".","36","0","116"
"21","21","retrieval","old_object","60","A29.jpg",".","1","37","0","373"
"21","21","retrieval","old_object","61","A64.jpg",".","1","36","1","244"
"21","21","retrieval","old_object","62","B67.jpg",".","3","37","0","148"
"21","21","retrieval","new_object","63","C8.jpg",".",".","36","0","28"
"21","21","retrieval","old_object","64","B33.jpg",".","3","37","0","253"
"21","21","retrieval","old_object","65","B2.jpg",".","3","37","0","253"
"21","21","retrieval","new_object","67","D7.jpg",".",".","36","0","422"
"21","21","retrieval","new_object","68","C79.jpg",".",".","36","0","231"
"21","21","retrieval","new_object","69","D18.jpg",".",".","37","1","55"
"21","21","retrieval","old_object","70","B7.jpg",".","3","37","0","87"
"21","21","retrieval","old_object","71","A44.jpg",".","1","36","1","335"
"21","21","retrieval","new_object","72","D32.jpg",".",".","37","1","391"
"21","21","retrieval","old_object","73","B39.jpg",".","3","37","0","112"
"21","21","retrieval","new_object","74","C70.jpg",".",".","36","0","48"
"21","21","retrieval","old_object","75","A16.jpg",".","1","37","0","128"
"21","21","retrieval","old_object","76","A8.jpg",".","1","36","1","111"
"21","21","retrieval","old_object","77","A70.jpg",".","1","37","0","263"
"21","21","retrieval","old_object","78","B44.jpg",".","3","36","1","152"
"21","21","retrieval","old_object","79","A5.jpg",".","1","36","1","16"
"21","21","retrieval","new_object","80","C77.jpg",".",".","36","0","296"
"21","21","retrieval","old_object","81","A0.jpg",".","1","37","0","376"
"21","21","retrieval","old_object","82","B9.jpg",".","3","36","1","49"
"21","21","retrieval","old_object","83","B47.jpg",".","3","36","1","401"
"21","21","retrieval","new_object","84","D1.jpg",".",".","37","1","809"
"21","21","retrieval","new_object","85","D40.jpg",".",".","37","1","417"
"21","21","retrieval","new_object","86","D48.jpg",".",".","36","0","162"
"21","21","retrieval","new_object","87","C73.jpg",".",".","37","1","66"
"21","21","retrieval","old_object","88","A66.jpg",".","1","36","1","322"
"21","21","retrieval","old_object","89","B27.jpg",".","3","36","1","306"
"21","21","retrieval","new_object","90","C28.jpg",".",".","36","0","330"
"21","21","retrieval","new_object","91","D72.jpg",".",".","36","0","186"
"21","21","retrieval","old_object","92","B21.jpg",".","3","36","1","82"
"21","21","retrieval","old_object","93","A27.jpg",".","1","37","0","490"
"21","21","retrieval","old_object","94","A73.jpg",".","1","36","1","314"
"21","21","retrieval","new_object","95","C78.jpg",".",".","37","1","338"
"21","21","retrieval","old_object","96","B59.jpg",".","3","36","1","251"
"21","21","retrieval","old_object","97","A39.jpg",".","1","37","0","355"
"21","21","retrieval","old_object","98","B17.jpg",".","3","36","1","19"
"21","21","retrieval","old_object","99","A19.jpg",".","1","37","0","75"
"21","21","retrieval","new_object","100","D50.jpg",".",".","36","0","148"
"21","21","retrieval","old_object","101","B42.jpg",".","3","37","0","292"
"21","21","retrieval","new_object","102","D31.jpg",".",".","37","1","268"
"21","21","retrieval","old_object","103","A48.jpg",".","1","37","0","283"
"21","21","retrieval","new_object","104","D22.jpg",".",".","37","1","629"
"21","21","retrieval","new_object","105","C75.jpg",".",".","36","0","164"
"21","21","retrieval","new_object","106","C71.jpg",".",".","37","1","237"
"21","21","retrieval","new_object","107","D76.jpg",".",".","36","0","268"
"21","21","retrieval","new_object","108","D33.jpg",".",".","36","0","36"
"21","21","retrieval","new_object","109","C7.jpg",".",".","36","0","437"
"21","21","retrieval","old_object","110","B30.jpg",".","3","36","1","237"
"21","21","retrieval","new_object","111","C39.jpg",".",".","36","0","165"
"21","21","retrieval","old_object","112","B46.jpg",".","3","37","0","29"
"21","21","retrieval","new_object","113","C22.jpg",".",".","36","0","261"
"21","21","retrieval","new_object","114","D8.jpg",".",".","36","0","77"
"21","21","retrieval","old_object","115","B73.jpg",".","3","36","1","254"
"21","21","retrieval","old_object","116","B29.jpg",".","3","36","1","190"
"21","21","retrieval","new_object","117","D43.jpg",".",".","36","0","638"
"21","21","retrieval","old_object","118","A68.jpg",".","1","36","1","158"
"21","21","retrieval","new_object","119","D66.jpg",".",".","36","0","23"
"21","21","retrieval","new_object","120","D74.jpg",".",".","37","1","287"
"21","21","retrieval","old_object","121","B35.jpg",".","3","37","0","87"
"21","21","retrieval","old_object","122","B65.jpg",".","3","37","0","47"
"21","21","retrieval","new_object","123","C34.jpg",".",".","36","0","299"
"21","21","retrieval","new_object","124","D36.jpg",".",".","36","0","1095"
"21","21","retrieval","new_object","125","C52.jpg",".",".","36","0","163"
"21","21","retrieval","new_object","126","D56.jpg",".",".","36","0","143"
"21","21","retrieval","old_object","127","A79.jpg",".","1","37","0","376"
"21","21","retrieval","new_object","128","D39.jpg",".",".","37","1","100"
"21","21","retrieval","new_object","129","D54.jpg",".",".","37","1","48"
"21","21","retrieval","new_object","130","C38.jpg",".",".","36","0","40"
"21","21","retrieval","new_object","131","D9.jpg",".",".","36","0","293"
"21","21","retrieval","old_object","133","A33.jpg",".","1","36","1","1944"
"21","21","retrieval","old_object","134","A7.jpg",".","1","36","1","88"
"21","21","retrieval","old_object","135","A22.jpg",".","1","36","1","376"
"21","21","retrieval","new_object","136","C2.jpg",".",".","37","1","76"
"21","21","retrieval","old_object","137","B22.jpg",".","3","37","0","268"
"21","21","retrieval","old_object","138","B12.jpg",".","3","36","1","277"
"21","21","retrieval","old_object","139","A62.jpg",".","1","37","0","196"
"21","21","retrieval","new_object","140","C31.jpg",".",".","37","1","160"
"21","21","retrieval","old_object","141","B66.jpg",".","3","36","1","33"
"21","21","retrieval","new_object","142","D41.jpg",".",".","36","0","61"
"21","21","retrieval","old_object","143","A59.jpg",".","1","37","0","109"
"21","21","retrieval","new_object","144","D53.jpg",".",".","37","1","213"
"21","21","retrieval","old_object","145","A38.jpg",".","1","36","1","37"
"21","21","retrieval","new_object","146","C64.jpg",".",".","37","1","222"
"21","21","retrieval","old_object","147","B1.jpg",".","3","36","1","102"
"21","21","retrieval","new_object","148","C76.jpg",".",".","36","0","30"
"21","21","retrieval","new_object","149","D14.jpg",".",".","36","0","242"
"21","21","retrieval","old_object","150","B61.jpg",".","3","36","1","11"
"21","21","retrieval","new_object","151","D17.jpg",".",".","36","0","190"
"21","21","retrieval","new_object","152","D35.jpg",".",".","0","0","2000"
"21","21","retrieval","old_object","153","A77.jpg",".","1","0","0","2000"
"21","21","retrieval","new_object","154","D4.jpg",".",".","36","0","1455"
"21","21","retrieval","new_object","155","C29.jpg",".",".","36","0","259"
"21","21","retrieval","old_object","156","B69.jpg",".","3","37","0","203"
"21","21","retrieval","new_object","157","C12.jpg",".",".","36","0","667"
"21","21","retrieval","new_object","158","D21.jpg",".",".","37","1","306"
"21","21","retrieval","new_object","159","D23.jpg",".",".","37","1","136"
"21","21","retrieval","old_object","160","A2.jpg",".","1","37","0","120"
"21","21","retrieval","old_object","161","B56.jpg",".","3","36","1","312"
"21","21","retrieval","new_object","162","D24.jpg",".",".","36","0","148"
"21","21","retrieval","new_object","163","C66.jpg",".",".","36","0","145"
"21","21","retrieval","old_object","164","A32.jpg",".","1","36","1","321"
"21","21","retrieval","old_object","165","B74.jpg",".","3","36","1","177"
"21","21","retrieval","new_object","166","C45.jpg",".",".","37","1","64"
"21","21","retrieval","new_object","167","D62.jpg",".",".","36","0","134"
"21","21","retrieval","new_object","168","C44.jpg",".",".","37","1","241"
"21","21","retrieval","old_object","169","B58.jpg",".","3","37","0","121"
"21","21","retrieval","old_object","170","B78.jpg",".","3","36","1","217"
"21","21","retrieval","old_object","171","B8.jpg",".","3","37","0","218"
"21","21","retrieval","old_object","172","A76.jpg",".","1","36","1","209"
"21","21","retrieval","new_object","173","C43.jpg",".",".","37","1","298"
"21","21","retrieval","old_object","174","B3.jpg",".","3","36","1","202"
"21","21","retrieval","new_object","175","C1.jpg",".",".","37","1","346"
"21","21","retrieval","new_object","176","C67.jpg",".",".","36","0","303"
"21","21","retrieval","new_object","177","D63.jpg",".",".","36","0","411"
"21","21","retrieval","new_object","178","C37.jpg",".",".","37","1","27"
"21","21","retrieval","old_object","179","A52.jpg",".","1","37","0","191"
"21","21","retrieval","old_object","180","B51.jpg",".","3","37","0","543"
"21","21","retrieval","new_object","181","D79.jpg",".",".","0","0","2000"
"21","21","retrieval","old_object","182","B70.jpg",".","3","0","0","2000"
"21","21","retrieval","old_object","183","B75.jpg",".","3","0","0","2000"
"21","21","retrieval","new_object","184","C21.jpg",".",".","0","0","2000"
"21","21","retrieval","new_object","185","C4.jpg",".",".","0","0","2000"
"21","21","retrieval","old_object","186","A25.jpg",".","1","0","0","2000"
"21","21","retrieval","old_object","187","A51.jpg",".","1","0","0","2000"
"21","21","retrieval","new_object","188","D60.jpg",".",".","0","0","2000"
"21","21","retrieval","old_object","189","B16.jpg",".","3","0","0","2000"
"21","21","retrieval","new_object","190","D37.jpg",".",".","0","0","2000"
"21","21","retrieval","old_object","191","B63.jpg",".","3","0","0","2000"
"21","21","retrieval","new_object","192","C68.jpg",".",".","0","0","2000"
"21","21","retrieval","old_object","193","B13.jpg",".","3","0","0","2000"
"21","21","retrieval","old_object","194","A1.jpg",".","1","0","0","2000"
"21","21","retrieval","new_object","195","C23.jpg",".",".","0","0","2000"
"21","21","retrieval","new_object","196","D12.jpg",".",".","0","0","2000"
"21","21","retrieval","old_object","197","B48.jpg",".","3","0","0","2000"
"21","21","retrieval","old_object","199","B28.jpg",".","3","0","0","2000"
"21","21","retrieval","new_object","200","D20.jpg",".",".","0","0","2000"
"21","21","retrieval","new_object","201","C58.jpg",".",".","0","0","2000"
"21","21","retrieval","old_object","202","B60.jpg",".","3","0","0","2000"
"21","21","retrieval","old_object","203","B40.jpg",".","3","0","0","2000"
"21","21","retrieval","old_object","204","A26.jpg",".","1","0","0","2000"
"21","21","retrieval","new_object","205","C5.jpg",".",".","0","0","2000"
"21","21","retrieval","old_object","206","A60.jpg",".","1","0","0","2000"
"21","21","retrieval","new_object","207","C18.jpg",".",".","0","0","2000"
"21","21","retrieval","new_object","208","D59.jpg",".",".","0","0","2000"
"21","21","retrieval","old_object","209","A50.jpg",".","1","0","0","2000"
"21","21","retrieval","new_object","210","C27.jpg",".",".","0","0","2000"
"21","21","retrieval","old_object","211","B19.jpg",".","3","0","0","2000"
"21","21","retrieval","old_object","212","B41.jpg",".","3","0","0","2000"
"21","21","retrieval","new_object","213","D15.jpg",".",".","36","0","343"
"21","21","retrieval","old_object","214","B45.jpg",".","3","37","0","171"
"21","21","retrieval","new_object","215","C41.jpg",".",".","37","1","91"
"21","21","retrieval","old_object","216","A57.jpg",".","1","37","0","208"
"21","21","retrieval","new_object","217","D16.jpg",".",".","36","0","124"
"21","21","retrieval","old_object","218","B0.jpg",".","3","37","0","204"
"21","21","retrieval","new_object","219","D26.jpg",".",".","37","1","232"
"21","21","retrieval","old_object","220","A11.jpg",".","1","37","0","69"
"21","21","retrieval","new_object","221","D75.jpg",".",".","37","1","9"
"21","21","retrieval","old_object","222","A3.jpg",".","1","37","0","57"
"21","21","retrieval","old_object","223","A12.jpg",".","1","37","0","101"
"21","21","retrieval","new_object","224","D52.jpg",".",".","37","1","234"
"21","21","retrieval","new_object","225","D46.jpg",".",".","36","0","66"
"21","21","retrieval","new_object","226","D65.jpg",".",".","37","1","157"
"21","21","retrieval","old_object","227","A41.jpg",".","1","36","1","161"
"21","21","retrieval","old_object","228","A20.jpg",".","1","36","1","150"
"21","21","retrieval","new_object","229","C17.jpg",".",".","37","1","53"
"21","21","retrieval","new_object","230","C26.jpg",".",".","37","1","42"
"21","21","retrieval","old_object","231","B11.jpg",".","3","37","0","62"
"21","21","retrieval","new_object","232","D34.jpg",".",".","37","1","54"
"21","21","retrieval","new_object","233","C55.jpg",".",".","36","0","155"
"21","21","retrieval","new_object","234","C20.jpg",".",".","36","0","183"
"21","21","retrieval","new_object","235","C56.jpg",".",".","37","1","115"
"21","21","retrieval","new_object","236","C57.jpg",".",".","36","0","59"
"21","21","retrieval","new_object","237","D78.jpg",".",".","37","1","72"
"21","21","retrieval","old_object","238","A35.jpg",".","1","37","0","108"
"21","21","retrieval","old_object","239","A55.jpg",".","1","36","1","44"
"21","21","retrieval","new_object","240","D5.jpg",".",".","37","1","57"
"21","21","retrieval","new_object","241","C62.jpg",".",".","37","1","124"
"21","21","retrieval","old_object","242","A10.jpg",".","1","37","0","216"
"21","21","retrieval","old_object","243","B50.jpg",".","3","36","1","216"
"21","21","retrieval","old_object","244","A15.jpg",".","1","37","0","77"
"21","21","retrieval","old_object","245","B38.jpg",".","3","37","0","9"
"21","21","retrieval","old_object","246","B37.jpg",".","3","36","1","1"
"21","21","retrieval","new_object","247","C59.jpg",".",".","37","1","21"
"21","21","retrieval","old_object","248","A61.jpg",".","1","37","0","169"
"21","21","retrieval","new_object","249","C51.jpg",".",".","37","1","65"
"21","21","retrieval","old_object","250","A67.jpg",".","1","36","1","36"
"21","21","retrieval","old_object","251","A54.jpg",".","1","36","1","82"
"21","21","retrieval","old_object","252","A24.jpg",".","1","37","0","190"
"21","21","retrieval","old_object","253","B18.jpg",".","3","36","1","67"
"21","21","retrieval","new_object","254","C14.jpg",".",".","37","1","126"
"21","21","retrieval","new_object","255","C61.jpg",".",".","37","1","171"
"21","21","retrieval","old_object","256","A23.jpg",".","1","36","1","70"
"21","21","retrieval","old_object","257","A72.jpg",".","1","37","0","99"
"21","21","retrieval","old_object","258","A42.jpg",".","1","37","0","236"
"21","21","retrieval","new_object","259","C33.jpg",".",".","37","1","99"
"21","21","retrieval","old_object","260","B57.jpg",".","3","37","0","283"
"21","21","retrieval","old_object","261","B25.jpg",".","3","36","1","28"
"21","21","retrieval","new_object","262","D70.jpg",".",".","36","0","56"
"21","21","retrieval","new_object","263","C30.jpg",".",".","37","1","132"
"21","21","retrieval","new_object","265","C10.jpg",".",".","37","1","640"
"21","21","retrieval","new_object","266","D67.jpg",".",".","37","1","1580"
"21","21","retrieval","old_object","267","B77.jpg",".","3","37","0","24"
"21","21","retrieval","new_object","268","D73.jpg",".",".","37","1","156"
"21","21","retrieval","new_object","269","D3.jpg",".",".","36","0","121"
"21","21","retrieval","old_object","270","A47.jpg",".","1","37","0","15"
"21","21","retrieval","old_object","271","A75.jpg",".","1","36","1","85"
"21","21","retrieval","new_object","272","C35.jpg",".",".","37","1","32"
"21","21","retrieval","old_object","273","A46.jpg",".","1","36","1","168"
"21","21","retrieval","new_object","274","D11.jpg",".",".","37","1","53"
"21","21","retrieval","new_object","275","D64.jpg",".",".","37","1","65"
"21","21","retrieval","old_object","276","B23.jpg",".","3","37","0","37"
"21","21","retrieval","new_object","277","D19.jpg",".",".","36","0","37"
"21","21","retrieval","new_object","278","C6.jpg",".",".","37","1","218"
"21","21","retrieval","new_object","279","D47.jpg",".",".","36","0","30"
"21","21","retrieval","old_object","280","B32.jpg",".","3","37","0","22"
"21","21","retrieval","old_object","281","B34.jpg",".","3","36","1","154"
"21","21","retrieval","old_object","282","B49.jpg",".","3","36","1","191"
"21","21","retrieval","old_object","283","B6.jpg",".","3","37","0","203"
"21","21","retrieval","new_object","284","C19.jpg",".",".","37","1","11"
"21","21","retrieval","old_object","285","A45.jpg",".","1","37","0","239"
"21","21","retrieval","old_object","286","B15.jpg",".","3","37","0","100"
"21","21","retrieval","old_object","287","A13.jpg",".","1","37","0","163"
"21","21","retrieval","old_object","288","A36.jpg",".","1","36","1","22"
"21","21","retrieval","old_object","289","B72.jpg",".","3","37","0","51"
"21","21","retrieval","old_object","290","A40.jpg",".","1","36","1","32"
"21","21","retrieval","new_object","291","C53.jpg",".",".","36","0","200"
"21","21","retrieval","new_object","292","D0.jpg",".",".","37","1","180"
"21","21","retrieval","old_object","293","A58.jpg",".","1","36","1","72"
"21","21","retrieval","old_object","294","A71.jpg",".","1","36","1","41"
"21","21","retrieval","old_object","295","A14.jpg",".","1","37","0","117"
"21","21","retrieval","old_object","296","B64.jpg",".","3","37","0","169"
"21","21","retrieval","old_object","297","A6.jpg",".","1","37","0","157"
"21","21","retrieval","old_object","298","B36.jpg",".","3","36","1","36"
"21","21","retrieval","new_object","299","C65.jpg",".",".","37","1","17"
"21","21","retrieval","new_object","300","D44.jpg",".",".","36","0","102"
"21","21","retrieval","new_object","301","C69.jpg",".",".","36","0","78"
"21","21","retrieval","old_object","302","B24.jpg",".","3","37","0","171"
"21","21","retrieval","new_object","303","D68.jpg",".",".","36","0","7"
"21","21","retrieval","new_object","304","C46.jpg",".",".","36","0","157"
"21","21","retrieval","old_object","305","B76.jpg",".","3","36","1","2"
"21","21","retrieval","new_object","306","D49.jpg",".",".","37","1","55"
"21","21","retrieval","new_object","307","D55.jpg",".",".","36","0","59"
"21","21","retrieval","new_object","308","C48.jpg",".",".","36","0","169"
"21","21","retrieval","old_object","309","A53.jpg",".","1","37","0","15"
"21","21","retrieval","new_object","310","D10.jpg",".",".","37","1","147"
"21","21","retrieval","old_object","311","B10.jpg",".","3","37","0","12"
"21","21","retrieval","new_object","312","C24.jpg",".",".","37","1","88"
"21","21","retrieval","old_object","313","B79.jpg",".","3","37","0","228"
"21","21","retrieval","old_object","314","A49.jpg",".","1","37","0","84"
"21","21","retrieval","old_object","315","A28.jpg",".","1","36","1","57"
"21","21","retrieval","new_object","316","C11.jpg",".",".","37","1","9"
"21","21","retrieval","new_object","317","D61.jpg",".",".","37","1","65"
"21","21","retrieval","old_object","318","B5.jpg",".","3","37","0","245"
"21","21","retrieval","old_object","319","B52.jpg",".","3","37","0","221"
"21","21","retrieval","new_object","320","D45.jpg",".",".","36","0","33"
"21","21","retrieval","new_object","321","C63.jpg",".",".","37","1","205"
"21","21","retrieval","new_object","322","D30.jpg",".",".","37","1","189"
"21","21","retrieval","new_object","323","D25.jpg",".",".","37","1","46"
"21","21","retrieval","old_object","324","A37.jpg",".","1","37","0","170"
"21","21","retrieval","new_object","325","D76.jpg",".",".","37","1","10"
"21","21","demographics_block","gender","1",".",".",".","male","1","24843"
"21","21","demographics_block","age","1",".",".",".","30","1","24843"
"21","21","demographics_block","education","1",".",".",".","master","1","24843"
"21","21","demographics_block","left_right_handed","2",".",".",".","Left","1","13481"
"21","21","demographics_block","raceoption1","2",".",".",".","","1","13481"
"21","21","demographics_block","raceoption2","2",".",".",".","","1","13481"
"21","21","demographics_block","raceoption3","2",".",".",".","2","1","13481"
"21","21","demographics_block","raceoption4","2",".",".",".","","1","13481"
"21","21","demographics_block","raceoption5","2",".",".",".","","1","13481"
"21","21","demographics_block","raceoption6","2",".",".",".","","1","13481"
"21","21","demographics_block","raceoption7","2",".",".",".","","1","13481"
"21","21","demographics_block","raceoption8","2",".",".",".","","1","13481"
"21","21","demographics_block","raceoption9","2",".",".",".","","1","13481"
"21","21","demographics_block","raceother","2",".",".",".","","1","13481"
"21","21","demographics_block","raceother","2",".",".",".","","1","13481"
"21","21","demographics_block","english_language","2",".",".",".","Yes","1","13481"
"21","21","demographics_block","other","2",".",".",".","","1","13481"
"21","21","demographics_block","eyesight","3",".",".",".","Yes","1","7075"
"21","21","demographics_block","colorblind","3",".",".",".","Yes","1","7075"
