"group","subject","blockcode","trialcode","trialnum","stimulus","encoding_condition","old_object_condition","response","correct","latency"
"10","10","encoding","encoding","1","D43.jpg","3",".","37","0","987"
"10","10","encoding","encoding","2","D60.jpg","3",".","36","0","840"
"10","10","encoding","encoding","3","D22.jpg","3",".","37","0","733"
"10","10","encoding","encoding","4","D66.jpg","3",".","0","0","1000"
"10","10","encoding","encoding","5","D16.jpg","3",".","37","0","512"
"10","10","encoding","encoding","6","C74.jpg","1",".","0","0","1000"
"10","10","encoding","encoding","7","D73.jpg","3",".","37","0","539"
"10","10","encoding","encoding","8","D16.jpg","3",".","37","0","568"
"10","10","encoding","encoding","9","D7.jpg","3",".","37","0","550"
"10","10","encoding","encoding","10","C69.jpg","1",".","37","0","603"
"10","10","encoding","encoding","11","D7.jpg","3",".","37","0","736"
"10","10","encoding","encoding","12","D45.jpg","3",".","0","0","1000"
"10","10","encoding","encoding","13","D33.jpg","3",".","37","0","987"
"10","10","encoding","encoding","14","D15.jpg","3",".","37","0","552"
"10","10","encoding","encoding","15","C47.jpg","1",".","36","0","430"
"10","10","encoding","encoding","16","C60.jpg","1",".","37","0","747"
"10","10","encoding","encoding","17","D8.jpg","3",".","37","0","513"
"10","10","encoding","encoding","18","D35.jpg","3",".","37","0","622"
"10","10","encoding","encoding","19","C33.jpg","1",".","37","0","707"
"10","10","encoding","encoding","20","C73.jpg","1",".","36","0","785"
"10","10","encoding","encoding","21","D68.jpg","3",".","37","0","782"
"10","10","encoding","encoding","22","D17.jpg","3",".","37","0","835"
"10","10","encoding","encoding","23","C12.jpg","1",".","37","0","601"
"10","10","encoding","encoding","24","D21.jpg","3",".","37","0","734"
"10","10","encoding","encoding","25","D48.jpg","3",".","37","0","571"
"10","10","encoding","encoding","26","C11.jpg","1",".","37","0","633"
"10","10","encoding","encoding","27","C14.jpg","1",".","37","0","702"
"10","10","encoding","encoding","28","D58.jpg","3",".","0","0","1000"
"10","10","encoding","encoding","29","D63.jpg","3",".","37","0","673"
"10","10","encoding","encoding","30","D29.jpg","3",".","37","0","526"
"10","10","encoding","encoding","31","D27.jpg","3",".","37","0","492"
"10","10","encoding","encoding","32","D50.jpg","3",".","37","0","513"
"10","10","encoding","encoding","33","C27.jpg","1",".","37","0","686"
"10","10","encoding","encoding","34","D71.jpg","3",".","37","0","660"
"10","10","encoding","encoding","35","C36.jpg","1",".","37","0","592"
"10","10","encoding","encoding","36","C16.jpg","1",".","37","0","646"
"10","10","encoding","encoding","37","D23.jpg","3",".","37","0","636"
"10","10","encoding","encoding","38","D6.jpg","3",".","37","0","537"
"10","10","encoding","encoding","39","C63.jpg","1",".","37","0","503"
"10","10","encoding","encoding","40","C53.jpg","1",".","37","0","620"
"10","10","encoding","encoding","41","D6.jpg","3",".","37","0","529"
"10","10","encoding","encoding","42","C26.jpg","1",".","37","0","495"
"10","10","encoding","encoding","43","D6.jpg","3",".","37","0","507"
"10","10","encoding","encoding","44","D19.jpg","3",".","37","0","776"
"10","10","encoding","encoding","45","D58.jpg","3",".","36","0","822"
"10","10","encoding","encoding","46","D61.jpg","3",".","0","0","1000"
"10","10","encoding","encoding","47","C58.jpg","1",".","37","0","696"
"10","10","encoding","encoding","48","C35.jpg","1",".","37","0","566"
"10","10","encoding","encoding","49","D40.jpg","3",".","37","0","507"
"10","10","encoding","encoding","50","D13.jpg","3",".","37","0","473"
"10","10","encoding","encoding","51","D76.jpg","3",".","37","0","582"
"10","10","encoding","encoding","52","D39.jpg","3",".","37","0","475"
"10","10","encoding","encoding","53","D49.jpg","3",".","36","0","849"
"10","10","encoding","encoding","54","D62.jpg","3",".","0","0","1000"
"10","10","encoding","encoding","55","D12.jpg","3",".","37","0","659"
"10","10","encoding","encoding","56","D57.jpg","3",".","36","0","769"
"10","10","encoding","encoding","57","D41.jpg","3",".","36","0","966"
"10","10","encoding","encoding","58","C67.jpg","1",".","36","0","691"
"10","10","encoding","encoding","59","D51.jpg","3",".","37","0","825"
"10","10","encoding","encoding","60","D31.jpg","3",".","37","0","606"
"10","10","encoding","encoding","61","C62.jpg","1",".","37","0","468"
"10","10","encoding","encoding","62","D70.jpg","3",".","37","0","657"
"10","10","encoding","encoding","63","D14.jpg","3",".","37","0","662"
"10","10","encoding","encoding","64","C38.jpg","1",".","37","0","548"
"10","10","encoding","encoding","65","C5.jpg","1",".","37","0","553"
"10","10","encoding","encoding","67","C61.jpg","1",".","0","0","1000"
"10","10","encoding","encoding","68","D28.jpg","3",".","37","0","606"
"10","10","encoding","encoding","69","D32.jpg","3",".","37","0","483"
"10","10","encoding","encoding","70","D38.jpg","3",".","37","0","480"
"10","10","encoding","encoding","71","D20.jpg","3",".","37","0","462"
"10","10","encoding","encoding","72","D37.jpg","3",".","37","0","491"
"10","10","encoding","encoding","73","D60.jpg","3",".","37","0","592"
"10","10","encoding","encoding","74","D72.jpg","3",".","0","0","1000"
"10","10","encoding","encoding","75","D3.jpg","3",".","37","0","651"
"10","10","encoding","encoding","76","D38.jpg","3",".","37","0","633"
"10","10","encoding","encoding","77","C23.jpg","1",".","37","0","630"
"10","10","encoding","encoding","78","C76.jpg","1",".","37","0","627"
"10","10","encoding","encoding","79","D64.jpg","3",".","37","0","737"
"10","10","encoding","encoding","80","D37.jpg","3",".","37","0","550"
"10","10","encoding","encoding","81","D40.jpg","3",".","37","0","435"
"10","10","encoding","encoding","82","D9.jpg","3",".","37","0","416"
"10","10","encoding","encoding","83","D18.jpg","3",".","37","0","598"
"10","10","encoding","encoding","84","D55.jpg","3",".","37","0","595"
"10","10","encoding","encoding","85","D14.jpg","3",".","37","0","673"
"10","10","encoding","encoding","86","C52.jpg","1",".","37","0","573"
"10","10","encoding","encoding","87","D4.jpg","3",".","37","0","530"
"10","10","encoding","encoding","88","D65.jpg","3",".","37","0","433"
"10","10","encoding","encoding","89","D24.jpg","3",".","37","0","485"
"10","10","encoding","encoding","90","D22.jpg","3",".","37","0","355"
"10","10","encoding","encoding","91","D69.jpg","3",".","36","0","987"
"10","10","encoding","encoding","92","D60.jpg","3",".","37","0","725"
"10","10","encoding","encoding","93","D32.jpg","3",".","37","0","635"
"10","10","encoding","encoding","94","C31.jpg","1",".","37","0","496"
"10","10","encoding","encoding","95","D56.jpg","3",".","37","0","541"
"10","10","encoding","encoding","96","D35.jpg","3",".","37","0","475"
"10","10","encoding","encoding","97","D46.jpg","3",".","37","0","528"
"10","10","encoding","encoding","98","C17.jpg","1",".","37","0","517"
"10","10","encoding","encoding","99","D36.jpg","3",".","37","0","556"
"10","10","encoding","encoding","100","D2.jpg","3",".","37","0","520"
"10","10","encoding","encoding","101","D15.jpg","3",".","37","0","550"
"10","10","encoding","encoding","102","C21.jpg","1",".","37","0","515"
"10","10","encoding","encoding","103","D5.jpg","3",".","37","0","440"
"10","10","encoding","encoding","104","D39.jpg","3",".","37","0","438"
"10","10","encoding","encoding","105","C45.jpg","1",".","37","0","419"
"10","10","encoding","encoding","106","D42.jpg","3",".","37","0","416"
"10","10","encoding","encoding","107","D63.jpg","3",".","37","0","390"
"10","10","encoding","encoding","108","D30.jpg","3",".","36","0","819"
"10","10","encoding","encoding","109","D59.jpg","3",".","37","0","496"
"10","10","encoding","encoding","110","D28.jpg","3",".","37","0","462"
"10","10","encoding","encoding","111","C42.jpg","1",".","37","0","467"
"10","10","encoding","encoding","112","D43.jpg","3",".","37","0","537"
"10","10","encoding","encoding","113","C44.jpg","1",".","37","0","430"
"10","10","encoding","encoding","114","D53.jpg","3",".","37","0","651"
"10","10","encoding","encoding","115","D10.jpg","3",".","36","0","721"
"10","10","encoding","encoding","116","C79.jpg","1",".","36","0","598"
"10","10","encoding","encoding","117","C7.jpg","1",".","36","0","507"
"10","10","encoding","encoding","118","D39.jpg","3",".","37","0","625"
"10","10","encoding","encoding","119","D50.jpg","3",".","37","0","710"
"10","10","encoding","encoding","120","D5.jpg","3",".","37","0","547"
"10","10","encoding","encoding","121","D44.jpg","3",".","37","0","569"
"10","10","encoding","encoding","122","C25.jpg","1",".","37","0","486"
"10","10","encoding","encoding","123","D56.jpg","3",".","37","0","388"
"10","10","encoding","encoding","124","D18.jpg","3",".","37","0","353"
"10","10","encoding","encoding","125","D74.jpg","3",".","37","0","326"
"10","10","encoding","encoding","126","D10.jpg","3",".","37","0","340"
"10","10","encoding","encoding","127","D67.jpg","3",".","36","0","777"
"10","10","encoding","encoding","128","D44.jpg","3",".","37","0","638"
"10","10","encoding","encoding","129","D78.jpg","3",".","37","0","556"
"10","10","encoding","encoding","130","C71.jpg","1",".","37","0","577"
"10","10","encoding","encoding","131","D34.jpg","3",".","0","0","1000"
"10","10","encoding","encoding","133","D3.jpg","3",".","37","0","628"
"10","10","encoding","encoding","134","D42.jpg","3",".","37","0","441"
"10","10","encoding","encoding","135","D61.jpg","3",".","36","0","535"
"10","10","encoding","encoding","136","D26.jpg","3",".","37","0","556"
"10","10","encoding","encoding","137","D57.jpg","3",".","36","0","624"
"10","10","encoding","encoding","138","C19.jpg","1",".","36","0","415"
"10","10","encoding","encoding","139","C56.jpg","1",".","37","0","907"
"10","10","encoding","encoding","140","D77.jpg","3",".","37","0","537"
"10","10","encoding","encoding","141","D5.jpg","3",".","37","0","535"
"10","10","encoding","encoding","142","C37.jpg","1",".","37","0","707"
"10","10","encoding","encoding","143","C70.jpg","1",".","37","0","584"
"10","10","encoding","encoding","144","D67.jpg","3",".","36","0","686"
"10","10","encoding","encoding","145","C30.jpg","1",".","37","0","516"
"10","10","encoding","encoding","146","C75.jpg","1",".","37","0","529"
"10","10","encoding","encoding","147","D50.jpg","3",".","37","0","630"
"10","10","encoding","encoding","148","D10.jpg","3",".","36","0","595"
"10","10","encoding","encoding","149","D46.jpg","3",".","37","0","545"
"10","10","encoding","encoding","150","C46.jpg","1",".","37","0","502"
"10","10","encoding","encoding","151","D26.jpg","3",".","36","0","619"
"10","10","encoding","encoding","152","D11.jpg","3",".","37","0","497"
"10","10","encoding","encoding","153","D3.jpg","3",".","37","0","550"
"10","10","encoding","encoding","154","D66.jpg","3",".","37","0","467"
"10","10","encoding","encoding","155","D1.jpg","3",".","0","0","1000"
"10","10","encoding","encoding","156","D31.jpg","3",".","37","0","374"
"10","10","encoding","encoding","157","D52.jpg","3",".","37","0","388"
"10","10","encoding","encoding","158","D67.jpg","3",".","36","0","561"
"10","10","encoding","encoding","159","D54.jpg","3",".","36","0","614"
"10","10","encoding","encoding","160","C0.jpg","1",".","36","0","692"
"10","10","encoding","encoding","161","D23.jpg","3",".","37","0","625"
"10","10","encoding","encoding","162","D42.jpg","3",".","37","0","590"
"10","10","encoding","encoding","163","C59.jpg","1",".","37","0","660"
"10","10","encoding","encoding","164","D0.jpg","3",".","37","0","777"
"10","10","encoding","encoding","165","D62.jpg","3",".","37","0","638"
"10","10","encoding","encoding","166","C66.jpg","1",".","37","0","444"
"10","10","encoding","encoding","167","D8.jpg","3",".","37","0","577"
"10","10","encoding","encoding","168","D11.jpg","3",".","37","0","398"
"10","10","encoding","encoding","169","D47.jpg","3",".","37","0","444"
"10","10","encoding","encoding","170","D78.jpg","3",".","37","0","417"
"10","10","encoding","encoding","171","D51.jpg","3",".","37","0","551"
"10","10","encoding","encoding","172","C3.jpg","1",".","37","0","524"
"10","10","encoding","encoding","173","D73.jpg","3",".","37","0","449"
"10","10","encoding","encoding","174","D36.jpg","3",".","37","0","527"
"10","10","encoding","encoding","175","D52.jpg","3",".","37","0","572"
"10","10","encoding","encoding","176","C77.jpg","1",".","36","0","513"
"10","10","encoding","encoding","177","D45.jpg","3",".","36","0","543"
"10","10","encoding","encoding","178","D29.jpg","3",".","36","0","684"
"10","10","encoding","encoding","179","D47.jpg","3",".","37","0","529"
"10","10","encoding","encoding","180","D37.jpg","3",".","37","0","535"
"10","10","encoding","encoding","181","D15.jpg","3",".","37","0","500"
"10","10","encoding","encoding","182","D12.jpg","3",".","37","0","410"
"10","10","encoding","encoding","183","C24.jpg","1",".","37","0","615"
"10","10","encoding","encoding","184","D9.jpg","3",".","37","0","500"
"10","10","encoding","encoding","185","C39.jpg","1",".","37","0","434"
"10","10","encoding","encoding","186","D29.jpg","3",".","36","0","575"
"10","10","encoding","encoding","187","C4.jpg","1",".","37","0","444"
"10","10","encoding","encoding","188","C49.jpg","1",".","37","0","450"
"10","10","encoding","encoding","189","D53.jpg","3",".","37","0","423"
"10","10","encoding","encoding","190","D64.jpg","3",".","37","0","500"
"10","10","encoding","encoding","191","D73.jpg","3",".","37","0","434"
"10","10","encoding","encoding","192","D45.jpg","3",".","36","0","559"
"10","10","encoding","encoding","193","D75.jpg","3",".","36","0","596"
"10","10","encoding","encoding","194","D17.jpg","3",".","37","0","729"
"10","10","encoding","encoding","195","D76.jpg","3",".","37","0","902"
"10","10","encoding","encoding","196","D64.jpg","3",".","37","0","820"
"10","10","encoding","encoding","197","D24.jpg","3",".","37","0","641"
"10","10","encoding","encoding","199","D59.jpg","3",".","37","0","810"
"10","10","encoding","encoding","200","D77.jpg","3",".","37","0","592"
"10","10","encoding","encoding","201","C48.jpg","1",".","37","0","509"
"10","10","encoding","encoding","202","D74.jpg","3",".","37","0","338"
"10","10","encoding","encoding","203","D79.jpg","3",".","37","0","463"
"10","10","encoding","encoding","204","C54.jpg","1",".","37","0","437"
"10","10","encoding","encoding","205","D70.jpg","3",".","37","0","498"
"10","10","encoding","encoding","206","C13.jpg","1",".","37","0","367"
"10","10","encoding","encoding","207","D78.jpg","3",".","37","0","413"
"10","10","encoding","encoding","208","D34.jpg","3",".","37","0","402"
"10","10","encoding","encoding","209","D38.jpg","3",".","37","0","423"
"10","10","encoding","encoding","210","D25.jpg","3",".","37","0","389"
"10","10","encoding","encoding","211","D31.jpg","3",".","37","0","618"
"10","10","encoding","encoding","212","D53.jpg","3",".","37","0","552"
"10","10","encoding","encoding","213","C9.jpg","1",".","37","0","789"
"10","10","encoding","encoding","214","D63.jpg","3",".","37","0","554"
"10","10","encoding","encoding","215","D28.jpg","3",".","37","0","768"
"10","10","encoding","encoding","216","C1.jpg","1",".","37","0","677"
"10","10","encoding","encoding","217","D57.jpg","3",".","36","0","682"
"10","10","encoding","encoding","218","D41.jpg","3",".","36","0","656"
"10","10","encoding","encoding","219","D55.jpg","3",".","37","0","581"
"10","10","encoding","encoding","220","D18.jpg","3",".","37","0","538"
"10","10","encoding","encoding","221","D66.jpg","3",".","37","0","592"
"10","10","encoding","encoding","222","C32.jpg","1",".","37","0","525"
"10","10","encoding","encoding","223","D71.jpg","3",".","37","0","402"
"10","10","encoding","encoding","224","D54.jpg","3",".","37","0","360"
"10","10","encoding","encoding","225","D79.jpg","3",".","37","0","589"
"10","10","encoding","encoding","226","D33.jpg","3",".","37","0","467"
"10","10","encoding","encoding","227","D8.jpg","3",".","37","0","408"
"10","10","encoding","encoding","228","D21.jpg","3",".","37","0","501"
"10","10","encoding","encoding","229","C20.jpg","1",".","37","0","571"
"10","10","encoding","encoding","230","C22.jpg","1",".","37","0","456"
"10","10","encoding","encoding","231","D36.jpg","3",".","37","0","517"
"10","10","encoding","encoding","232","D74.jpg","3",".","37","0","515"
"10","10","encoding","encoding","233","D14.jpg","3",".","37","0","512"
"10","10","encoding","encoding","234","D34.jpg","3",".","37","0","621"
"10","10","encoding","encoding","235","D54.jpg","3",".","36","0","531"
"10","10","encoding","encoding","236","D61.jpg","3",".","36","0","544"
"10","10","encoding","encoding","237","D56.jpg","3",".","37","0","526"
"10","10","encoding","encoding","238","D44.jpg","3",".","37","0","603"
"10","10","encoding","encoding","239","D4.jpg","3",".","37","0","616"
"10","10","encoding","encoding","240","D1.jpg","3",".","37","0","734"
"10","10","encoding","encoding","241","D21.jpg","3",".","37","0","675"
"10","10","encoding","encoding","242","D20.jpg","3",".","37","0","520"
"10","10","encoding","encoding","243","D23.jpg","3",".","37","0","534"
"10","10","encoding","encoding","244","C8.jpg","1",".","37","0","451"
"10","10","encoding","encoding","245","D65.jpg","3",".","37","0","456"
"10","10","encoding","encoding","246","D49.jpg","3",".","36","0","518"
"10","10","encoding","encoding","247","C68.jpg","1",".","37","0","483"
"10","10","encoding","encoding","248","D43.jpg","3",".","37","0","544"
"10","10","encoding","encoding","249","C51.jpg","1",".","37","0","454"
"10","10","encoding","encoding","250","D16.jpg","3",".","37","0","506"
"10","10","encoding","encoding","251","D25.jpg","3",".","36","0","729"
"10","10","encoding","encoding","252","D19.jpg","3",".","37","0","877"
"10","10","encoding","encoding","253","D68.jpg","3",".","37","0","762"
"10","10","encoding","encoding","254","D76.jpg","3",".","37","0","544"
"10","10","encoding","encoding","255","D24.jpg","3",".","37","0","437"
"10","10","encoding","encoding","256","D72.jpg","3",".","37","0","346"
"10","10","encoding","encoding","257","D41.jpg","3",".","37","0","312"
"10","10","encoding","encoding","258","C41.jpg","1",".","37","0","373"
"10","10","encoding","encoding","259","D20.jpg","3",".","37","0","426"
"10","10","encoding","encoding","260","C15.jpg","1",".","37","0","480"
"10","10","encoding","encoding","261","C6.jpg","1",".","37","0","446"
"10","10","encoding","encoding","262","C43.jpg","1",".","37","0","651"
"10","10","encoding","encoding","263","D71.jpg","3",".","37","0","608"
"10","10","encoding","encoding","265","D75.jpg","3",".","36","0","594"
"10","10","encoding","encoding","266","D32.jpg","3",".","37","0","639"
"10","10","encoding","encoding","267","D17.jpg","3",".","37","0","685"
"10","10","encoding","encoding","268","C50.jpg","1",".","37","0","578"
"10","10","encoding","encoding","269","D46.jpg","3",".","37","0","479"
"10","10","encoding","encoding","270","D69.jpg","3",".","37","0","717"
"10","10","encoding","encoding","271","D35.jpg","3",".","37","0","522"
"10","10","encoding","encoding","272","D26.jpg","3",".","36","0","560"
"10","10","encoding","encoding","273","D52.jpg","3",".","37","0","413"
"10","10","encoding","encoding","274","D12.jpg","3",".","36","0","426"
"10","10","encoding","encoding","275","D70.jpg","3",".","37","0","424"
"10","10","encoding","encoding","276","D30.jpg","3",".","36","0","813"
"10","10","encoding","encoding","277","D48.jpg","3",".","37","0","570"
"10","10","encoding","encoding","278","C28.jpg","1",".","37","0","480"
"10","10","encoding","encoding","279","D69.jpg","3",".","37","0","405"
"10","10","encoding","encoding","280","C40.jpg","1",".","37","0","314"
"10","10","encoding","encoding","281","D27.jpg","3",".","37","0","344"
"10","10","encoding","encoding","282","D11.jpg","3",".","37","0","317"
"10","10","encoding","encoding","283","D49.jpg","3",".","37","0","371"
"10","10","encoding","encoding","284","D13.jpg","3",".","37","0","568"
"10","10","encoding","encoding","285","D65.jpg","3",".","37","0","469"
"10","10","encoding","encoding","286","C29.jpg","1",".","37","0","459"
"10","10","encoding","encoding","287","C10.jpg","1",".","37","0","456"
"10","10","encoding","encoding","288","D68.jpg","3",".","37","0","549"
"10","10","encoding","encoding","289","D77.jpg","3",".","37","0","515"
"10","10","encoding","encoding","290","C18.jpg","1",".","37","0","472"
"10","10","encoding","encoding","291","D51.jpg","3",".","37","0","613"
"10","10","encoding","encoding","292","C34.jpg","1",".","37","0","427"
"10","10","encoding","encoding","293","D0.jpg","3",".","37","0","488"
"10","10","encoding","encoding","294","D59.jpg","3",".","37","0","525"
"10","10","encoding","encoding","295","C78.jpg","1",".","37","0","523"
"10","10","encoding","encoding","296","C2.jpg","1",".","37","0","448"
"10","10","encoding","encoding","297","D48.jpg","3",".","37","0","429"
"10","10","encoding","encoding","298","D1.jpg","3",".","37","0","651"
"10","10","encoding","encoding","299","D62.jpg","3",".","37","0","704"
"10","10","encoding","encoding","300","D72.jpg","3",".","37","0","486"
"10","10","encoding","encoding","301","C72.jpg","1",".","37","0","338"
"10","10","encoding","encoding","302","D33.jpg","3",".","37","0","359"
"10","10","encoding","encoding","303","C65.jpg","1",".","37","0","486"
"10","10","encoding","encoding","304","D30.jpg","3",".","36","0","578"
"10","10","encoding","encoding","305","D25.jpg","3",".","36","0","535"
"10","10","encoding","encoding","306","D2.jpg","3",".","37","0","453"
"10","10","encoding","encoding","307","D79.jpg","3",".","37","0","459"
"10","10","encoding","encoding","308","D7.jpg","3",".","37","0","472"
"10","10","encoding","encoding","309","C57.jpg","1",".","37","0","429"
"10","10","encoding","encoding","310","D55.jpg","3",".","37","0","394"
"10","10","encoding","encoding","311","C55.jpg","1",".","37","0","457"
"10","10","encoding","encoding","312","D22.jpg","3",".","37","0","413"
"10","10","encoding","encoding","313","D27.jpg","3",".","37","0","466"
"10","10","encoding","encoding","314","D2.jpg","3",".","37","0","425"
"10","10","encoding","encoding","315","D9.jpg","3",".","37","0","477"
"10","10","encoding","encoding","316","D13.jpg","3",".","37","0","410"
"10","10","encoding","encoding","317","D19.jpg","3",".","37","0","424"
"10","10","encoding","encoding","318","D58.jpg","3",".","0","0","1000"
"10","10","encoding","encoding","319","C64.jpg","1",".","37","0","811"
"10","10","encoding","encoding","320","D75.jpg","3",".","36","0","688"
"10","10","encoding","encoding","321","D47.jpg","3",".","37","0","493"
"10","10","encoding","encoding","322","D0.jpg","3",".","37","0","451"
"10","10","encoding","encoding","323","D4.jpg","3",".","37","0","576"
"10","10","encoding","encoding","324","D40.jpg","3",".","37","0","573"
"10","10","encoding","encoding","325","D43.jpg","",".","37","0","491"
"10","10","retrieval","old_object","1","C30.jpg",".","1","36","1","1711"
"10","10","retrieval","new_object","2","A29.jpg",".",".","37","1","793"
"10","10","retrieval","old_object","3","D23.jpg",".","3","36","1","621"
"10","10","retrieval","old_object","4","D72.jpg",".","3","36","1","726"
"10","10","retrieval","old_object","5","D73.jpg",".","3","36","1","881"
"10","10","retrieval","new_object","6","A63.jpg",".",".","37","1","859"
"10","10","retrieval","new_object","7","A46.jpg",".",".","37","1","981"
"10","10","retrieval","old_object","8","D43.jpg",".","3","37","0","807"
"10","10","retrieval","new_object","9","A55.jpg",".",".","37","1","754"
"10","10","retrieval","new_object","10","A47.jpg",".",".","37","1","724"
"10","10","retrieval","old_object","11","C44.jpg",".","1","36","1","798"
"10","10","retrieval","new_object","12","A42.jpg",".",".","37","1","801"
"10","10","retrieval","old_object","13","C58.jpg",".","1","36","1","916"
"10","10","retrieval","new_object","14","B11.jpg",".",".","37","1","606"
"10","10","retrieval","new_object","15","B34.jpg",".",".","37","1","872"
"10","10","retrieval","new_object","16","B78.jpg",".",".","37","1","666"
"10","10","retrieval","new_object","17","B29.jpg",".",".","37","1","1013"
"10","10","retrieval","old_object","18","D2.jpg",".","3","36","1","671"
"10","10","retrieval","old_object","19","C10.jpg",".","1","36","1","745"
"10","10","retrieval","new_object","20","B60.jpg",".",".","37","1","644"
"10","10","retrieval","old_object","21","D63.jpg",".","3","36","1","734"
"10","10","retrieval","old_object","22","C50.jpg",".","1","36","1","696"
"10","10","retrieval","old_object","23","D64.jpg",".","3","36","1","947"
"10","10","retrieval","old_object","24","D19.jpg",".","3","36","1","566"
"10","10","retrieval","new_object","25","B7.jpg",".",".","37","1","688"
"10","10","retrieval","old_object","26","D33.jpg",".","3","36","1","690"
"10","10","retrieval","new_object","27","B30.jpg",".",".","37","1","989"
"10","10","retrieval","new_object","28","A35.jpg",".",".","37","1","895"
"10","10","retrieval","new_object","29","A2.jpg",".",".","37","1","713"
"10","10","retrieval","old_object","30","C56.jpg",".","1","36","1","948"
"10","10","retrieval","new_object","31","A51.jpg",".",".","37","1","1206"
"10","10","retrieval","old_object","32","C19.jpg",".","1","36","1","664"
"10","10","retrieval","old_object","33","D10.jpg",".","3","36","1","787"
"10","10","retrieval","old_object","34","D25.jpg",".","3","36","1","541"
"10","10","retrieval","new_object","35","A50.jpg",".",".","37","1","536"
"10","10","retrieval","new_object","36","A22.jpg",".",".","37","1","786"
"10","10","retrieval","new_object","37","A62.jpg",".",".","37","1","788"
"10","10","retrieval","old_object","38","D46.jpg",".","3","36","1","719"
"10","10","retrieval","new_object","39","A26.jpg",".",".","37","1","664"
"10","10","retrieval","old_object","40","C2.jpg",".","1","37","0","602"
"10","10","retrieval","old_object","41","D49.jpg",".","3","36","1","518"
"10","10","retrieval","new_object","42","B54.jpg",".",".","37","1","736"
"10","10","retrieval","new_object","43","B70.jpg",".",".","37","1","865"
"10","10","retrieval","new_object","44","A71.jpg",".",".","37","1","636"
"10","10","retrieval","old_object","45","D21.jpg",".","3","37","0","623"
"10","10","retrieval","old_object","46","D48.jpg",".","3","36","1","713"
"10","10","retrieval","old_object","47","C21.jpg",".","1","36","1","547"
"10","10","retrieval","new_object","48","A57.jpg",".",".","37","1","726"
"10","10","retrieval","new_object","49","B51.jpg",".",".","37","1","1008"
"10","10","retrieval","new_object","50","A5.jpg",".",".","37","1","1570"
"10","10","retrieval","new_object","51","B3.jpg",".",".","36","0","893"
"10","10","retrieval","old_object","52","D76.jpg",".","3","36","1","599"
"10","10","retrieval","new_object","53","A73.jpg",".",".","37","1","634"
"10","10","retrieval","old_object","54","C12.jpg",".","1","36","1","636"
"10","10","retrieval","old_object","55","C22.jpg",".","1","36","1","1542"
"10","10","retrieval","old_object","56","D12.jpg",".","3","36","1","713"
"10","10","retrieval","old_object","57","C20.jpg",".","1","36","1","523"
"10","10","retrieval","old_object","58","C34.jpg",".","1","36","1","1013"
"10","10","retrieval","old_object","59","D78.jpg",".","3","36","1","592"
"10","10","retrieval","old_object","60","C39.jpg",".","1","36","1","562"
"10","10","retrieval","old_object","61","D20.jpg",".","3","36","1","556"
"10","10","retrieval","new_object","62","B69.jpg",".",".","37","1","783"
"10","10","retrieval","new_object","63","B77.jpg",".",".","37","1","674"
"10","10","retrieval","new_object","64","B22.jpg",".",".","37","1","1179"
"10","10","retrieval","new_object","65","A15.jpg",".",".","37","1","718"
"10","10","retrieval","old_object","67","C70.jpg",".","1","0","0","2000"
"10","10","retrieval","new_object","68","A59.jpg",".",".","37","1","828"
"10","10","retrieval","old_object","69","C57.jpg",".","1","37","0","735"
"10","10","retrieval","old_object","70","C27.jpg",".","1","36","1","560"
"10","10","retrieval","old_object","71","C64.jpg",".","1","37","0","514"
"10","10","retrieval","new_object","72","A36.jpg",".",".","37","1","701"
"10","10","retrieval","old_object","73","C15.jpg",".","1","36","1","759"
"10","10","retrieval","new_object","74","A60.jpg",".",".","37","1","898"
"10","10","retrieval","old_object","75","C35.jpg",".","1","36","1","908"
"10","10","retrieval","new_object","76","A13.jpg",".",".","37","1","670"
"10","10","retrieval","old_object","77","D11.jpg",".","3","36","1","1329"
"10","10","retrieval","old_object","78","D51.jpg",".","3","36","1","1315"
"10","10","retrieval","old_object","79","C62.jpg",".","1","36","1","1021"
"10","10","retrieval","new_object","80","A18.jpg",".",".","37","1","752"
"10","10","retrieval","old_object","81","C11.jpg",".","1","36","1","915"
"10","10","retrieval","new_object","82","A43.jpg",".",".","37","1","700"
"10","10","retrieval","new_object","83","A25.jpg",".",".","36","0","1415"
"10","10","retrieval","old_object","84","D56.jpg",".","3","36","1","850"
"10","10","retrieval","old_object","85","D69.jpg",".","3","36","1","764"
"10","10","retrieval","old_object","86","C68.jpg",".","1","36","1","894"
"10","10","retrieval","old_object","87","C3.jpg",".","1","36","1","729"
"10","10","retrieval","new_object","88","A21.jpg",".",".","37","1","851"
"10","10","retrieval","old_object","89","C13.jpg",".","1","36","1","1053"
"10","10","retrieval","old_object","90","D14.jpg",".","3","36","1","664"
"10","10","retrieval","new_object","91","A58.jpg",".",".","37","1","658"
"10","10","retrieval","old_object","92","C69.jpg",".","1","36","1","685"
"10","10","retrieval","new_object","93","A1.jpg",".",".","36","0","663"
"10","10","retrieval","new_object","94","B71.jpg",".",".","37","1","872"
"10","10","retrieval","new_object","95","A72.jpg",".",".","37","1","692"
"10","10","retrieval","new_object","96","B63.jpg",".",".","37","1","702"
"10","10","retrieval","new_object","97","A30.jpg",".",".","37","1","863"
"10","10","retrieval","old_object","98","C14.jpg",".","1","36","1","707"
"10","10","retrieval","new_object","99","B1.jpg",".",".","37","1","484"
"10","10","retrieval","old_object","100","C4.jpg",".","1","36","1","831"
"10","10","retrieval","new_object","101","A37.jpg",".",".","37","1","889"
"10","10","retrieval","old_object","102","C54.jpg",".","1","36","1","820"
"10","10","retrieval","new_object","103","A34.jpg",".",".","37","1","854"
"10","10","retrieval","new_object","104","B37.jpg",".",".","37","1","736"
"10","10","retrieval","new_object","105","B32.jpg",".",".","37","1","795"
"10","10","retrieval","old_object","106","D70.jpg",".","3","36","1","949"
"10","10","retrieval","old_object","107","C38.jpg",".","1","36","1","975"
"10","10","retrieval","new_object","108","A9.jpg",".",".","37","1","674"
"10","10","retrieval","old_object","109","C77.jpg",".","1","36","1","636"
"10","10","retrieval","old_object","110","C60.jpg",".","1","36","1","942"
"10","10","retrieval","new_object","111","B46.jpg",".",".","37","1","857"
"10","10","retrieval","old_object","112","D3.jpg",".","3","37","0","1451"
"10","10","retrieval","new_object","113","B39.jpg",".",".","37","1","838"
"10","10","retrieval","new_object","114","A20.jpg",".",".","37","1","856"
"10","10","retrieval","old_object","115","C48.jpg",".","1","36","1","634"
"10","10","retrieval","new_object","116","B18.jpg",".",".","37","1","725"
"10","10","retrieval","old_object","117","C7.jpg",".","1","36","1","727"
"10","10","retrieval","old_object","118","C28.jpg",".","1","36","1","825"
"10","10","retrieval","old_object","119","D5.jpg",".","3","36","1","716"
"10","10","retrieval","new_object","120","B65.jpg",".",".","37","1","719"
"10","10","retrieval","old_object","121","D39.jpg",".","3","36","1","704"
"10","10","retrieval","old_object","122","D31.jpg",".","3","36","1","1339"
"10","10","retrieval","old_object","123","C23.jpg",".","1","36","1","630"
"10","10","retrieval","new_object","124","B53.jpg",".",".","37","1","816"
"10","10","retrieval","old_object","125","C51.jpg",".","1","36","1","898"
"10","10","retrieval","new_object","126","A70.jpg",".",".","37","1","733"
"10","10","retrieval","new_object","127","B27.jpg",".",".","37","1","743"
"10","10","retrieval","new_object","128","B14.jpg",".",".","37","1","705"
"10","10","retrieval","new_object","129","A4.jpg",".",".","37","1","740"
"10","10","retrieval","new_object","130","B57.jpg",".",".","37","1","678"
"10","10","retrieval","new_object","131","B35.jpg",".",".","37","1","1392"
"10","10","retrieval","new_object","133","A52.jpg",".",".","37","1","827"
"10","10","retrieval","new_object","134","B40.jpg",".",".","37","1","502"
"10","10","retrieval","new_object","135","B28.jpg",".",".","37","1","568"
"10","10","retrieval","new_object","136","B74.jpg",".",".","37","1","802"
"10","10","retrieval","old_object","137","D79.jpg",".","3","36","1","613"
"10","10","retrieval","new_object","138","B47.jpg",".",".","36","0","1208"
"10","10","retrieval","new_object","139","B58.jpg",".",".","37","1","650"
"10","10","retrieval","new_object","140","B66.jpg",".",".","37","1","612"
"10","10","retrieval","new_object","141","A28.jpg",".",".","37","1","567"
"10","10","retrieval","old_object","142","C42.jpg",".","1","37","0","569"
"10","10","retrieval","old_object","143","C63.jpg",".","1","37","0","659"
"10","10","retrieval","old_object","144","D27.jpg",".","3","37","0","534"
"10","10","retrieval","new_object","145","B50.jpg",".",".","37","1","568"
"10","10","retrieval","new_object","146","A75.jpg",".",".","37","1","690"
"10","10","retrieval","new_object","147","A77.jpg",".",".","37","1","653"
"10","10","retrieval","new_object","148","B52.jpg",".",".","37","1","711"
"10","10","retrieval","new_object","149","B19.jpg",".",".","37","1","1690"
"10","10","retrieval","old_object","150","D62.jpg",".","3","36","1","676"
"10","10","retrieval","old_object","151","C26.jpg",".","1","36","1","782"
"10","10","retrieval","new_object","152","B9.jpg",".",".","37","1","753"
"10","10","retrieval","new_object","153","B16.jpg",".",".","37","1","891"
"10","10","retrieval","old_object","154","D9.jpg",".","3","36","1","637"
"10","10","retrieval","old_object","155","D40.jpg",".","3","36","1","616"
"10","10","retrieval","old_object","156","C0.jpg",".","1","37","0","1698"
"10","10","retrieval","old_object","157","C6.jpg",".","1","37","0","1132"
"10","10","retrieval","old_object","158","D28.jpg",".","3","36","1","1463"
"10","10","retrieval","new_object","159","A67.jpg",".",".","37","1","674"
"10","10","retrieval","old_object","160","C18.jpg",".","1","36","1","979"
"10","10","retrieval","old_object","161","D18.jpg",".","3","36","1","1222"
"10","10","retrieval","old_object","162","C76.jpg",".","1","37","0","1289"
"10","10","retrieval","new_object","163","B62.jpg",".",".","37","1","761"
"10","10","retrieval","old_object","164","C16.jpg",".","1","0","0","2000"
"10","10","retrieval","new_object","165","B64.jpg",".",".","37","1","790"
"10","10","retrieval","new_object","166","B55.jpg",".",".","37","1","648"
"10","10","retrieval","new_object","167","A12.jpg",".",".","37","1","644"
"10","10","retrieval","old_object","168","C1.jpg",".","1","37","0","941"
"10","10","retrieval","old_object","169","D77.jpg",".","3","36","1","671"
"10","10","retrieval","old_object","170","C40.jpg",".","1","36","1","882"
"10","10","retrieval","new_object","171","A61.jpg",".",".","37","1","1988"
"10","10","retrieval","new_object","172","B48.jpg",".",".","37","1","630"
"10","10","retrieval","new_object","173","A39.jpg",".",".","37","1","1497"
"10","10","retrieval","new_object","174","B23.jpg",".",".","37","1","564"
"10","10","retrieval","new_object","175","B61.jpg",".",".","37","1","1422"
"10","10","retrieval","new_object","176","A65.jpg",".",".","37","1","1160"
"10","10","retrieval","old_object","177","D32.jpg",".","3","36","1","867"
"10","10","retrieval","old_object","178","D16.jpg",".","3","36","1","757"
"10","10","retrieval","new_object","179","A44.jpg",".",".","37","1","671"
"10","10","retrieval","old_object","180","C45.jpg",".","1","37","0","794"
"10","10","retrieval","old_object","181","C66.jpg",".","1","36","1","1020"
"10","10","retrieval","old_object","182","C79.jpg",".","1","36","1","807"
"10","10","retrieval","new_object","183","B73.jpg",".",".","36","0","553"
"10","10","retrieval","old_object","184","D6.jpg",".","3","37","0","595"
"10","10","retrieval","new_object","185","A8.jpg",".",".","37","1","822"
"10","10","retrieval","new_object","186","A66.jpg",".",".","37","1","672"
"10","10","retrieval","old_object","187","C49.jpg",".","1","36","1","850"
"10","10","retrieval","new_object","188","B4.jpg",".",".","37","1","621"
"10","10","retrieval","new_object","189","B67.jpg",".",".","37","1","1095"
"10","10","retrieval","new_object","190","A7.jpg",".",".","37","1","833"
"10","10","retrieval","new_object","191","A48.jpg",".",".","37","1","612"
"10","10","retrieval","new_object","192","B38.jpg",".",".","37","1","615"
"10","10","retrieval","new_object","193","A33.jpg",".",".","37","1","632"
"10","10","retrieval","old_object","194","C47.jpg",".","1","36","1","787"
"10","10","retrieval","new_object","195","A16.jpg",".",".","37","1","606"
"10","10","retrieval","new_object","196","B79.jpg",".",".","37","1","591"
"10","10","retrieval","old_object","197","C65.jpg",".","1","36","1","1130"
"10","10","retrieval","old_object","199","C43.jpg",".","1","36","1","782"
"10","10","retrieval","old_object","200","D54.jpg",".","3","36","1","585"
"10","10","retrieval","new_object","201","B17.jpg",".",".","37","1","636"
"10","10","retrieval","old_object","202","D17.jpg",".","3","36","1","573"
"10","10","retrieval","new_object","203","B49.jpg",".",".","37","1","647"
"10","10","retrieval","old_object","204","D15.jpg",".","3","36","1","754"
"10","10","retrieval","new_object","205","B45.jpg",".",".","37","1","684"
"10","10","retrieval","new_object","206","A10.jpg",".",".","37","1","623"
"10","10","retrieval","old_object","207","C41.jpg",".","1","37","0","1049"
"10","10","retrieval","old_object","208","D4.jpg",".","3","36","1","667"
"10","10","retrieval","new_object","209","A38.jpg",".",".","37","1","710"
"10","10","retrieval","new_object","210","A79.jpg",".",".","37","1","648"
"10","10","retrieval","new_object","211","A24.jpg",".",".","37","1","642"
"10","10","retrieval","new_object","212","B0.jpg",".",".","37","1","1093"
"10","10","retrieval","new_object","213","A78.jpg",".",".","37","1","792"
"10","10","retrieval","new_object","214","A40.jpg",".",".","37","1","761"
"10","10","retrieval","old_object","215","C72.jpg",".","1","36","1","988"
"10","10","retrieval","old_object","216","C29.jpg",".","1","36","1","703"
"10","10","retrieval","old_object","217","C31.jpg",".","1","37","0","793"
"10","10","retrieval","old_object","218","D59.jpg",".","3","36","1","611"
"10","10","retrieval","old_object","219","D50.jpg",".","3","36","1","526"
"10","10","retrieval","new_object","220","B2.jpg",".",".","37","1","1000"
"10","10","retrieval","old_object","221","C52.jpg",".","1","36","1","658"
"10","10","retrieval","new_object","222","B33.jpg",".",".","37","1","917"
"10","10","retrieval","new_object","223","B15.jpg",".",".","37","1","775"
"10","10","retrieval","old_object","224","D8.jpg",".","3","36","1","562"
"10","10","retrieval","new_object","225","A76.jpg",".",".","37","1","692"
"10","10","retrieval","old_object","226","D29.jpg",".","3","36","1","598"
"10","10","retrieval","new_object","227","A45.jpg",".",".","37","1","873"
"10","10","retrieval","old_object","228","C46.jpg",".","1","37","0","803"
"10","10","retrieval","new_object","229","A74.jpg",".",".","37","1","949"
"10","10","retrieval","old_object","230","D1.jpg",".","3","37","0","744"
"10","10","retrieval","old_object","231","C25.jpg",".","1","37","0","561"
"10","10","retrieval","old_object","232","D24.jpg",".","3","36","1","699"
"10","10","retrieval","old_object","233","D35.jpg",".","3","36","1","558"
"10","10","retrieval","old_object","234","D65.jpg",".","3","36","1","601"
"10","10","retrieval","old_object","235","C33.jpg",".","1","36","1","555"
"10","10","retrieval","new_object","236","A23.jpg",".",".","37","1","797"
"10","10","retrieval","new_object","237","A14.jpg",".",".","37","1","600"
"10","10","retrieval","old_object","238","C8.jpg",".","1","36","1","666"
"10","10","retrieval","new_object","239","B42.jpg",".",".","37","1","932"
"10","10","retrieval","new_object","240","B21.jpg",".",".","37","1","743"
"10","10","retrieval","new_object","241","A11.jpg",".",".","37","1","673"
"10","10","retrieval","new_object","242","B31.jpg",".",".","37","1","1155"
"10","10","retrieval","old_object","243","C75.jpg",".","1","36","1","870"
"10","10","retrieval","old_object","244","C59.jpg",".","1","36","1","728"
"10","10","retrieval","old_object","245","D36.jpg",".","3","36","1","691"
"10","10","retrieval","new_object","246","B36.jpg",".",".","37","1","733"
"10","10","retrieval","old_object","247","D53.jpg",".","3","36","1","1007"
"10","10","retrieval","new_object","248","B59.jpg",".",".","37","1","922"
"10","10","retrieval","old_object","249","C61.jpg",".","1","36","1","868"
"10","10","retrieval","old_object","250","D67.jpg",".","3","36","1","662"
"10","10","retrieval","new_object","251","A41.jpg",".",".","37","1","529"
"10","10","retrieval","new_object","252","A54.jpg",".",".","37","1","1044"
"10","10","retrieval","old_object","253","D58.jpg",".","3","37","0","637"
"10","10","retrieval","old_object","254","C9.jpg",".","1","36","1","624"
"10","10","retrieval","new_object","255","B76.jpg",".",".","37","1","691"
"10","10","retrieval","old_object","256","D44.jpg",".","3","36","1","957"
"10","10","retrieval","new_object","257","A0.jpg",".",".","37","1","639"
"10","10","retrieval","new_object","258","A53.jpg",".",".","37","1","569"
"10","10","retrieval","old_object","259","D0.jpg",".","3","36","1","763"
"10","10","retrieval","old_object","260","D57.jpg",".","3","36","1","630"
"10","10","retrieval","old_object","261","D7.jpg",".","3","36","1","768"
"10","10","retrieval","old_object","262","C5.jpg",".","1","36","1","713"
"10","10","retrieval","new_object","263","B20.jpg",".",".","37","1","917"
"10","10","retrieval","old_object","265","C37.jpg",".","1","36","1","908"
"10","10","retrieval","old_object","266","C73.jpg",".","1","36","1","671"
"10","10","retrieval","old_object","267","C74.jpg",".","1","36","1","665"
"10","10","retrieval","old_object","268","D47.jpg",".","3","37","0","828"
"10","10","retrieval","new_object","269","B13.jpg",".",".","37","1","982"
"10","10","retrieval","new_object","270","B12.jpg",".",".","37","1","752"
"10","10","retrieval","new_object","271","A6.jpg",".",".","37","1","1194"
"10","10","retrieval","new_object","272","B68.jpg",".",".","37","1","645"
"10","10","retrieval","old_object","273","D61.jpg",".","3","36","1","592"
"10","10","retrieval","new_object","274","A68.jpg",".",".","37","1","793"
"10","10","retrieval","new_object","275","A32.jpg",".",".","37","1","1084"
"10","10","retrieval","new_object","276","A19.jpg",".",".","37","1","735"
"10","10","retrieval","old_object","277","D55.jpg",".","3","36","1","737"
"10","10","retrieval","old_object","278","D22.jpg",".","3","36","1","899"
"10","10","retrieval","new_object","279","B24.jpg",".",".","37","1","686"
"10","10","retrieval","new_object","280","B10.jpg",".",".","37","1","984"
"10","10","retrieval","old_object","281","D34.jpg",".","3","37","0","698"
"10","10","retrieval","new_object","282","B43.jpg",".",".","37","1","773"
"10","10","retrieval","new_object","283","B8.jpg",".",".","37","1","967"
"10","10","retrieval","new_object","284","A17.jpg",".",".","37","1","826"
"10","10","retrieval","old_object","285","C24.jpg",".","1","36","1","796"
"10","10","retrieval","new_object","286","B25.jpg",".",".","37","1","718"
"10","10","retrieval","new_object","287","A56.jpg",".",".","37","1","769"
"10","10","retrieval","new_object","288","B56.jpg",".",".","36","0","1403"
"10","10","retrieval","old_object","289","D38.jpg",".","3","36","1","933"
"10","10","retrieval","old_object","290","D13.jpg",".","3","36","1","720"
"10","10","retrieval","new_object","291","B44.jpg",".",".","37","1","658"
"10","10","retrieval","new_object","292","B26.jpg",".",".","37","1","812"
"10","10","retrieval","new_object","293","A27.jpg",".",".","37","1","623"
"10","10","retrieval","old_object","294","C78.jpg",".","1","36","1","1018"
"10","10","retrieval","old_object","295","D60.jpg",".","3","36","1","1060"
"10","10","retrieval","old_object","296","D66.jpg",".","3","36","1","653"
"10","10","retrieval","old_object","297","C67.jpg",".","1","36","1","681"
"10","10","retrieval","new_object","298","A69.jpg",".",".","37","1","674"
"10","10","retrieval","old_object","299","C32.jpg",".","1","36","1","836"
"10","10","retrieval","old_object","300","D52.jpg",".","3","36","1","631"
"10","10","retrieval","old_object","301","D68.jpg",".","3","36","1","793"
"10","10","retrieval","new_object","302","A64.jpg",".",".","37","1","868"
"10","10","retrieval","new_object","303","B6.jpg",".",".","37","1","774"
"10","10","retrieval","new_object","304","B41.jpg",".",".","37","1","632"
"10","10","retrieval","old_object","305","D41.jpg",".","3","36","1","579"
"10","10","retrieval","old_object","306","D74.jpg",".","3","36","1","749"
"10","10","retrieval","new_object","307","A31.jpg",".",".","37","1","943"
"10","10","retrieval","old_object","308","D37.jpg",".","3","36","1","1354"
"10","10","retrieval","old_object","309","C17.jpg",".","1","37","0","852"
"10","10","retrieval","old_object","310","D26.jpg",".","3","36","1","1022"
"10","10","retrieval","new_object","311","B75.jpg",".",".","37","1","560"
"10","10","retrieval","new_object","312","A49.jpg",".",".","37","1","915"
"10","10","retrieval","new_object","313","B5.jpg",".",".","37","1","621"
"10","10","retrieval","new_object","314","A3.jpg",".",".","37","1","815"
"10","10","retrieval","old_object","315","D42.jpg",".","3","36","1","674"
"10","10","retrieval","old_object","316","D45.jpg",".","3","36","1","764"
"10","10","retrieval","old_object","317","D30.jpg",".","3","36","1","687"
"10","10","retrieval","old_object","318","D75.jpg",".","3","36","1","649"
"10","10","retrieval","old_object","319","C53.jpg",".","1","36","1","1235"
"10","10","retrieval","old_object","320","C71.jpg",".","1","36","1","790"
"10","10","retrieval","old_object","321","D71.jpg",".","3","36","1","1240"
"10","10","retrieval","old_object","322","C36.jpg",".","1","36","1","922"
"10","10","retrieval","old_object","323","C55.jpg",".","1","36","1","1077"
"10","10","retrieval","new_object","324","B72.jpg",".",".","37","1","647"
"10","10","retrieval","old_object","325","C30.jpg",".","","36","1","777"
"10","10","demographics_block","gender","1",".",".",".","Female","1","26590"
"10","10","demographics_block","age","1",".",".",".","19","1","26590"
"10","10","demographics_block","education","1",".",".",".","11","1","26590"
"10","10","demographics_block","left_right_handed","2",".",".",".","Right","1","14323"
"10","10","demographics_block","raceoption1","2",".",".",".","0","1","14323"
"10","10","demographics_block","raceoption2","2",".",".",".","","1","14323"
"10","10","demographics_block","raceoption3","2",".",".",".","2","1","14323"
"10","10","demographics_block","raceoption4","2",".",".",".","3","1","14323"
"10","10","demographics_block","raceoption5","2",".",".",".","","1","14323"
"10","10","demographics_block","raceoption6","2",".",".",".","","1","14323"
"10","10","demographics_block","raceoption7","2",".",".",".","","1","14323"
"10","10","demographics_block","raceoption8","2",".",".",".","","1","14323"
"10","10","demographics_block","raceoption9","2",".",".",".","","1","14323"
"10","10","demographics_block","raceother","2",".",".",".","","1","14323"
"10","10","demographics_block","raceother","2",".",".",".","","1","14323"
"10","10","demographics_block","english_language","2",".",".",".","Yes","1","14323"
"10","10","demographics_block","other","2",".",".",".","","1","14323"
"10","10","demographics_block","eyesight","3",".",".",".","Yes","1","14035"
"10","10","demographics_block","colorblind","3",".",".",".","No","1","14035"
"12","12","encoding","encoding","1","D43.jpg","3",".","37","0","741"
"12","12","encoding","encoding","2","D60.jpg","3",".","0","0","1000"
"12","12","encoding","encoding","3","D22.jpg","3",".","37","0","562"
"12","12","encoding","encoding","4","D66.jpg","3",".","37","0","452"
"12","12","encoding","encoding","5","D16.jpg","3",".","37","0","767"
"12","12","encoding","encoding","6","C74.jpg","1",".","37","0","626"
"12","12","encoding","encoding","7","D73.jpg","3",".","37","0","372"
"12","12","encoding","encoding","8","D16.jpg","3",".","37","0","383"
"12","12","encoding","encoding","9","D7.jpg","3",".","37","0","514"
"12","12","encoding","encoding","10","C69.jpg","1",".","37","0","533"
"12","12","encoding","encoding","11","D7.jpg","3",".","37","0","431"
"12","12","encoding","encoding","12","D45.jpg","3",".","37","0","522"
"12","12","encoding","encoding","13","D33.jpg","3",".","37","0","557"
"12","12","encoding","encoding","14","D15.jpg","3",".","37","0","536"
"12","12","encoding","encoding","15","C47.jpg","1",".","37","0","594"
"12","12","encoding","encoding","16","C60.jpg","1",".","37","0","541"
"12","12","encoding","encoding","17","D8.jpg","3",".","37","0","559"
"12","12","encoding","encoding","18","D35.jpg","3",".","37","0","610"
"12","12","encoding","encoding","19","C33.jpg","1",".","37","0","525"
"12","12","encoding","encoding","20","C73.jpg","1",".","36","0","599"
"12","12","encoding","encoding","21","D68.jpg","3",".","37","0","537"
"12","12","encoding","encoding","22","D17.jpg","3",".","37","0","524"
"12","12","encoding","encoding","23","C12.jpg","1",".","37","0","743"
"12","12","encoding","encoding","24","D21.jpg","3",".","37","0","593"
"12","12","encoding","encoding","25","D48.jpg","3",".","37","0","452"
"12","12","encoding","encoding","26","C11.jpg","1",".","37","0","544"
"12","12","encoding","encoding","27","C14.jpg","1",".","37","0","529"
"12","12","encoding","encoding","28","D58.jpg","3",".","36","0","596"
"12","12","encoding","encoding","29","D63.jpg","3",".","37","0","510"
"12","12","encoding","encoding","30","D29.jpg","3",".","37","0","473"
"12","12","encoding","encoding","31","D27.jpg","3",".","37","0","564"
"12","12","encoding","encoding","32","D50.jpg","3",".","37","0","575"
"12","12","encoding","encoding","33","C27.jpg","1",".","37","0","537"
"12","12","encoding","encoding","34","D71.jpg","3",".","37","0","612"
"12","12","encoding","encoding","35","C36.jpg","1",".","37","0","607"
"12","12","encoding","encoding","36","C16.jpg","1",".","37","0","554"
"12","12","encoding","encoding","37","D23.jpg","3",".","37","0","468"
"12","12","encoding","encoding","38","D6.jpg","3",".","37","0","654"
"12","12","encoding","encoding","39","C63.jpg","1",".","37","0","849"
"12","12","encoding","encoding","40","C53.jpg","1",".","37","0","708"
"12","12","encoding","encoding","41","D6.jpg","3",".","37","0","679"
"12","12","encoding","encoding","42","C26.jpg","1",".","37","0","418"
"12","12","encoding","encoding","43","D6.jpg","3",".","37","0","476"
"12","12","encoding","encoding","44","D19.jpg","3",".","37","0","495"
"12","12","encoding","encoding","45","D58.jpg","3",".","37","0","609"
"12","12","encoding","encoding","46","D61.jpg","3",".","37","0","588"
"12","12","encoding","encoding","47","C58.jpg","1",".","37","0","727"
"12","12","encoding","encoding","48","C35.jpg","1",".","37","0","489"
"12","12","encoding","encoding","49","D40.jpg","3",".","37","0","484"
"12","12","encoding","encoding","50","D13.jpg","3",".","36","0","935"
"12","12","encoding","encoding","51","D76.jpg","3",".","37","0","506"
"12","12","encoding","encoding","52","D39.jpg","3",".","37","0","620"
"12","12","encoding","encoding","53","D49.jpg","3",".","0","0","1000"
"12","12","encoding","encoding","54","D62.jpg","3",".","37","0","850"
"12","12","encoding","encoding","55","D12.jpg","3",".","37","0","916"
"12","12","encoding","encoding","56","D57.jpg","3",".","36","0","631"
"12","12","encoding","encoding","57","D41.jpg","3",".","37","0","666"
"12","12","encoding","encoding","58","C67.jpg","1",".","37","0","509"
"12","12","encoding","encoding","59","D51.jpg","3",".","37","0","551"
"12","12","encoding","encoding","60","D31.jpg","3",".","37","0","706"
"12","12","encoding","encoding","61","C62.jpg","1",".","37","0","508"
"12","12","encoding","encoding","62","D70.jpg","3",".","37","0","455"
"12","12","encoding","encoding","63","D14.jpg","3",".","37","0","466"
"12","12","encoding","encoding","64","C38.jpg","1",".","37","0","444"
"12","12","encoding","encoding","65","C5.jpg","1",".","37","0","447"
"12","12","encoding","encoding","67","C61.jpg","1",".","37","0","478"
"12","12","encoding","encoding","68","D28.jpg","3",".","37","0","545"
"12","12","encoding","encoding","69","D32.jpg","3",".","37","0","499"
"12","12","encoding","encoding","70","D38.jpg","3",".","37","0","534"
"12","12","encoding","encoding","71","D20.jpg","3",".","37","0","329"
"12","12","encoding","encoding","72","D37.jpg","3",".","37","0","475"
"12","12","encoding","encoding","73","D60.jpg","3",".","37","0","635"
"12","12","encoding","encoding","74","D72.jpg","3",".","37","0","561"
"12","12","encoding","encoding","75","D3.jpg","3",".","37","0","620"
"12","12","encoding","encoding","76","D38.jpg","3",".","37","0","566"
"12","12","encoding","encoding","77","C23.jpg","1",".","37","0","801"
"12","12","encoding","encoding","78","C76.jpg","1",".","37","0","467"
"12","12","encoding","encoding","79","D64.jpg","3",".","37","0","478"
"12","12","encoding","encoding","80","D37.jpg","3",".","37","0","425"
"12","12","encoding","encoding","81","D40.jpg","3",".","37","0","883"
"12","12","encoding","encoding","82","D9.jpg","3",".","37","0","710"
"12","12","encoding","encoding","83","D18.jpg","3",".","37","0","641"
"12","12","encoding","encoding","84","D55.jpg","3",".","37","0","412"
"12","12","encoding","encoding","85","D14.jpg","3",".","37","0","389"
"12","12","encoding","encoding","86","C52.jpg","1",".","37","0","553"
"12","12","encoding","encoding","87","D4.jpg","3",".","37","0","642"
"12","12","encoding","encoding","88","D65.jpg","3",".","37","0","647"
"12","12","encoding","encoding","89","D24.jpg","3",".","37","0","568"
"12","12","encoding","encoding","90","D22.jpg","3",".","37","0","458"
"12","12","encoding","encoding","91","D69.jpg","3",".","37","0","494"
"12","12","encoding","encoding","92","D60.jpg","3",".","37","0","440"
"12","12","encoding","encoding","93","D32.jpg","3",".","37","0","554"
"12","12","encoding","encoding","94","C31.jpg","1",".","37","0","550"
"12","12","encoding","encoding","95","D56.jpg","3",".","37","0","496"
"12","12","encoding","encoding","96","D35.jpg","3",".","37","0","443"
"12","12","encoding","encoding","97","D46.jpg","3",".","37","0","541"
"12","12","encoding","encoding","98","C17.jpg","1",".","37","0","424"
"12","12","encoding","encoding","99","D36.jpg","3",".","37","0","515"
"12","12","encoding","encoding","100","D2.jpg","3",".","37","0","486"
"12","12","encoding","encoding","101","D15.jpg","3",".","37","0","440"
"12","12","encoding","encoding","102","C21.jpg","1",".","37","0","819"
"12","12","encoding","encoding","103","D5.jpg","3",".","37","0","581"
"12","12","encoding","encoding","104","D39.jpg","3",".","37","0","432"
"12","12","encoding","encoding","105","C45.jpg","1",".","37","0","563"
"12","12","encoding","encoding","106","D42.jpg","3",".","37","0","573"
"12","12","encoding","encoding","107","D63.jpg","3",".","37","0","688"
"12","12","encoding","encoding","108","D30.jpg","3",".","36","0","851"
"12","12","encoding","encoding","109","D59.jpg","3",".","37","0","822"
"12","12","encoding","encoding","110","D28.jpg","3",".","37","0","584"
"12","12","encoding","encoding","111","C42.jpg","1",".","37","0","411"
"12","12","encoding","encoding","112","D43.jpg","3",".","37","0","525"
"12","12","encoding","encoding","113","C44.jpg","1",".","37","0","544"
"12","12","encoding","encoding","114","D53.jpg","3",".","37","0","435"
"12","12","encoding","encoding","115","D10.jpg","3",".","36","0","702"
"12","12","encoding","encoding","116","C79.jpg","1",".","37","0","488"
"12","12","encoding","encoding","117","C7.jpg","1",".","36","0","627"
"12","12","encoding","encoding","118","D39.jpg","3",".","37","0","501"
"12","12","encoding","encoding","119","D50.jpg","3",".","37","0","537"
"12","12","encoding","encoding","120","D5.jpg","3",".","37","0","579"
"12","12","encoding","encoding","121","D44.jpg","3",".","0","0","1000"
"12","12","encoding","encoding","122","C25.jpg","1",".","37","0","689"
"12","12","encoding","encoding","123","D56.jpg","3",".","37","0","411"
"12","12","encoding","encoding","124","D18.jpg","3",".","37","0","414"
"12","12","encoding","encoding","125","D74.jpg","3",".","37","0","488"
"12","12","encoding","encoding","126","D10.jpg","3",".","36","0","659"
"12","12","encoding","encoding","127","D67.jpg","3",".","37","0","478"
"12","12","encoding","encoding","128","D44.jpg","3",".","37","0","456"
"12","12","encoding","encoding","129","D78.jpg","3",".","37","0","475"
"12","12","encoding","encoding","130","C71.jpg","1",".","37","0","500"
"12","12","encoding","encoding","131","D34.jpg","3",".","37","0","673"
"12","12","encoding","encoding","133","D3.jpg","3",".","37","0","561"
"12","12","encoding","encoding","134","D42.jpg","3",".","37","0","498"
"12","12","encoding","encoding","135","D61.jpg","3",".","37","0","487"
"12","12","encoding","encoding","136","D26.jpg","3",".","36","0","662"
"12","12","encoding","encoding","137","D57.jpg","3",".","36","0","692"
"12","12","encoding","encoding","138","C19.jpg","1",".","36","0","566"
"12","12","encoding","encoding","139","C56.jpg","1",".","37","0","650"
"12","12","encoding","encoding","140","D77.jpg","3",".","37","0","572"
"12","12","encoding","encoding","141","D5.jpg","3",".","37","0","454"
"12","12","encoding","encoding","142","C37.jpg","1",".","37","0","721"
"12","12","encoding","encoding","143","C70.jpg","1",".","37","0","484"
"12","12","encoding","encoding","144","D67.jpg","3",".","37","0","559"
"12","12","encoding","encoding","145","C30.jpg","1",".","37","0","482"
"12","12","encoding","encoding","146","C75.jpg","1",".","37","0","476"
"12","12","encoding","encoding","147","D50.jpg","3",".","37","0","470"
"12","12","encoding","encoding","148","D10.jpg","3",".","36","0","930"
"12","12","encoding","encoding","149","D46.jpg","3",".","37","0","444"
"12","12","encoding","encoding","150","C46.jpg","1",".","37","0","491"
"12","12","encoding","encoding","151","D26.jpg","3",".","36","0","873"
"12","12","encoding","encoding","152","D11.jpg","3",".","37","0","524"
"12","12","encoding","encoding","153","D3.jpg","3",".","37","0","583"
"12","12","encoding","encoding","154","D66.jpg","3",".","37","0","640"
"12","12","encoding","encoding","155","D1.jpg","3",".","36","0","923"
"12","12","encoding","encoding","156","D31.jpg","3",".","37","0","382"
"12","12","encoding","encoding","157","D52.jpg","3",".","37","0","457"
"12","12","encoding","encoding","158","D67.jpg","3",".","37","0","763"
"12","12","encoding","encoding","159","D54.jpg","3",".","36","0","598"
"12","12","encoding","encoding","160","C0.jpg","1",".","36","0","577"
"12","12","encoding","encoding","161","D23.jpg","3",".","37","0","612"
"12","12","encoding","encoding","162","D42.jpg","3",".","37","0","454"
"12","12","encoding","encoding","163","C59.jpg","1",".","37","0","545"
"12","12","encoding","encoding","164","D0.jpg","3",".","37","0","443"
"12","12","encoding","encoding","165","D62.jpg","3",".","37","0","750"
"12","12","encoding","encoding","166","C66.jpg","1",".","37","0","473"
"12","12","encoding","encoding","167","D8.jpg","3",".","37","0","435"
"12","12","encoding","encoding","168","D11.jpg","3",".","37","0","435"
"12","12","encoding","encoding","169","D47.jpg","3",".","37","0","440"
"12","12","encoding","encoding","170","D78.jpg","3",".","37","0","499"
"12","12","encoding","encoding","171","D51.jpg","3",".","37","0","646"
"12","12","encoding","encoding","172","C3.jpg","1",".","37","0","720"
"12","12","encoding","encoding","173","D73.jpg","3",".","37","0","515"
"12","12","encoding","encoding","174","D36.jpg","3",".","37","0","365"
"12","12","encoding","encoding","175","D52.jpg","3",".","37","0","400"
"12","12","encoding","encoding","176","C77.jpg","1",".","36","0","530"
"12","12","encoding","encoding","177","D45.jpg","3",".","36","0","653"
"12","12","encoding","encoding","178","D29.jpg","3",".","36","0","537"
"12","12","encoding","encoding","179","D47.jpg","3",".","37","0","507"
"12","12","encoding","encoding","180","D37.jpg","3",".","37","0","541"
"12","12","encoding","encoding","181","D15.jpg","3",".","37","0","424"
"12","12","encoding","encoding","182","D12.jpg","3",".","37","0","475"
"12","12","encoding","encoding","183","C24.jpg","1",".","37","0","406"
"12","12","encoding","encoding","184","D9.jpg","3",".","37","0","377"
"12","12","encoding","encoding","185","C39.jpg","1",".","37","0","419"
"12","12","encoding","encoding","186","D29.jpg","3",".","36","0","581"
"12","12","encoding","encoding","187","C4.jpg","1",".","37","0","449"
"12","12","encoding","encoding","188","C49.jpg","1",".","37","0","449"
"12","12","encoding","encoding","189","D53.jpg","3",".","37","0","389"
"12","12","encoding","encoding","190","D64.jpg","3",".","37","0","393"
"12","12","encoding","encoding","191","D73.jpg","3",".","37","0","403"
"12","12","encoding","encoding","192","D45.jpg","3",".","36","0","510"
"12","12","encoding","encoding","193","D75.jpg","3",".","36","0","536"
"12","12","encoding","encoding","194","D17.jpg","3",".","37","0","843"
"12","12","encoding","encoding","195","D76.jpg","3",".","37","0","486"
"12","12","encoding","encoding","196","D64.jpg","3",".","37","0","576"
"12","12","encoding","encoding","197","D24.jpg","3",".","37","0","435"
"12","12","encoding","encoding","199","D59.jpg","3",".","37","0","501"
"12","12","encoding","encoding","200","D77.jpg","3",".","37","0","456"
"12","12","encoding","encoding","201","C48.jpg","1",".","37","0","313"
"12","12","encoding","encoding","202","D74.jpg","3",".","37","0","389"
"12","12","encoding","encoding","203","D79.jpg","3",".","37","0","408"
"12","12","encoding","encoding","204","C54.jpg","1",".","37","0","379"
"12","12","encoding","encoding","205","D70.jpg","3",".","37","0","366"
"12","12","encoding","encoding","206","C13.jpg","1",".","37","0","368"
"12","12","encoding","encoding","207","D78.jpg","3",".","37","0","482"
"12","12","encoding","encoding","208","D34.jpg","3",".","37","0","429"
"12","12","encoding","encoding","209","D38.jpg","3",".","37","0","392"
"12","12","encoding","encoding","210","D25.jpg","3",".","0","0","1000"
"12","12","encoding","encoding","211","D31.jpg","3",".","0","0","1000"
"12","12","encoding","encoding","212","D53.jpg","3",".","37","0","920"
"12","12","encoding","encoding","213","C9.jpg","1",".","37","0","504"
"12","12","encoding","encoding","214","D63.jpg","3",".","37","0","621"
"12","12","encoding","encoding","215","D28.jpg","3",".","37","0","640"
"12","12","encoding","encoding","216","C1.jpg","1",".","37","0","459"
"12","12","encoding","encoding","217","D57.jpg","3",".","36","0","709"
"12","12","encoding","encoding","218","D41.jpg","3",".","37","0","408"
"12","12","encoding","encoding","219","D55.jpg","3",".","37","0","499"
"12","12","encoding","encoding","220","D18.jpg","3",".","37","0","566"
"12","12","encoding","encoding","221","D66.jpg","3",".","37","0","416"
"12","12","encoding","encoding","222","C32.jpg","1",".","37","0","419"
"12","12","encoding","encoding","223","D71.jpg","3",".","37","0","373"
"12","12","encoding","encoding","224","D54.jpg","3",".","36","0","679"
"12","12","encoding","encoding","225","D79.jpg","3",".","37","0","546"
"12","12","encoding","encoding","226","D33.jpg","3",".","37","0","476"
"12","12","encoding","encoding","227","D8.jpg","3",".","37","0","687"
"12","12","encoding","encoding","228","D21.jpg","3",".","37","0","479"
"12","12","encoding","encoding","229","C20.jpg","1",".","37","0","524"
"12","12","encoding","encoding","230","C22.jpg","1",".","37","0","495"
"12","12","encoding","encoding","231","D36.jpg","3",".","37","0","482"
"12","12","encoding","encoding","232","D74.jpg","3",".","37","0","485"
"12","12","encoding","encoding","233","D14.jpg","3",".","37","0","536"
"12","12","encoding","encoding","234","D34.jpg","3",".","37","0","490"
"12","12","encoding","encoding","235","D54.jpg","3",".","36","0","541"
"12","12","encoding","encoding","236","D61.jpg","3",".","36","0","791"
"12","12","encoding","encoding","237","D56.jpg","3",".","37","0","490"
"12","12","encoding","encoding","238","D44.jpg","3",".","37","0","525"
"12","12","encoding","encoding","239","D4.jpg","3",".","37","0","671"
"12","12","encoding","encoding","240","D1.jpg","3",".","37","0","650"
"12","12","encoding","encoding","241","D21.jpg","3",".","37","0","557"
"12","12","encoding","encoding","242","D20.jpg","3",".","37","0","472"
"12","12","encoding","encoding","243","D23.jpg","3",".","37","0","522"
"12","12","encoding","encoding","244","C8.jpg","1",".","37","0","460"
"12","12","encoding","encoding","245","D65.jpg","3",".","37","0","391"
"12","12","encoding","encoding","246","D49.jpg","3",".","36","0","594"
"12","12","encoding","encoding","247","C68.jpg","1",".","37","0","525"
"12","12","encoding","encoding","248","D43.jpg","3",".","37","0","496"
"12","12","encoding","encoding","249","C51.jpg","1",".","37","0","626"
"12","12","encoding","encoding","250","D16.jpg","3",".","37","0","581"
"12","12","encoding","encoding","251","D25.jpg","3",".","37","0","552"
"12","12","encoding","encoding","252","D19.jpg","3",".","37","0","427"
"12","12","encoding","encoding","253","D68.jpg","3",".","37","0","669"
"12","12","encoding","encoding","254","D76.jpg","3",".","37","0","496"
"12","12","encoding","encoding","255","D24.jpg","3",".","37","0","458"
"12","12","encoding","encoding","256","D72.jpg","3",".","37","0","533"
"12","12","encoding","encoding","257","D41.jpg","3",".","37","0","391"
"12","12","encoding","encoding","258","C41.jpg","1",".","37","0","480"
"12","12","encoding","encoding","259","D20.jpg","3",".","37","0","444"
"12","12","encoding","encoding","260","C15.jpg","1",".","37","0","583"
"12","12","encoding","encoding","261","C6.jpg","1",".","37","0","697"
"12","12","encoding","encoding","262","C43.jpg","1",".","37","0","493"
"12","12","encoding","encoding","263","D71.jpg","3",".","37","0","496"
"12","12","encoding","encoding","265","D75.jpg","3",".","36","0","656"
"12","12","encoding","encoding","266","D32.jpg","3",".","37","0","707"
"12","12","encoding","encoding","267","D17.jpg","3",".","37","0","894"
"12","12","encoding","encoding","268","C50.jpg","1",".","37","0","496"
"12","12","encoding","encoding","269","D46.jpg","3",".","37","0","514"
"12","12","encoding","encoding","270","D69.jpg","3",".","37","0","734"
"12","12","encoding","encoding","271","D35.jpg","3",".","37","0","528"
"12","12","encoding","encoding","272","D26.jpg","3",".","36","0","619"
"12","12","encoding","encoding","273","D52.jpg","3",".","37","0","534"
"12","12","encoding","encoding","274","D12.jpg","3",".","37","0","465"
"12","12","encoding","encoding","275","D70.jpg","3",".","37","0","492"
"12","12","encoding","encoding","276","D30.jpg","3",".","37","0","710"
"12","12","encoding","encoding","277","D48.jpg","3",".","37","0","752"
"12","12","encoding","encoding","278","C28.jpg","1",".","37","0","468"
"12","12","encoding","encoding","279","D69.jpg","3",".","37","0","606"
"12","12","encoding","encoding","280","C40.jpg","1",".","37","0","689"
"12","12","encoding","encoding","281","D27.jpg","3",".","37","0","483"
"12","12","encoding","encoding","282","D11.jpg","3",".","37","0","430"
"12","12","encoding","encoding","283","D49.jpg","3",".","36","0","481"
"12","12","encoding","encoding","284","D13.jpg","3",".","37","0","420"
"12","12","encoding","encoding","285","D65.jpg","3",".","37","0","486"
"12","12","encoding","encoding","286","C29.jpg","1",".","37","0","577"
"12","12","encoding","encoding","287","C10.jpg","1",".","37","0","372"
"12","12","encoding","encoding","288","D68.jpg","3",".","37","0","366"
"12","12","encoding","encoding","289","D77.jpg","3",".","37","0","265"
"12","12","encoding","encoding","290","C18.jpg","1",".","37","0","500"
"12","12","encoding","encoding","291","D51.jpg","3",".","37","0","654"
"12","12","encoding","encoding","292","C34.jpg","1",".","37","0","632"
"12","12","encoding","encoding","293","D0.jpg","3",".","37","0","427"
"12","12","encoding","encoding","294","D59.jpg","3",".","37","0","437"
"12","12","encoding","encoding","295","C78.jpg","1",".","37","0","447"
"12","12","encoding","encoding","296","C2.jpg","1",".","37","0","343"
"12","12","encoding","encoding","297","D48.jpg","3",".","37","0","540"
"12","12","encoding","encoding","298","D1.jpg","3",".","37","0","591"
"12","12","encoding","encoding","299","D62.jpg","3",".","37","0","610"
"12","12","encoding","encoding","300","D72.jpg","3",".","37","0","596"
"12","12","encoding","encoding","301","C72.jpg","1",".","37","0","583"
"12","12","encoding","encoding","302","D33.jpg","3",".","37","0","514"
"12","12","encoding","encoding","303","C65.jpg","1",".","37","0","357"
"12","12","encoding","encoding","304","D30.jpg","3",".","37","0","423"
"12","12","encoding","encoding","305","D25.jpg","3",".","37","0","386"
"12","12","encoding","encoding","306","D2.jpg","3",".","37","0","557"
"12","12","encoding","encoding","307","D79.jpg","3",".","37","0","431"
"12","12","encoding","encoding","308","D7.jpg","3",".","37","0","666"
"12","12","encoding","encoding","309","C57.jpg","1",".","37","0","749"
"12","12","encoding","encoding","310","D55.jpg","3",".","37","0","624"
"12","12","encoding","encoding","311","C55.jpg","1",".","37","0","937"
"12","12","encoding","encoding","312","D22.jpg","3",".","37","0","629"
"12","12","encoding","encoding","313","D27.jpg","3",".","37","0","455"
"12","12","encoding","encoding","314","D2.jpg","3",".","37","0","426"
"12","12","encoding","encoding","315","D9.jpg","3",".","37","0","205"
"12","12","encoding","encoding","316","D13.jpg","3",".","37","0","399"
"12","12","encoding","encoding","317","D19.jpg","3",".","37","0","418"
"12","12","encoding","encoding","318","D58.jpg","3",".","37","0","589"
"12","12","encoding","encoding","319","C64.jpg","1",".","37","0","511"
"12","12","encoding","encoding","320","D75.jpg","3",".","36","0","498"
"12","12","encoding","encoding","321","D47.jpg","3",".","37","0","485"
"12","12","encoding","encoding","322","D0.jpg","3",".","37","0","456"
"12","12","encoding","encoding","323","D4.jpg","3",".","37","0","714"
"12","12","encoding","encoding","324","D40.jpg","3",".","37","0","605"
"12","12","encoding","encoding","325","D43.jpg","",".","37","0","975"
"12","12","retrieval","old_object","1","C30.jpg",".","1","37","0","1011"
"12","12","retrieval","new_object","2","A17.jpg",".",".","37","1","1022"
"12","12","retrieval","new_object","3","A19.jpg",".",".","37","1","665"
"12","12","retrieval","new_object","4","A49.jpg",".",".","37","1","875"
"12","12","retrieval","old_object","5","D23.jpg",".","3","36","1","622"
"12","12","retrieval","old_object","6","D72.jpg",".","3","36","1","658"
"12","12","retrieval","new_object","7","B14.jpg",".",".","37","1","931"
"12","12","retrieval","new_object","8","A20.jpg",".",".","37","1","550"
"12","12","retrieval","new_object","9","B40.jpg",".",".","37","1","608"
"12","12","retrieval","old_object","10","D73.jpg",".","3","36","1","747"
"12","12","retrieval","new_object","11","A45.jpg",".",".","37","1","774"
"12","12","retrieval","old_object","12","D43.jpg",".","3","36","1","737"
"12","12","retrieval","new_object","13","B49.jpg",".",".","37","1","780"
"12","12","retrieval","old_object","14","C44.jpg",".","1","37","0","821"
"12","12","retrieval","old_object","15","C58.jpg",".","1","36","1","785"
"12","12","retrieval","old_object","16","D2.jpg",".","3","37","0","947"
"12","12","retrieval","old_object","17","C10.jpg",".","1","36","1","853"
"12","12","retrieval","new_object","18","B61.jpg",".",".","37","1","784"
"12","12","retrieval","new_object","19","A23.jpg",".",".","37","1","947"
"12","12","retrieval","new_object","20","B11.jpg",".",".","36","0","965"
"12","12","retrieval","new_object","21","B43.jpg",".",".","37","1","886"
"12","12","retrieval","new_object","22","A39.jpg",".",".","37","1","675"
"12","12","retrieval","new_object","23","B29.jpg",".",".","37","1","902"
"12","12","retrieval","new_object","24","B10.jpg",".",".","37","1","600"
"12","12","retrieval","new_object","25","A5.jpg",".",".","37","1","619"
"12","12","retrieval","new_object","26","B79.jpg",".",".","37","1","675"
"12","12","retrieval","new_object","27","A48.jpg",".",".","37","1","672"
"12","12","retrieval","old_object","28","D63.jpg",".","3","36","1","691"
"12","12","retrieval","old_object","29","C50.jpg",".","1","36","1","684"
"12","12","retrieval","new_object","30","A79.jpg",".",".","37","1","968"
"12","12","retrieval","old_object","31","D64.jpg",".","3","36","1","787"
"12","12","retrieval","old_object","32","D19.jpg",".","3","36","1","677"
"12","12","retrieval","old_object","33","D33.jpg",".","3","36","1","824"
"12","12","retrieval","old_object","34","C56.jpg",".","1","36","1","859"
"12","12","retrieval","new_object","35","A8.jpg",".",".","37","1","598"
"12","12","retrieval","new_object","36","B48.jpg",".",".","37","1","704"
"12","12","retrieval","old_object","37","C19.jpg",".","1","36","1","691"
"12","12","retrieval","new_object","38","A65.jpg",".",".","37","1","678"
"12","12","retrieval","new_object","39","A22.jpg",".",".","37","1","856"
"12","12","retrieval","new_object","40","A61.jpg",".",".","37","1","659"
"12","12","retrieval","old_object","41","D10.jpg",".","3","36","1","741"
"12","12","retrieval","old_object","42","D25.jpg",".","3","36","1","577"
"12","12","retrieval","new_object","43","A41.jpg",".",".","37","1","554"
"12","12","retrieval","new_object","44","B16.jpg",".",".","37","1","732"
"12","12","retrieval","old_object","45","D46.jpg",".","3","36","1","616"
"12","12","retrieval","old_object","46","C2.jpg",".","1","37","0","627"
"12","12","retrieval","new_object","47","B41.jpg",".",".","37","1","646"
"12","12","retrieval","old_object","48","D49.jpg",".","3","36","1","816"
"12","12","retrieval","old_object","49","D21.jpg",".","3","36","1","596"
"12","12","retrieval","new_object","50","A9.jpg",".",".","37","1","638"
"12","12","retrieval","old_object","51","D48.jpg",".","3","36","1","753"
"12","12","retrieval","new_object","52","B33.jpg",".",".","37","1","540"
"12","12","retrieval","old_object","53","C21.jpg",".","1","36","1","838"
"12","12","retrieval","new_object","54","B72.jpg",".",".","37","1","777"
"12","12","retrieval","old_object","55","D76.jpg",".","3","36","1","715"
"12","12","retrieval","old_object","56","C12.jpg",".","1","36","1","717"
"12","12","retrieval","new_object","57","B19.jpg",".",".","37","1","784"
"12","12","retrieval","new_object","58","A77.jpg",".",".","37","1","602"
"12","12","retrieval","old_object","59","C22.jpg",".","1","37","0","532"
"12","12","retrieval","old_object","60","D12.jpg",".","3","36","1","568"
"12","12","retrieval","old_object","61","C20.jpg",".","1","37","0","954"
"12","12","retrieval","new_object","62","A66.jpg",".",".","37","1","780"
"12","12","retrieval","old_object","63","C34.jpg",".","1","36","1","720"
"12","12","retrieval","new_object","64","B42.jpg",".",".","37","1","746"
"12","12","retrieval","old_object","65","D78.jpg",".","3","36","1","1300"
"12","12","retrieval","new_object","67","B17.jpg",".",".","37","1","616"
"12","12","retrieval","new_object","68","B62.jpg",".",".","37","1","818"
"12","12","retrieval","old_object","69","C39.jpg",".","1","36","1","693"
"12","12","retrieval","old_object","70","D20.jpg",".","3","36","1","624"
"12","12","retrieval","new_object","71","A2.jpg",".",".","37","1","627"
"12","12","retrieval","old_object","72","C70.jpg",".","1","36","1","1269"
"12","12","retrieval","new_object","73","A14.jpg",".",".","37","1","608"
"12","12","retrieval","new_object","74","B18.jpg",".",".","37","1","699"
"12","12","retrieval","old_object","75","C57.jpg",".","1","36","1","837"
"12","12","retrieval","old_object","76","C27.jpg",".","1","36","1","1129"
"12","12","retrieval","old_object","77","C64.jpg",".","1","37","0","675"
"12","12","retrieval","old_object","78","C15.jpg",".","1","36","1","782"
"12","12","retrieval","new_object","79","A21.jpg",".",".","36","0","696"
"12","12","retrieval","new_object","80","B75.jpg",".",".","37","1","723"
"12","12","retrieval","new_object","81","B34.jpg",".",".","37","1","549"
"12","12","retrieval","new_object","82","A10.jpg",".",".","37","1","552"
"12","12","retrieval","old_object","83","C35.jpg",".","1","36","1","675"
"12","12","retrieval","new_object","84","A27.jpg",".",".","37","1","845"
"12","12","retrieval","old_object","85","D11.jpg",".","3","36","1","625"
"12","12","retrieval","old_object","86","D51.jpg",".","3","36","1","827"
"12","12","retrieval","new_object","87","B21.jpg",".",".","37","1","942"
"12","12","retrieval","new_object","88","A7.jpg",".",".","37","1","712"
"12","12","retrieval","old_object","89","C62.jpg",".","1","37","0","628"
"12","12","retrieval","new_object","90","A78.jpg",".",".","36","0","670"
"12","12","retrieval","new_object","91","A52.jpg",".",".","37","1","832"
"12","12","retrieval","new_object","92","B54.jpg",".",".","37","1","668"
"12","12","retrieval","old_object","93","C11.jpg",".","1","36","1","646"
"12","12","retrieval","old_object","94","D56.jpg",".","3","37","0","521"
"12","12","retrieval","old_object","95","D69.jpg",".","3","36","1","579"
"12","12","retrieval","old_object","96","C68.jpg",".","1","36","1","726"
"12","12","retrieval","old_object","97","C3.jpg",".","1","36","1","673"
"12","12","retrieval","old_object","98","C13.jpg",".","1","36","1","875"
"12","12","retrieval","old_object","99","D14.jpg",".","3","36","1","700"
"12","12","retrieval","old_object","100","C69.jpg",".","1","36","1","704"
"12","12","retrieval","new_object","101","B38.jpg",".",".","37","1","667"
"12","12","retrieval","old_object","102","C14.jpg",".","1","36","1","653"
"12","12","retrieval","old_object","103","C4.jpg",".","1","36","1","760"
"12","12","retrieval","new_object","104","A25.jpg",".",".","37","1","820"
"12","12","retrieval","old_object","105","C54.jpg",".","1","37","0","765"
"12","12","retrieval","old_object","106","D70.jpg",".","3","36","1","712"
"12","12","retrieval","new_object","107","A57.jpg",".",".","37","1","754"
"12","12","retrieval","new_object","108","A74.jpg",".",".","37","1","669"
"12","12","retrieval","old_object","109","C38.jpg",".","1","37","0","880"
"12","12","retrieval","old_object","110","C77.jpg",".","1","36","1","891"
"12","12","retrieval","old_object","111","C60.jpg",".","1","36","1","693"
"12","12","retrieval","new_object","112","B22.jpg",".",".","37","1","1064"
"12","12","retrieval","new_object","113","B53.jpg",".",".","37","1","659"
"12","12","retrieval","new_object","114","B4.jpg",".",".","37","1","644"
"12","12","retrieval","old_object","115","D3.jpg",".","3","36","1","888"
"12","12","retrieval","new_object","116","A69.jpg",".",".","37","1","611"
"12","12","retrieval","old_object","117","C48.jpg",".","1","37","0","749"
"12","12","retrieval","new_object","118","B67.jpg",".",".","36","0","624"
"12","12","retrieval","old_object","119","C7.jpg",".","1","36","1","995"
"12","12","retrieval","new_object","120","B69.jpg",".",".","37","1","1110"
"12","12","retrieval","old_object","121","C28.jpg",".","1","36","1","1081"
"12","12","retrieval","new_object","122","A42.jpg",".",".","37","1","915"
"12","12","retrieval","new_object","123","B52.jpg",".",".","37","1","598"
"12","12","retrieval","old_object","124","D5.jpg",".","3","36","1","816"
"12","12","retrieval","old_object","125","D39.jpg",".","3","36","1","722"
"12","12","retrieval","old_object","126","D31.jpg",".","3","36","1","628"
"12","12","retrieval","new_object","127","A75.jpg",".",".","37","1","665"
"12","12","retrieval","new_object","128","B65.jpg",".",".","37","1","539"
"12","12","retrieval","old_object","129","C23.jpg",".","1","36","1","748"
"12","12","retrieval","new_object","130","A68.jpg",".",".","37","1","768"
"12","12","retrieval","new_object","131","B50.jpg",".",".","37","1","491"
"12","12","retrieval","old_object","133","C51.jpg",".","1","37","0","774"
"12","12","retrieval","old_object","134","D79.jpg",".","3","36","1","721"
"12","12","retrieval","old_object","135","C42.jpg",".","1","36","1","716"
"12","12","retrieval","new_object","136","B32.jpg",".",".","37","1","710"
"12","12","retrieval","new_object","137","A60.jpg",".",".","36","0","817"
"12","12","retrieval","old_object","138","C63.jpg",".","1","37","0","676"
"12","12","retrieval","new_object","139","A53.jpg",".",".","37","1","671"
"12","12","retrieval","old_object","140","D27.jpg",".","3","36","1","610"
"12","12","retrieval","old_object","141","D62.jpg",".","3","36","1","740"
"12","12","retrieval","new_object","142","A71.jpg",".",".","37","1","693"
"12","12","retrieval","new_object","143","B64.jpg",".",".","37","1","697"
"12","12","retrieval","new_object","144","B63.jpg",".",".","37","1","1203"
"12","12","retrieval","old_object","145","C26.jpg",".","1","37","0","782"
"12","12","retrieval","new_object","146","A12.jpg",".",".","37","1","1017"
"12","12","retrieval","new_object","147","B2.jpg",".",".","37","1","1156"
"12","12","retrieval","new_object","148","B13.jpg",".",".","37","1","694"
"12","12","retrieval","new_object","149","B15.jpg",".",".","37","1","656"
"12","12","retrieval","new_object","150","A37.jpg",".",".","37","1","923"
"12","12","retrieval","new_object","151","B77.jpg",".",".","37","1","694"
"12","12","retrieval","new_object","152","B47.jpg",".",".","37","1","1041"
"12","12","retrieval","new_object","153","B0.jpg",".",".","37","1","867"
"12","12","retrieval","new_object","154","B45.jpg",".",".","37","1","878"
"12","12","retrieval","old_object","155","D9.jpg",".","3","36","1","1073"
"12","12","retrieval","old_object","156","D40.jpg",".","3","36","1","684"
"12","12","retrieval","new_object","157","B51.jpg",".",".","37","1","838"
"12","12","retrieval","new_object","158","A15.jpg",".",".","37","1","593"
"12","12","retrieval","new_object","159","B59.jpg",".",".","37","1","645"
"12","12","retrieval","old_object","160","C0.jpg",".","1","36","1","630"
"12","12","retrieval","old_object","161","C6.jpg",".","1","37","0","609"
"12","12","retrieval","new_object","162","B37.jpg",".",".","37","1","667"
"12","12","retrieval","old_object","163","D28.jpg",".","3","37","0","599"
"12","12","retrieval","new_object","164","A28.jpg",".",".","37","1","681"
"12","12","retrieval","new_object","165","B31.jpg",".",".","37","1","699"
"12","12","retrieval","new_object","166","A29.jpg",".",".","37","1","807"
"12","12","retrieval","old_object","167","C18.jpg",".","1","37","0","993"
"12","12","retrieval","new_object","168","A26.jpg",".",".","37","1","692"
"12","12","retrieval","old_object","169","D18.jpg",".","3","36","1","678"
"12","12","retrieval","new_object","170","A55.jpg",".",".","36","0","905"
"12","12","retrieval","old_object","171","C76.jpg",".","1","36","1","716"
"12","12","retrieval","new_object","172","B26.jpg",".",".","37","1","695"
"12","12","retrieval","old_object","173","C16.jpg",".","1","36","1","857"
"12","12","retrieval","old_object","174","C1.jpg",".","1","37","0","924"
"12","12","retrieval","old_object","175","D77.jpg",".","3","36","1","710"
"12","12","retrieval","new_object","176","A18.jpg",".",".","37","1","937"
"12","12","retrieval","old_object","177","C40.jpg",".","1","36","1","780"
"12","12","retrieval","new_object","178","A46.jpg",".",".","37","1","679"
"12","12","retrieval","new_object","179","A54.jpg",".",".","37","1","766"
"12","12","retrieval","new_object","180","B46.jpg",".",".","37","1","692"
"12","12","retrieval","new_object","181","A62.jpg",".",".","37","1","711"
"12","12","retrieval","old_object","182","D32.jpg",".","3","36","1","866"
"12","12","retrieval","new_object","183","A11.jpg",".",".","37","1","748"
"12","12","retrieval","new_object","184","A56.jpg",".",".","37","1","628"
"12","12","retrieval","new_object","185","B5.jpg",".",".","37","1","634"
"12","12","retrieval","new_object","186","B66.jpg",".",".","37","1","779"
"12","12","retrieval","old_object","187","D16.jpg",".","3","36","1","958"
"12","12","retrieval","old_object","188","C45.jpg",".","1","36","1","873"
"12","12","retrieval","new_object","189","A31.jpg",".",".","36","0","1363"
"12","12","retrieval","old_object","190","C66.jpg",".","1","37","0","790"
"12","12","retrieval","old_object","191","C79.jpg",".","1","36","1","848"
"12","12","retrieval","old_object","192","D6.jpg",".","3","36","1","1411"
"12","12","retrieval","new_object","193","B1.jpg",".",".","36","0","1094"
"12","12","retrieval","old_object","194","C49.jpg",".","1","36","1","753"
"12","12","retrieval","new_object","195","A59.jpg",".",".","37","1","946"
"12","12","retrieval","new_object","196","B6.jpg",".",".","37","1","701"
"12","12","retrieval","old_object","197","C47.jpg",".","1","36","1","728"
"12","12","retrieval","old_object","199","C65.jpg",".","1","36","1","862"
"12","12","retrieval","new_object","200","A44.jpg",".",".","37","1","1321"
"12","12","retrieval","new_object","201","A58.jpg",".",".","37","1","875"
"12","12","retrieval","old_object","202","C43.jpg",".","1","36","1","1454"
"12","12","retrieval","old_object","203","D54.jpg",".","3","36","1","1009"
"12","12","retrieval","new_object","204","B7.jpg",".",".","37","1","724"
"12","12","retrieval","new_object","205","A33.jpg",".",".","37","1","694"
"12","12","retrieval","old_object","206","D17.jpg",".","3","37","0","665"
"12","12","retrieval","new_object","207","B25.jpg",".",".","37","1","828"
"12","12","retrieval","old_object","208","D15.jpg",".","3","36","1","1014"
"12","12","retrieval","new_object","209","A3.jpg",".",".","37","1","921"
"12","12","retrieval","old_object","210","C41.jpg",".","1","36","1","740"
"12","12","retrieval","old_object","211","D4.jpg",".","3","36","1","871"
"12","12","retrieval","new_object","212","B56.jpg",".",".","37","1","736"
"12","12","retrieval","old_object","213","C72.jpg",".","1","36","1","764"
"12","12","retrieval","new_object","214","A67.jpg",".",".","37","1","886"
"12","12","retrieval","new_object","215","A34.jpg",".",".","37","1","825"
"12","12","retrieval","old_object","216","C29.jpg",".","1","36","1","708"
"12","12","retrieval","new_object","217","B68.jpg",".",".","36","0","686"
"12","12","retrieval","old_object","218","C31.jpg",".","1","36","1","953"
"12","12","retrieval","new_object","219","A4.jpg",".",".","37","1","716"
"12","12","retrieval","new_object","220","B76.jpg",".",".","36","0","1046"
"12","12","retrieval","old_object","221","D59.jpg",".","3","36","1","562"
"12","12","retrieval","new_object","222","B71.jpg",".",".","37","1","587"
"12","12","retrieval","new_object","223","A64.jpg",".",".","37","1","692"
"12","12","retrieval","old_object","224","D50.jpg",".","3","36","1","697"
"12","12","retrieval","old_object","225","C52.jpg",".","1","37","0","732"
"12","12","retrieval","new_object","226","A76.jpg",".",".","37","1","621"
"12","12","retrieval","old_object","227","D8.jpg",".","3","36","1","729"
"12","12","retrieval","old_object","228","D29.jpg",".","3","36","1","602"
"12","12","retrieval","new_object","229","B23.jpg",".",".","37","1","621"
"12","12","retrieval","old_object","230","C46.jpg",".","1","36","1","928"
"12","12","retrieval","new_object","231","A51.jpg",".",".","37","1","618"
"12","12","retrieval","old_object","232","D1.jpg",".","3","36","1","645"
"12","12","retrieval","new_object","233","A32.jpg",".",".","37","1","896"
"12","12","retrieval","old_object","234","C25.jpg",".","1","36","1","731"
"12","12","retrieval","new_object","235","B28.jpg",".",".","37","1","653"
"12","12","retrieval","new_object","236","A30.jpg",".",".","37","1","624"
"12","12","retrieval","new_object","237","A73.jpg",".",".","37","1","643"
"12","12","retrieval","old_object","238","D24.jpg",".","3","36","1","925"
"12","12","retrieval","old_object","239","D35.jpg",".","3","36","1","992"
"12","12","retrieval","old_object","240","D65.jpg",".","3","36","1","891"
"12","12","retrieval","old_object","241","C33.jpg",".","1","36","1","788"
"12","12","retrieval","new_object","242","A0.jpg",".",".","37","1","672"
"12","12","retrieval","new_object","243","A43.jpg",".",".","37","1","851"
"12","12","retrieval","new_object","244","B58.jpg",".",".","37","1","701"
"12","12","retrieval","old_object","245","C8.jpg",".","1","37","0","656"
"12","12","retrieval","new_object","246","B78.jpg",".",".","37","1","803"
"12","12","retrieval","old_object","247","C75.jpg",".","1","36","1","870"
"12","12","retrieval","new_object","248","A6.jpg",".",".","36","0","1353"
"12","12","retrieval","old_object","249","C59.jpg",".","1","37","0","739"
"12","12","retrieval","new_object","250","A13.jpg",".",".","37","1","885"
"12","12","retrieval","old_object","251","D36.jpg",".","3","36","1","1256"
"12","12","retrieval","new_object","252","B55.jpg",".",".","37","1","681"
"12","12","retrieval","old_object","253","D53.jpg",".","3","36","1","758"
"12","12","retrieval","new_object","254","A24.jpg",".",".","36","0","737"
"12","12","retrieval","new_object","255","B27.jpg",".",".","36","0","1075"
"12","12","retrieval","old_object","256","C61.jpg",".","1","36","1","781"
"12","12","retrieval","old_object","257","D67.jpg",".","3","36","1","1233"
"12","12","retrieval","new_object","258","B30.jpg",".",".","37","1","715"
"12","12","retrieval","old_object","259","D58.jpg",".","3","36","1","694"
"12","12","retrieval","old_object","260","C9.jpg",".","1","36","1","648"
"12","12","retrieval","new_object","261","B3.jpg",".",".","37","1","715"
"12","12","retrieval","old_object","262","D44.jpg",".","3","36","1","734"
"12","12","retrieval","old_object","263","D0.jpg",".","3","36","1","657"
"12","12","retrieval","new_object","265","B39.jpg",".",".","36","0","948"
"12","12","retrieval","old_object","266","D57.jpg",".","3","36","1","655"
"12","12","retrieval","new_object","267","A36.jpg",".",".","37","1","690"
"12","12","retrieval","old_object","268","D7.jpg",".","3","36","1","652"
"12","12","retrieval","new_object","269","B73.jpg",".",".","37","1","727"
"12","12","retrieval","new_object","270","B20.jpg",".",".","37","1","650"
"12","12","retrieval","old_object","271","C5.jpg",".","1","36","1","1035"
"12","12","retrieval","new_object","272","B44.jpg",".",".","37","1","726"
"12","12","retrieval","old_object","273","C37.jpg",".","1","36","1","632"
"12","12","retrieval","new_object","274","B24.jpg",".",".","37","1","691"
"12","12","retrieval","old_object","275","C73.jpg",".","1","36","1","894"
"12","12","retrieval","new_object","276","A40.jpg",".",".","37","1","953"
"12","12","retrieval","new_object","277","B60.jpg",".",".","37","1","731"
"12","12","retrieval","old_object","278","C74.jpg",".","1","36","1","1014"
"12","12","retrieval","old_object","279","D47.jpg",".","3","36","1","1032"
"12","12","retrieval","old_object","280","D61.jpg",".","3","36","1","1003"
"12","12","retrieval","old_object","281","D55.jpg",".","3","36","1","670"
"12","12","retrieval","old_object","282","D22.jpg",".","3","36","1","617"
"12","12","retrieval","old_object","283","D34.jpg",".","3","36","1","1011"
"12","12","retrieval","new_object","284","B57.jpg",".",".","37","1","1124"
"12","12","retrieval","old_object","285","C24.jpg",".","1","36","1","881"
"12","12","retrieval","old_object","286","D38.jpg",".","3","36","1","852"
"12","12","retrieval","new_object","287","B36.jpg",".",".","37","1","782"
"12","12","retrieval","old_object","288","D13.jpg",".","3","36","1","641"
"12","12","retrieval","old_object","289","C78.jpg",".","1","36","1","1043"
"12","12","retrieval","old_object","290","D60.jpg",".","3","36","1","950"
"12","12","retrieval","new_object","291","A1.jpg",".",".","36","0","953"
"12","12","retrieval","new_object","292","B12.jpg",".",".","37","1","1132"
"12","12","retrieval","old_object","293","D66.jpg",".","3","36","1","910"
"12","12","retrieval","new_object","294","B9.jpg",".",".","37","1","991"
"12","12","retrieval","old_object","295","C67.jpg",".","1","36","1","716"
"12","12","retrieval","old_object","296","C32.jpg",".","1","37","0","702"
"12","12","retrieval","old_object","297","D52.jpg",".","3","36","1","713"
"12","12","retrieval","new_object","298","A47.jpg",".",".","37","1","628"
"12","12","retrieval","old_object","299","D68.jpg",".","3","36","1","719"
"12","12","retrieval","old_object","300","D41.jpg",".","3","36","1","1209"
"12","12","retrieval","new_object","301","B74.jpg",".",".","36","0","524"
"12","12","retrieval","new_object","302","A72.jpg",".",".","37","1","566"
"12","12","retrieval","old_object","303","D74.jpg",".","3","36","1","1273"
"12","12","retrieval","new_object","304","B35.jpg",".",".","37","1","1188"
"12","12","retrieval","old_object","305","D37.jpg",".","3","36","1","695"
"12","12","retrieval","old_object","306","C17.jpg",".","1","36","1","649"
"12","12","retrieval","old_object","307","D26.jpg",".","3","36","1","700"
"12","12","retrieval","old_object","308","D42.jpg",".","3","36","1","639"
"12","12","retrieval","new_object","309","B8.jpg",".",".","37","1","945"
"12","12","retrieval","new_object","310","A63.jpg",".",".","37","1","1132"
"12","12","retrieval","new_object","311","A35.jpg",".",".","37","1","678"
"12","12","retrieval","old_object","312","D45.jpg",".","3","36","1","592"
"12","12","retrieval","old_object","313","D30.jpg",".","3","36","1","771"
"12","12","retrieval","new_object","314","A50.jpg",".",".","37","1","646"
"12","12","retrieval","new_object","315","A16.jpg",".",".","37","1","632"
"12","12","retrieval","old_object","316","D75.jpg",".","3","36","1","605"
"12","12","retrieval","old_object","317","C53.jpg",".","1","36","1","798"
"12","12","retrieval","old_object","318","C71.jpg",".","1","37","0","1177"
"12","12","retrieval","old_object","319","D71.jpg",".","3","36","1","947"
"12","12","retrieval","new_object","320","A38.jpg",".",".","37","1","990"
"12","12","retrieval","old_object","321","C36.jpg",".","1","37","0","849"
"12","12","retrieval","old_object","322","C55.jpg",".","1","37","0","643"
"12","12","retrieval","new_object","323","A70.jpg",".",".","36","0","918"
"12","12","retrieval","new_object","324","B70.jpg",".",".","37","1","969"
"12","12","retrieval","new_object","325","A11.jpg",".",".","37","1","963"
"12","12","demographics_block","gender","1",".",".",".","female","1","4293612912"
"12","12","demographics_block","age","1",".",".",".","53","1","4293612912"
"12","12","demographics_block","education","1",".",".",".","16","1","4293612912"
"12","12","demographics_block","left_right_handed","2",".",".",".","Right","1","4293602906"
"12","12","demographics_block","raceoption1","2",".",".",".","0","1","4293602906"
"12","12","demographics_block","raceoption2","2",".",".",".","","1","4293602906"
"12","12","demographics_block","raceoption3","2",".",".",".","","1","4293602906"
"12","12","demographics_block","raceoption4","2",".",".",".","3","1","4293602906"
"12","12","demographics_block","raceoption5","2",".",".",".","","1","4293602906"
"12","12","demographics_block","raceoption6","2",".",".",".","","1","4293602906"
"12","12","demographics_block","raceoption7","2",".",".",".","","1","4293602906"
"12","12","demographics_block","raceoption8","2",".",".",".","","1","4293602906"
"12","12","demographics_block","raceoption9","2",".",".",".","","1","4293602906"
"12","12","demographics_block","raceother","2",".",".",".","","1","4293602906"
"12","12","demographics_block","raceother","2",".",".",".","","1","4293602906"
"12","12","demographics_block","english_language","2",".",".",".","Yes","1","4293602906"
"12","12","demographics_block","other","2",".",".",".","","1","4293602906"
"12","12","demographics_block","eyesight","3",".",".",".","Yes","1","4293597348"
"12","12","demographics_block","colorblind","3",".",".",".","No","1","4293597348"
