"group","subject","blockcode","trialcode","trialnum","stimulus","encoding_condition","old_object_condition","response","correct","latency"
"11","11","encoding","encoding","1","Tube_Paint.jpg","3",".","37","0","699"
"11","11","encoding","encoding","2","CarSuspension.jpg","3",".","37","0","649"
"11","11","encoding","encoding","3","GasStation.jpg","3",".","37","0","726"
"11","11","encoding","encoding","4","Barbecue_Charcoal.jpg","3",".","37","0","645"
"11","11","encoding","encoding","5","TailLight.jpg","3",".","37","0","640"
"11","11","encoding","encoding","6","Ship_Cruise.jpg","3",".","37","0","970"
"11","11","encoding","encoding","7","TailLight.jpg","3",".","37","0","620"
"11","11","encoding","encoding","8","Sign_Construction.jpg","3",".","37","0","571"
"11","11","encoding","encoding","9","Clock_Interior.jpg","1",".","37","0","595"
"11","11","encoding","encoding","10","Fork_Regular.jpg","3",".","37","0","725"
"11","11","encoding","encoding","11","WateringCan_Antique.jpg","1",".","37","0","519"
"11","11","encoding","encoding","12","Barometer.jpg","3",".","37","0","451"
"11","11","encoding","encoding","13","Bone.jpg","3",".","37","0","776"
"11","11","encoding","encoding","14","Flags_CheckeredRacing.jpg","3",".","37","0","722"
"11","11","encoding","encoding","15","Toolbox_BlackOpen.jpg","1",".","37","0","478"
"11","11","encoding","encoding","16","Tube_Paint.jpg","3",".","37","0","575"
"11","11","encoding","encoding","17","Toy_LambPlushie.jpg","1",".","37","0","660"
"11","11","encoding","encoding","18","Aquarium.jpg","1",".","37","0","634"
"11","11","encoding","encoding","19","Statue_Horse.jpg","3",".","37","0","596"
"11","11","encoding","encoding","20","Handbag.jpg","3",".","37","0","592"
"11","11","encoding","encoding","21","Hedgehog.jpg","1",".","36","0","574"
"11","11","encoding","encoding","22","Candy_Toffee.jpg","3",".","37","0","776"
"11","11","encoding","encoding","23","Hanger.jpg","3",".","37","0","765"
"11","11","encoding","encoding","24","Clave.jpg","3",".","37","0","677"
"11","11","encoding","encoding","25","Light_Studio.jpg","3",".","37","0","496"
"11","11","encoding","encoding","26","Lantern_Chinese.jpg","3",".","37","0","519"
"11","11","encoding","encoding","27","Tree_Fir.jpg","1",".","36","0","739"
"11","11","encoding","encoding","28","Bottle_Beer.jpg","3",".","37","0","668"
"11","11","encoding","encoding","29","Bucket_Halloween.jpg","3",".","37","0","517"
"11","11","encoding","encoding","30","BumperCar.jpg","1",".","37","0","428"
"11","11","encoding","encoding","31","Fork_Regular.jpg","3",".","37","0","491"
"11","11","encoding","encoding","32","Heelpad.jpg","3",".","37","0","530"
"11","11","encoding","encoding","33","Crab.jpg","3",".","36","0","599"
"11","11","encoding","encoding","34","Acorn.jpg","3",".","36","0","749"
"11","11","encoding","encoding","35","Statue_Man.jpg","1",".","37","0","557"
"11","11","encoding","encoding","36","Bark.jpg","1",".","36","0","940"
"11","11","encoding","encoding","37","PocketKnife.jpg","3",".","37","0","907"
"11","11","encoding","encoding","38","House_Wooden.jpg","1",".","37","0","880"
"11","11","encoding","encoding","39","Heelpad.jpg","3",".","37","0","595"
"11","11","encoding","encoding","40","Cable_JumpStart.jpg","1",".","37","0","754"
"11","11","encoding","encoding","41","Cannon.jpg","1",".","37","0","523"
"11","11","encoding","encoding","42","Compact_Mirror.jpg","3",".","37","0","612"
"11","11","encoding","encoding","43","PulleyWooden.jpg","3",".","37","0","644"
"11","11","encoding","encoding","44","Table_Saw.jpg","3",".","37","0","703"
"11","11","encoding","encoding","45","Backpack_Suitcase.jpg","1",".","37","0","554"
"11","11","encoding","encoding","46","Crab.jpg","3",".","36","0","567"
"11","11","encoding","encoding","47","CodeDoorLock.jpg","1",".","37","0","719"
"11","11","encoding","encoding","48","SolderingIron.jpg","1",".","37","0","801"
"11","11","encoding","encoding","49","Sign_Construction.jpg","3",".","37","0","485"
"11","11","encoding","encoding","50","Briefcase_Silver.jpg","3",".","37","0","455"
"11","11","encoding","encoding","51","Earring_Hoop.jpg","3",".","37","0","405"
"11","11","encoding","encoding","52","Lantern_Chinese.jpg","3",".","37","0","577"
"11","11","encoding","encoding","53","Candy_Lozenge.jpg","3",".","37","0","692"
"11","11","encoding","encoding","54","Bread_Carrot.jpg","1",".","37","0","772"
"11","11","encoding","encoding","55","Bread_Melon.jpg","3",".","37","0","679"
"11","11","encoding","encoding","56","Lighter_Black.jpg","3",".","37","0","446"
"11","11","encoding","encoding","57","Light_Studio.jpg","3",".","37","0","473"
"11","11","encoding","encoding","58","Canister_Oil.jpg","3",".","37","0","452"
"11","11","encoding","encoding","59","Ship_Cruise.jpg","3",".","37","0","668"
"11","11","encoding","encoding","60","Platter_Vegetables.jpg","3",".","37","0","943"
"11","11","encoding","encoding","61","Wontons.jpg","3",".","0","0","1000"
"11","11","encoding","encoding","62","MetalDetector.jpg","3",".","37","0","687"
"11","11","encoding","encoding","63","Wire_ElectricalSingle.jpg","1",".","37","0","450"
"11","11","encoding","encoding","64","CarSuspension.jpg","3",".","37","0","440"
"11","11","encoding","encoding","65","Lantern_Chinese.jpg","3",".","37","0","447"
"11","11","encoding","encoding","67","RAMchip.jpg","1",".","37","0","455"
"11","11","encoding","encoding","68","Hat_Colonial.jpg","3",".","37","0","450"
"11","11","encoding","encoding","69","Gecko.jpg","1",".","36","0","568"
"11","11","encoding","encoding","70","HoseNozzle.jpg","3",".","37","0","445"
"11","11","encoding","encoding","71","TailLight.jpg","3",".","37","0","419"
"11","11","encoding","encoding","72","Case_Pencil.jpg","3",".","37","0","384"
"11","11","encoding","encoding","73","Bus_School.jpg","3",".","37","0","347"
"11","11","encoding","encoding","74","SatelliteDish.jpg","3",".","37","0","441"
"11","11","encoding","encoding","75","Ladybug.jpg","1",".","36","0","490"
"11","11","encoding","encoding","76","Heelpad.jpg","3",".","37","0","450"
"11","11","encoding","encoding","77","Cart_Janitor.jpg","3",".","37","0","434"
"11","11","encoding","encoding","78","Helmet_Motorcycle.jpg","3",".","37","0","425"
"11","11","encoding","encoding","79","Acorn.jpg","3",".","36","0","565"
"11","11","encoding","encoding","80","GasStation.jpg","3",".","37","0","403"
"11","11","encoding","encoding","81","HoseNozzle.jpg","3",".","37","0","433"
"11","11","encoding","encoding","82","Toy_Lizard.jpg","1",".","36","0","464"
"11","11","encoding","encoding","83","Bag_Diaper.jpg","1",".","37","0","343"
"11","11","encoding","encoding","84","CarSuspension.jpg","3",".","37","0","362"
"11","11","encoding","encoding","85","Hockey_Puck.jpg","3",".","37","0","344"
"11","11","encoding","encoding","86","GasStation.jpg","3",".","37","0","384"
"11","11","encoding","encoding","87","Amp.jpg","3",".","37","0","368"
"11","11","encoding","encoding","88","PulleyWooden.jpg","3",".","37","0","468"
"11","11","encoding","encoding","89","LicensePlate.jpg","3",".","37","0","398"
"11","11","encoding","encoding","90","Taco.jpg","1",".","37","0","546"
"11","11","encoding","encoding","91","PagodaModel.jpg","3",".","37","0","450"
"11","11","encoding","encoding","92","Barometer_Wood.jpg","1",".","37","0","406"
"11","11","encoding","encoding","93","Flags_CheckeredRacing.jpg","3",".","37","0","406"
"11","11","encoding","encoding","94","Microwave.jpg","3",".","37","0","435"
"11","11","encoding","encoding","95","SatelliteDish.jpg","3",".","37","0","409"
"11","11","encoding","encoding","96","Glass_Beer.jpg","3",".","37","0","388"
"11","11","encoding","encoding","97","Bread_Melon.jpg","3",".","37","0","542"
"11","11","encoding","encoding","98","Mailbox_Antique.jpg","1",".","37","0","377"
"11","11","encoding","encoding","99","MousepadAndMouse.jpg","3",".","37","0","425"
"11","11","encoding","encoding","100","PocketKnife.jpg","3",".","37","0","372"
"11","11","encoding","encoding","101","MemoPaperSpike.jpg","3",".","37","0","479"
"11","11","encoding","encoding","102","Box_FirstAid.jpg","3",".","37","0","378"
"11","11","encoding","encoding","103","Binder.jpg","1",".","37","0","360"
"11","11","encoding","encoding","104","Spatula.jpg","1",".","37","0","376"
"11","11","encoding","encoding","105","Cup_Bathroom.jpg","3",".","37","0","416"
"11","11","encoding","encoding","106","Wontons.jpg","3",".","37","0","762"
"11","11","encoding","encoding","107","Brush_Light.jpg","3",".","37","0","451"
"11","11","encoding","encoding","108","MechanicalSpring.jpg","1",".","37","0","440"
"11","11","encoding","encoding","109","WaterWell.jpg","1",".","37","0","398"
"11","11","encoding","encoding","110","Trash_Medical.jpg","3",".","37","0","439"
"11","11","encoding","encoding","111","Handbag.jpg","3",".","37","0","368"
"11","11","encoding","encoding","112","Canister_Oil.jpg","3",".","37","0","400"
"11","11","encoding","encoding","113","HairCurler.jpg","3",".","37","0","402"
"11","11","encoding","encoding","114","Milkshake_Strawberry.jpg","3",".","37","0","444"
"11","11","encoding","encoding","115","Barbecue_Charcoal.jpg","3",".","37","0","413"
"11","11","encoding","encoding","116","Light_Fixtures.jpg","1",".","37","0","441"
"11","11","encoding","encoding","117","Compact_Mirror.jpg","3",".","37","0","397"
"11","11","encoding","encoding","118","SolderingWire.jpg","3",".","37","0","358"
"11","11","encoding","encoding","119","Hat_Colonial.jpg","3",".","37","0","416"
"11","11","encoding","encoding","120","Box_FirstAid.jpg","3",".","37","0","406"
"11","11","encoding","encoding","121","AirPump.jpg","3",".","37","0","411"
"11","11","encoding","encoding","122","Bread_Roll.jpg","3",".","37","0","512"
"11","11","encoding","encoding","123","Stove_WithOven.jpg","1",".","37","0","396"
"11","11","encoding","encoding","124","DartBoard.jpg","1",".","37","0","384"
"11","11","encoding","encoding","125","HairCurler.jpg","3",".","37","0","453"
"11","11","encoding","encoding","126","LicensePlate.jpg","3",".","37","0","403"
"11","11","encoding","encoding","127","Jar_Honey.jpg","3",".","37","0","480"
"11","11","encoding","encoding","128","Barbecue_Charcoal.jpg","3",".","37","0","568"
"11","11","encoding","encoding","129","Trash_Medical.jpg","3",".","37","0","539"
"11","11","encoding","encoding","130","Stone_AncientWriting.jpg","3",".","37","0","471"
"11","11","encoding","encoding","131","Mailbox_Community.jpg","1",".","37","0","598"
"11","11","encoding","encoding","133","Bible.jpg","1",".","37","0","416"
"11","11","encoding","encoding","134","Bottle_Beer.jpg","3",".","37","0","445"
"11","11","encoding","encoding","135","Garlic_Whole.jpg","1",".","36","0","611"
"11","11","encoding","encoding","136","SelfieStick.jpg","1",".","37","0","422"
"11","11","encoding","encoding","137","Cake_Cheese.jpg","3",".","37","0","718"
"11","11","encoding","encoding","138","Statue_Horse.jpg","3",".","37","0","554"
"11","11","encoding","encoding","139","SewingPin_Cushion.jpg","1",".","37","0","506"
"11","11","encoding","encoding","140","Bat_Cricket.jpg","3",".","37","0","420"
"11","11","encoding","encoding","141","LifeJacket_Orangejpg.jpg","1",".","37","0","433"
"11","11","encoding","encoding","142","Hanger.jpg","3",".","37","0","436"
"11","11","encoding","encoding","143","Makeup_Compact.jpg","1",".","37","0","493"
"11","11","encoding","encoding","144","Carousel.jpg","3",".","37","0","479"
"11","11","encoding","encoding","145","Carousel.jpg","3",".","37","0","443"
"11","11","encoding","encoding","146","Radish.jpg","3",".","36","0","581"
"11","11","encoding","encoding","147","Carabiner_Orange.jpg","1",".","37","0","401"
"11","11","encoding","encoding","148","Jar_Honey.jpg","3",".","37","0","422"
"11","11","encoding","encoding","149","sign_traffic.jpg","1",".","37","0","465"
"11","11","encoding","encoding","150","Milkshake_Strawberry.jpg","3",".","37","0","593"
"11","11","encoding","encoding","151","Bread_Roll.jpg","3",".","37","0","532"
"11","11","encoding","encoding","152","Tube_Glue.jpg","3",".","37","0","503"
"11","11","encoding","encoding","153","Canister_Oil.jpg","3",".","37","0","449"
"11","11","encoding","encoding","154","Acorn.jpg","3",".","36","0","590"
"11","11","encoding","encoding","155","Fork_Regular.jpg","3",".","37","0","419"
"11","11","encoding","encoding","156","Thermometer_Room.jpg","1",".","37","0","431"
"11","11","encoding","encoding","157","Toy_PandaPlushie.jpg","3",".","37","0","694"
"11","11","encoding","encoding","158","LicensePlate.jpg","3",".","37","0","459"
"11","11","encoding","encoding","159","Carousel.jpg","3",".","37","0","469"
"11","11","encoding","encoding","160","Lighter_Black.jpg","3",".","37","0","392"
"11","11","encoding","encoding","161","HoseNozzle.jpg","3",".","37","0","382"
"11","11","encoding","encoding","162","Cup_Bathroom.jpg","3",".","37","0","460"
"11","11","encoding","encoding","163","SatelliteDish.jpg","3",".","37","0","412"
"11","11","encoding","encoding","164","Tube_Glue.jpg","3",".","37","0","426"
"11","11","encoding","encoding","165","Cake_Cheese.jpg","3",".","37","0","535"
"11","11","encoding","encoding","166","PencilCase.jpg","3",".","37","0","379"
"11","11","encoding","encoding","167","DogSled.jpg","3",".","37","0","539"
"11","11","encoding","encoding","168","Television.jpg","1",".","37","0","609"
"11","11","encoding","encoding","169","Helmet_Motorcycle.jpg","3",".","37","0","423"
"11","11","encoding","encoding","170","CoffeeLid.jpg","3",".","37","0","555"
"11","11","encoding","encoding","171","Handbag.jpg","3",".","37","0","388"
"11","11","encoding","encoding","172","PumiceStone.jpg","3",".","37","0","554"
"11","11","encoding","encoding","173","Briefcase_Silver.jpg","3",".","37","0","533"
"11","11","encoding","encoding","174","Helmet_Football.jpg","1",".","37","0","436"
"11","11","encoding","encoding","175","Earring_Hoop.jpg","3",".","37","0","435"
"11","11","encoding","encoding","176","Toy_Truck.jpg","1",".","37","0","419"
"11","11","encoding","encoding","177","Candy_Toffee.jpg","3",".","37","0","732"
"11","11","encoding","encoding","178","Cymbals.jpg","1",".","37","0","464"
"11","11","encoding","encoding","179","IceCream_Popsicle.jpg","3",".","37","0","727"
"11","11","encoding","encoding","180","Toy_MerryGoRound.jpg","1",".","37","0","479"
"11","11","encoding","encoding","181","Radish.jpg","3",".","36","0","546"
"11","11","encoding","encoding","182","Compact_Mirror.jpg","3",".","37","0","473"
"11","11","encoding","encoding","183","Briefcase_Silver.jpg","3",".","37","0","429"
"11","11","encoding","encoding","184","Platter_Vegetables.jpg","3",".","36","0","648"
"11","11","encoding","encoding","185","Hat_Colonial.jpg","3",".","37","0","648"
"11","11","encoding","encoding","186","Radish.jpg","3",".","36","0","511"
"11","11","encoding","encoding","187","AirCompressor.jpg","1",".","37","0","453"
"11","11","encoding","encoding","188","Platter_Vegetables.jpg","3",".","36","0","582"
"11","11","encoding","encoding","189","Envelope_Manila.jpg","1",".","37","0","495"
"11","11","encoding","encoding","190","Crab.jpg","3",".","36","0","537"
"11","11","encoding","encoding","191","HairCurler.jpg","3",".","37","0","624"
"11","11","encoding","encoding","192","SofaAntique.jpg","1",".","37","0","438"
"11","11","encoding","encoding","193","Hockey_Puck.jpg","3",".","37","0","425"
"11","11","encoding","encoding","194","Tube_Paint.jpg","3",".","37","0","512"
"11","11","encoding","encoding","195","SolderingWire.jpg","3",".","37","0","432"
"11","11","encoding","encoding","196","Bandage_Adhesive.jpg","1",".","37","0","535"
"11","11","encoding","encoding","197","Cinnamonroll.jpg","3",".","37","0","924"
"11","11","encoding","encoding","199","Bucket_Halloween.jpg","3",".","37","0","523"
"11","11","encoding","encoding","200","ProjectorScreen.jpg","3",".","37","0","408"
"11","11","encoding","encoding","201","Bus_School.jpg","3",".","37","0","430"
"11","11","encoding","encoding","202","Bone.jpg","3",".","36","0","675"
"11","11","encoding","encoding","203","Can_Oblong.jpg","3",".","37","0","535"
"11","11","encoding","encoding","204","Earring_Hoop.jpg","3",".","37","0","458"
"11","11","encoding","encoding","205","Toy_PandaPlushie.jpg","3",".","37","0","561"
"11","11","encoding","encoding","206","AirPump.jpg","3",".","37","0","420"
"11","11","encoding","encoding","207","Brush_Light.jpg","3",".","37","0","401"
"11","11","encoding","encoding","208","Spear.jpg","1",".","37","0","456"
"11","11","encoding","encoding","209","TortillaChip.jpg","1",".","37","0","657"
"11","11","encoding","encoding","210","Bread_Loaf.jpg","3",".","37","0","586"
"11","11","encoding","encoding","211","DogSled.jpg","3",".","37","0","526"
"11","11","encoding","encoding","212","Brush_Light.jpg","3",".","37","0","430"
"11","11","encoding","encoding","213","Barometer.jpg","3",".","37","0","389"
"11","11","encoding","encoding","214","Light_Studio.jpg","3",".","37","0","440"
"11","11","encoding","encoding","215","Sign_Construction.jpg","3",".","37","0","411"
"11","11","encoding","encoding","216","Candy_Lozenge.jpg","3",".","37","0","504"
"11","11","encoding","encoding","217","DoubleBass.jpg","3",".","37","0","375"
"11","11","encoding","encoding","218","Mask_HockeyGoalie.jpg","1",".","37","0","476"
"11","11","encoding","encoding","219","MousepadAndMouse.jpg","3",".","37","0","430"
"11","11","encoding","encoding","220","DogSled.jpg","3",".","37","0","518"
"11","11","encoding","encoding","221","PagodaModel.jpg","3",".","37","0","390"
"11","11","encoding","encoding","222","Barometer.jpg","3",".","37","0","390"
"11","11","encoding","encoding","223","Desk_White.jpg","1",".","37","0","449"
"11","11","encoding","encoding","224","ProjectorScreen.jpg","3",".","37","0","399"
"11","11","encoding","encoding","225","PagodaModel.jpg","3",".","37","0","378"
"11","11","encoding","encoding","226","PencilCase.jpg","3",".","37","0","447"
"11","11","encoding","encoding","227","ManholeCover.jpg","1",".","37","0","352"
"11","11","encoding","encoding","228","Bread_Loaf.jpg","3",".","37","0","498"
"11","11","encoding","encoding","229","SolderingWire.jpg","3",".","37","0","378"
"11","11","encoding","encoding","230","Case_Pencil.jpg","3",".","37","0","444"
"11","11","encoding","encoding","231","Table_Saw.jpg","3",".","37","0","404"
"11","11","encoding","encoding","232","PumiceStone.jpg","3",".","36","0","682"
"11","11","encoding","encoding","233","MemoPaperSpike.jpg","3",".","37","0","523"
"11","11","encoding","encoding","234","Weathervane.jpg","1",".","37","0","429"
"11","11","encoding","encoding","235","Castle_Sand.jpg","1",".","37","0","543"
"11","11","encoding","encoding","236","Van.jpg","1",".","37","0","667"
"11","11","encoding","encoding","237","Nuts_Pecan.jpg","1",".","0","0","1000"
"11","11","encoding","encoding","238","MetalDetector.jpg","3",".","37","0","500"
"11","11","encoding","encoding","239","Mask_Ski.jpg","3",".","37","0","630"
"11","11","encoding","encoding","240","PencilCase.jpg","3",".","37","0","505"
"11","11","encoding","encoding","241","Oars.jpg","1",".","37","0","488"
"11","11","encoding","encoding","242","Helmet_Motorcycle.jpg","3",".","37","0","467"
"11","11","encoding","encoding","243","Lollipop_Rainbow.jpg","1",".","37","0","756"
"11","11","encoding","encoding","244","Hubcap.jpg","3",".","37","0","441"
"11","11","encoding","encoding","245","Cart_Janitor.jpg","3",".","37","0","468"
"11","11","encoding","encoding","246","Scythe.jpg","1",".","37","0","436"
"11","11","encoding","encoding","247","Hubcap.jpg","3",".","37","0","438"
"11","11","encoding","encoding","248","Jar_Honey.jpg","3",".","36","0","791"
"11","11","encoding","encoding","249","PyramidWooden.jpg","1",".","37","0","476"
"11","11","encoding","encoding","250","Amp.jpg","3",".","37","0","629"
"11","11","encoding","encoding","251","Bat_Cricket.jpg","3",".","37","0","566"
"11","11","encoding","encoding","252","Cinnamonroll.jpg","3",".","37","0","638"
"11","11","encoding","encoding","253","MemoPaperSpike.jpg","3",".","37","0","487"
"11","11","encoding","encoding","254","Bat_Cricket.jpg","3",".","37","0","609"
"11","11","encoding","encoding","255","Arch_Triomphe.jpg","1",".","37","0","453"
"11","11","encoding","encoding","256","Bread_Loaf.jpg","3",".","37","0","530"
"11","11","encoding","encoding","257","Lens_Camera.jpg","1",".","37","0","474"
"11","11","encoding","encoding","258","Branch.jpg","1",".","36","0","734"
"11","11","encoding","encoding","259","Mug_Travel.jpg","1",".","37","0","405"
"11","11","encoding","encoding","260","Hockey_Puck.jpg","3",".","37","0","477"
"11","11","encoding","encoding","261","FireAlarm.jpg","1",".","37","0","602"
"11","11","encoding","encoding","262","Bread_Roll.jpg","3",".","37","0","566"
"11","11","encoding","encoding","263","ProjectorScreen.jpg","3",".","37","0","455"
"11","11","encoding","encoding","265","AirPump.jpg","3",".","37","0","466"
"11","11","encoding","encoding","266","Tube_Glue.jpg","3",".","37","0","421"
"11","11","encoding","encoding","267","Corkboard.jpg","1",".","37","0","450"
"11","11","encoding","encoding","268","Light_Halogen.jpg","1",".","37","0","421"
"11","11","encoding","encoding","269","Wontons.jpg","3",".","37","0","819"
"11","11","encoding","encoding","270","DoubleBass.jpg","3",".","37","0","602"
"11","11","encoding","encoding","271","Cinnamonroll.jpg","3",".","37","0","648"
"11","11","encoding","encoding","272","Milkshake_Strawberry.jpg","3",".","37","0","561"
"11","11","encoding","encoding","273","Case_Pencil.jpg","3",".","37","0","577"
"11","11","encoding","encoding","274","MousepadAndMouse.jpg","3",".","37","0","495"
"11","11","encoding","encoding","275","Mask_Ski.jpg","3",".","37","0","505"
"11","11","encoding","encoding","276","Stone_AncientWriting.jpg","3",".","36","0","935"
"11","11","encoding","encoding","277","Bird_Duck.jpg","1",".","36","0","713"
"11","11","encoding","encoding","278","Chair_Office.jpg","1",".","37","0","418"
"11","11","encoding","encoding","279","Bowl_Glass.jpg","1",".","37","0","407"
"11","11","encoding","encoding","280","Glass_Beer.jpg","3",".","37","0","382"
"11","11","encoding","encoding","281","IceCream_Popsicle.jpg","3",".","37","0","749"
"11","11","encoding","encoding","282","Cassette_Video.jpg","1",".","37","0","378"
"11","11","encoding","encoding","283","PocketKnife.jpg","3",".","37","0","410"
"11","11","encoding","encoding","284","MetalDetector.jpg","3",".","37","0","390"
"11","11","encoding","encoding","285","Candy_Toffee.jpg","3",".","37","0","589"
"11","11","encoding","encoding","286","CoffeeLid.jpg","3",".","37","0","415"
"11","11","encoding","encoding","287","Clave.jpg","3",".","37","0","447"
"11","11","encoding","encoding","288","Cup_Bathroom.jpg","3",".","37","0","453"
"11","11","encoding","encoding","289","Stone_AncientWriting.jpg","3",".","36","0","662"
"11","11","encoding","encoding","290","Ship_Cruise.jpg","3",".","37","0","433"
"11","11","encoding","encoding","291","Statue_Horse.jpg","3",".","37","0","446"
"11","11","encoding","encoding","292","Hubcap.jpg","3",".","37","0","373"
"11","11","encoding","encoding","293","Lighter_Black.jpg","3",".","37","0","421"
"11","11","encoding","encoding","294","Toy_PandaPlushie.jpg","3",".","37","0","545"
"11","11","encoding","encoding","295","Candy_Lozenge.jpg","3",".","37","0","435"
"11","11","encoding","encoding","296","Bread_Melon.jpg","3",".","37","0","587"
"11","11","encoding","encoding","297","Box_FirstAid.jpg","3",".","0","0","1000"
"11","11","encoding","encoding","298","Cake_Cheese.jpg","3",".","37","0","629"
"11","11","encoding","encoding","299","Table_Saw.jpg","3",".","37","0","533"
"11","11","encoding","encoding","300","Amp.jpg","3",".","37","0","381"
"11","11","encoding","encoding","301","PumiceStone.jpg","3",".","36","0","605"
"11","11","encoding","encoding","302","Cart_Janitor.jpg","3",".","37","0","409"
"11","11","encoding","encoding","303","DoubleBass.jpg","3",".","37","0","379"
"11","11","encoding","encoding","304","Flags_CheckeredRacing.jpg","3",".","37","0","424"
"11","11","encoding","encoding","305","Bone.jpg","3",".","36","0","622"
"11","11","encoding","encoding","306","Bottle_Beer.jpg","3",".","37","0","409"
"11","11","encoding","encoding","307","Trash_Medical.jpg","3",".","37","0","447"
"11","11","encoding","encoding","308","Clave.jpg","3",".","37","0","424"
"11","11","encoding","encoding","309","Bleachers.jpg","1",".","37","0","504"
"11","11","encoding","encoding","310","IceCream_Popsicle.jpg","3",".","37","0","506"
"11","11","encoding","encoding","311","CoffeeLid.jpg","3",".","37","0","456"
"11","11","encoding","encoding","312","Microwave.jpg","3",".","37","0","475"
"11","11","encoding","encoding","313","Bus_School.jpg","3",".","37","0","431"
"11","11","encoding","encoding","314","Can_Oblong.jpg","3",".","37","0","490"
"11","11","encoding","encoding","315","PulleyWooden.jpg","3",".","37","0","501"
"11","11","encoding","encoding","316","Bucket_Halloween.jpg","3",".","37","0","544"
"11","11","encoding","encoding","317","Mask_Ski.jpg","3",".","37","0","471"
"11","11","encoding","encoding","318","Can_Oblong.jpg","3",".","37","0","366"
"11","11","encoding","encoding","319","Microwave.jpg","3",".","37","0","397"
"11","11","encoding","encoding","320","Glass_Beer.jpg","3",".","37","0","387"
"11","11","encoding","encoding","321","Stool_Metal.jpg","1",".","37","0","371"
"11","11","encoding","encoding","322","Walker_Blue.jpg","1",".","37","0","466"
"11","11","encoding","encoding","323","Hanger.jpg","3",".","37","0","491"
"11","11","encoding","encoding","324","Umbrella_Classic.jpg","1",".","37","0","544"
"11","11","encoding","encoding","325","Tube_Paint.jpg","",".","37","0","450"
"11","11","retrieval","new_object","1","Sphinx.jpg",".",".","37","1","1461"
"11","11","retrieval","new_object","2","Toy_Taxi.jpg",".",".","37","1","1423"
"11","11","retrieval","old_object","3","Brush_Light.jpg",".","3","36","1","672"
"11","11","retrieval","old_object","4","Mask_Ski.jpg",".","3","36","1","744"
"11","11","retrieval","new_object","5","Blueberry.jpg",".",".","37","1","825"
"11","11","retrieval","old_object","6","Bread_Carrot.jpg",".","1","36","1","1086"
"11","11","retrieval","old_object","7","MousepadAndMouse.jpg",".","3","36","1","1050"
"11","11","retrieval","old_object","8","Cake_Cheese.jpg",".","3","36","1","1083"
"11","11","retrieval","old_object","9","Mailbox_Antique.jpg",".","1","37","0","592"
"11","11","retrieval","new_object","10","WaterCooler.jpg",".",".","37","1","1155"
"11","11","retrieval","new_object","11","DeepFryer.jpg",".",".","37","1","1018"
"11","11","retrieval","new_object","12","Boar.jpg",".",".","37","1","712"
"11","11","retrieval","old_object","13","DogSled.jpg",".","3","36","1","745"
"11","11","retrieval","old_object","14","Hedgehog.jpg",".","1","36","1","763"
"11","11","retrieval","new_object","15","Hat_Police.jpg",".",".","37","1","778"
"11","11","retrieval","old_object","16","Binder.jpg",".","1","37","0","826"
"11","11","retrieval","old_object","17","Light_Studio.jpg",".","3","36","1","807"
"11","11","retrieval","old_object","18","Bible.jpg",".","1","36","1","814"
"11","11","retrieval","new_object","19","Otoscope.jpg",".",".","37","1","1147"
"11","11","retrieval","old_object","20","Candy_Toffee.jpg",".","3","36","1","876"
"11","11","retrieval","old_object","21","Tube_Glue.jpg",".","3","36","1","689"
"11","11","retrieval","new_object","22","TowelRack_Metal.jpg",".",".","37","1","796"
"11","11","retrieval","old_object","23","SatelliteDish.jpg",".","3","36","1","855"
"11","11","retrieval","new_object","24","Carrot.jpg",".",".","37","1","698"
"11","11","retrieval","old_object","25","Cup_Bathroom.jpg",".","3","36","1","795"
"11","11","retrieval","old_object","26","AirCompressor.jpg",".","1","36","1","1125"
"11","11","retrieval","new_object","27","Compressor.jpg",".",".","36","0","1389"
"11","11","retrieval","old_object","28","TailLight.jpg",".","3","37","0","819"
"11","11","retrieval","new_object","29","VacuumHose.jpg",".",".","36","0","1445"
"11","11","retrieval","old_object","30","Case_Pencil.jpg",".","3","37","0","960"
"11","11","retrieval","old_object","31","Helmet_Football.jpg",".","1","37","0","1390"
"11","11","retrieval","old_object","32","Bleachers.jpg",".","1","36","1","894"
"11","11","retrieval","new_object","33","Toy_DonkeyFur.jpg",".",".","37","1","851"
"11","11","retrieval","old_object","34","Flags_CheckeredRacing.jpg",".","3","36","1","912"
"11","11","retrieval","new_object","35","Tray_Metal.jpg",".",".","37","1","892"
"11","11","retrieval","new_object","36","Camera_Video.jpg",".",".","37","1","966"
"11","11","retrieval","old_object","37","Taco.jpg",".","1","36","1","946"
"11","11","retrieval","new_object","38","Ostrich.jpg",".",".","37","1","836"
"11","11","retrieval","old_object","39","Ship_Cruise.jpg",".","3","36","1","784"
"11","11","retrieval","new_object","40","HairBand.jpg",".",".","37","1","586"
"11","11","retrieval","new_object","41","SoapDish.jpg",".",".","37","1","665"
"11","11","retrieval","old_object","42","Stool_Metal.jpg",".","1","36","1","750"
"11","11","retrieval","new_object","43","Protractor.jpg",".",".","37","1","621"
"11","11","retrieval","new_object","44","Celery.jpg",".",".","37","1","718"
"11","11","retrieval","new_object","45","Bucket_WoodenLight.jpg",".",".","37","1","756"
"11","11","retrieval","old_object","46","Cart_Janitor.jpg",".","3","36","1","912"
"11","11","retrieval","old_object","47","Bread_Roll.jpg",".","3","36","1","861"
"11","11","retrieval","old_object","48","Box_FirstAid.jpg",".","3","36","1","704"
"11","11","retrieval","new_object","49","Coin.jpg",".",".","37","1","742"
"11","11","retrieval","old_object","50","Statue_Man.jpg",".","1","37","0","968"
"11","11","retrieval","new_object","51","CDstack.jpg",".",".","37","1","753"
"11","11","retrieval","old_object","52","Glass_Beer.jpg",".","3","36","1","722"
"11","11","retrieval","new_object","53","Clippers_Glass.jpg",".",".","36","0","844"
"11","11","retrieval","new_object","54","Toy_Bat.jpg",".",".","37","1","570"
"11","11","retrieval","old_object","55","Toy_PandaPlushie.jpg",".","3","36","1","699"
"11","11","retrieval","old_object","56","Bucket_Halloween.jpg",".","3","36","1","604"
"11","11","retrieval","new_object","57","TowelRack_Brown.jpg",".",".","36","0","772"
"11","11","retrieval","new_object","58","Stone_Spa.jpg",".",".","37","1","759"
"11","11","retrieval","old_object","59","Spatula.jpg",".","1","36","1","718"
"11","11","retrieval","new_object","60","Stick_Stirring.jpg",".",".","37","1","613"
"11","11","retrieval","new_object","61","Canister_Tea.jpg",".",".","37","1","667"
"11","11","retrieval","new_object","62","Broccoli.jpg",".",".","37","1","656"
"11","11","retrieval","old_object","63","Van.jpg",".","1","37","0","802"
"11","11","retrieval","old_object","64","Bandage_Adhesive.jpg",".","1","36","1","679"
"11","11","retrieval","new_object","65","Box_Cutlery.jpg",".",".","37","1","702"
"11","11","retrieval","old_object","67","LicensePlate.jpg",".","3","36","1","792"
"11","11","retrieval","old_object","68","Gecko.jpg",".","1","36","1","741"
"11","11","retrieval","new_object","69","Toy_Wooden rings.jpg",".",".","37","1","733"
"11","11","retrieval","new_object","70","Balcony.jpg",".",".","37","1","653"
"11","11","retrieval","new_object","71","Seeder.jpg",".",".","36","0","799"
"11","11","retrieval","new_object","72","Card_Deck.jpg",".",".","37","1","622"
"11","11","retrieval","old_object","73","Tube_Paint.jpg",".","3","36","1","1032"
"11","11","retrieval","old_object","74","Handbag.jpg",".","3","37","0","1445"
"11","11","retrieval","old_object","75","ManholeCover.jpg",".","1","37","0","826"
"11","11","retrieval","new_object","76","Level.jpg",".",".","37","1","866"
"11","11","retrieval","new_object","77","Toy_Firetruck.jpg",".",".","37","1","637"
"11","11","retrieval","old_object","78","PocketKnife.jpg",".","3","36","1","695"
"11","11","retrieval","old_object","79","Oars.jpg",".","1","36","1","622"
"11","11","retrieval","old_object","80","Helmet_Motorcycle.jpg",".","3","36","1","699"
"11","11","retrieval","old_object","81","Canister_Oil.jpg",".","3","37","0","896"
"11","11","retrieval","new_object","82","Squash_Butternut.jpg",".",".","37","1","688"
"11","11","retrieval","new_object","83","WalkieTalkie_Yellow.jpg",".",".","37","1","618"
"11","11","retrieval","new_object","84","Sink_Kitchen.jpg",".",".","37","1","675"
"11","11","retrieval","old_object","85","Bus_School.jpg",".","3","36","1","586"
"11","11","retrieval","new_object","86","TelescopeSpacecraft.jpg",".",".","37","1","1014"
"11","11","retrieval","new_object","87","Pasta_Fettuccine.jpg",".",".","37","1","701"
"11","11","retrieval","old_object","88","Statue_Horse.jpg",".","3","36","1","654"
"11","11","retrieval","new_object","89","Toy_BeadMaze.jpg",".",".","36","0","789"
"11","11","retrieval","old_object","90","IceCream_Popsicle.jpg",".","3","36","1","601"
"11","11","retrieval","old_object","91","BumperCar.jpg",".","1","37","0","609"
"11","11","retrieval","new_object","92","Clamp_Screw.jpg",".",".","36","0","806"
"11","11","retrieval","old_object","93","Hanger.jpg",".","3","36","1","678"
"11","11","retrieval","new_object","94","Paddle_Ball.jpg",".",".","37","1","687"
"11","11","retrieval","new_object","95","Coral.jpg",".",".","37","1","1065"
"11","11","retrieval","new_object","96","Mask_VenetianCat.jpg",".",".","37","1","614"
"11","11","retrieval","old_object","97","HairCurler.jpg",".","3","36","1","765"
"11","11","retrieval","new_object","98","Backhoe.jpg",".",".","37","1","672"
"11","11","retrieval","old_object","99","Mailbox_Community.jpg",".","1","37","0","885"
"11","11","retrieval","new_object","100","Card_TwoSpade.jpg",".",".","37","1","1075"
"11","11","retrieval","old_object","101","Cinnamonroll.jpg",".","3","36","1","730"
"11","11","retrieval","new_object","102","Barrel_Wine.jpg",".",".","37","1","697"
"11","11","retrieval","old_object","103","Briefcase_Silver.jpg",".","3","36","1","685"
"11","11","retrieval","old_object","104","Barometer_Wood.jpg",".","1","37","0","597"
"11","11","retrieval","old_object","105","Umbrella_Classic.jpg",".","1","37","0","774"
"11","11","retrieval","old_object","106","CodeDoorLock.jpg",".","1","37","0","1278"
"11","11","retrieval","new_object","107","Ruler_Wooden.jpg",".",".","37","1","1180"
"11","11","retrieval","new_object","108","SnowmanDecor.jpg",".",".","37","1","685"
"11","11","retrieval","new_object","109","WaterHeater.jpg",".",".","37","1","828"
"11","11","retrieval","old_object","110","Candy_Lozenge.jpg",".","3","36","1","613"
"11","11","retrieval","new_object","111","Lobster.jpg",".",".","36","0","785"
"11","11","retrieval","new_object","112","Suit_Women.jpg",".",".","37","1","544"
"11","11","retrieval","old_object","113","Bag_Diaper.jpg",".","1","37","0","628"
"11","11","retrieval","new_object","114","Fan_Straw.jpg",".",".","37","1","736"
"11","11","retrieval","new_object","115","Toy_Rooster.jpg",".",".","37","1","724"
"11","11","retrieval","new_object","116","Bag_Toiletry.jpg",".",".","36","0","949"
"11","11","retrieval","new_object","117","ClothesDryingRack.jpg",".",".","37","1","582"
"11","11","retrieval","old_object","118","Backpack_Suitcase.jpg",".","1","37","0","894"
"11","11","retrieval","old_object","119","MetalDetector.jpg",".","3","36","1","810"
"11","11","retrieval","old_object","120","SolderingWire.jpg",".","3","36","1","707"
"11","11","retrieval","old_object","121","Radish.jpg",".","3","36","1","635"
"11","11","retrieval","old_object","122","Clave.jpg",".","3","36","1","652"
"11","11","retrieval","old_object","123","Branch.jpg",".","1","36","1","675"
"11","11","retrieval","new_object","124","Box_WoodCrate.jpg",".",".","37","1","613"
"11","11","retrieval","old_object","125","Bread_Loaf.jpg",".","3","36","1","655"
"11","11","retrieval","new_object","126","Heater_Outdoor.jpg",".",".","36","0","764"
"11","11","retrieval","old_object","127","Stove_WithOven.jpg",".","1","37","0","583"
"11","11","retrieval","new_object","128","ShinPads.jpg",".",".","37","1","721"
"11","11","retrieval","old_object","129","TortillaChip.jpg",".","1","36","1","635"
"11","11","retrieval","old_object","130","Carabiner_Orange.jpg",".","1","36","1","908"
"11","11","retrieval","new_object","131","NailFiles.jpg",".",".","37","1","588"
"11","11","retrieval","old_object","133","Barometer.jpg",".","3","36","1","979"
"11","11","retrieval","old_object","134","Ladybug.jpg",".","1","37","0","776"
"11","11","retrieval","new_object","135","Speakers_Theatre.jpg",".",".","37","1","769"
"11","11","retrieval","old_object","136","Bread_Melon.jpg",".","3","36","1","724"
"11","11","retrieval","old_object","137","GasStation.jpg",".","3","36","1","853"
"11","11","retrieval","old_object","138","Bat_Cricket.jpg",".","3","36","1","762"
"11","11","retrieval","old_object","139","Desk_White.jpg",".","1","37","0","522"
"11","11","retrieval","new_object","140","Makeup_Bag.jpg",".",".","37","1","561"
"11","11","retrieval","old_object","141","Scythe.jpg",".","1","36","1","665"
"11","11","retrieval","old_object","142","Mask_HockeyGoalie.jpg",".","1","36","1","695"
"11","11","retrieval","old_object","143","Aquarium.jpg",".","1","36","1","1164"
"11","11","retrieval","old_object","144","Cannon.jpg",".","1","37","0","849"
"11","11","retrieval","old_object","145","Weathervane.jpg",".","1","37","0","762"
"11","11","retrieval","new_object","146","PaperTowel_Brown.jpg",".",".","37","1","940"
"11","11","retrieval","old_object","147","Wontons.jpg",".","3","36","1","964"
"11","11","retrieval","new_object","148","Dog_Bulldog.jpg",".",".","37","1","686"
"11","11","retrieval","new_object","149","GrillRack.jpg",".",".","36","0","752"
"11","11","retrieval","old_object","150","Cassette_Video.jpg",".","1","36","1","716"
"11","11","retrieval","new_object","151","Puzzle_Animal.jpg",".",".","37","1","678"
"11","11","retrieval","old_object","152","SolderingIron.jpg",".","1","37","0","625"
"11","11","retrieval","new_object","153","Candleholder_LampShaped.jpg",".",".","37","1","773"
"11","11","retrieval","new_object","154","Cheeseburger.jpg",".",".","37","1","628"
"11","11","retrieval","old_object","155","House_Wooden.jpg",".","1","37","0","653"
"11","11","retrieval","old_object","156","Hat_Colonial.jpg",".","3","36","1","687"
"11","11","retrieval","new_object","157","SaladCaesar.jpg",".",".","37","1","651"
"11","11","retrieval","new_object","158","Airplane_Small.jpg",".",".","37","1","746"
"11","11","retrieval","new_object","159","ComputerKey_Escape.jpg",".",".","37","1","535"
"11","11","retrieval","old_object","160","Amp.jpg",".","3","36","1","735"
"11","11","retrieval","old_object","161","PulleyWooden.jpg",".","3","36","1","684"
"11","11","retrieval","new_object","162","Lips_Wax.jpg",".",".","37","1","636"
"11","11","retrieval","old_object","163","sign_traffic.jpg",".","1","36","1","701"
"11","11","retrieval","new_object","164","Shoes_Mould.jpg",".",".","37","1","877"
"11","11","retrieval","new_object","165","Toy_Christmastree.jpg",".",".","37","1","621"
"11","11","retrieval","new_object","166","Toy_Dog.jpg",".",".","37","1","662"
"11","11","retrieval","old_object","167","DartBoard.jpg",".","1","36","1","762"
"11","11","retrieval","old_object","168","Cymbals.jpg",".","1","37","0","799"
"11","11","retrieval","new_object","169","CarLighter.jpg",".",".","37","1","852"
"11","11","retrieval","old_object","170","CoffeeLid.jpg",".","3","36","1","882"
"11","11","retrieval","old_object","171","Toy_Truck.jpg",".","1","36","1","778"
"11","11","retrieval","new_object","172","RecorderInstrument.jpg",".",".","37","1","597"
"11","11","retrieval","old_object","173","Sign_Construction.jpg",".","3","36","1","571"
"11","11","retrieval","new_object","174","OperaGlasses.jpg",".",".","37","1","885"
"11","11","retrieval","new_object","175","Stool_Camping.jpg",".",".","36","0","692"
"11","11","retrieval","new_object","176","Flashlight.jpg",".",".","37","1","745"
"11","11","retrieval","old_object","177","Walker_Blue.jpg",".","1","36","1","901"
"11","11","retrieval","new_object","178","Drum_Ramadan.jpg",".",".","37","1","647"
"11","11","retrieval","old_object","179","Heelpad.jpg",".","3","36","1","715"
"11","11","retrieval","old_object","180","Can_Oblong.jpg",".","3","36","1","879"
"11","11","retrieval","old_object","181","PyramidWooden.jpg",".","1","36","1","746"
"11","11","retrieval","old_object","182","Crab.jpg",".","3","36","1","779"
"11","11","retrieval","old_object","183","Hubcap.jpg",".","3","37","0","717"
"11","11","retrieval","old_object","184","LifeJacket_Orangejpg.jpg",".","1","37","0","694"
"11","11","retrieval","new_object","185","MortarPestle_WhiteMarble.jpg",".",".","36","0","880"
"11","11","retrieval","new_object","186","Stick_IceHockey.jpg",".",".","37","1","823"
"11","11","retrieval","new_object","187","FuzzyDice.jpg",".",".","37","1","675"
"11","11","retrieval","new_object","188","Snorkle.jpg",".",".","36","0","810"
"11","11","retrieval","old_object","189","Bone.jpg",".","3","36","1","529"
"11","11","retrieval","new_object","190","ShoeLace_Flat.jpg",".",".","37","1","742"
"11","11","retrieval","old_object","191","RAMchip.jpg",".","1","37","0","1160"
"11","11","retrieval","old_object","192","Stone_AncientWriting.jpg",".","3","36","1","566"
"11","11","retrieval","new_object","193","Glasses_Sun.jpg",".",".","37","1","743"
"11","11","retrieval","old_object","194","Barbecue_Charcoal.jpg",".","3","36","1","1024"
"11","11","retrieval","new_object","195","Scorpion.jpg",".",".","37","1","607"
"11","11","retrieval","new_object","196","Ginger.jpg",".",".","37","1","752"
"11","11","retrieval","new_object","197","Garlic_Clove.jpg",".",".","37","1","798"
"11","11","retrieval","new_object","199","Bagpipes.jpg",".",".","37","1","648"
"11","11","retrieval","old_object","200","Wire_ElectricalSingle.jpg",".","1","37","0","682"
"11","11","retrieval","new_object","201","IceCubes.jpg",".",".","37","1","714"
"11","11","retrieval","new_object","202","Hat_Feather.jpg",".",".","37","1","571"
"11","11","retrieval","old_object","203","Bowl_Glass.jpg",".","1","36","1","672"
"11","11","retrieval","new_object","204","Bicycle_Kids.jpg",".",".","37","1","966"
"11","11","retrieval","new_object","205","Pear_Green.jpg",".",".","37","1","593"
"11","11","retrieval","old_object","206","Toy_MerryGoRound.jpg",".","1","36","1","622"
"11","11","retrieval","new_object","207","Computer_ExpansionCard.jpg",".",".","37","1","861"
"11","11","retrieval","old_object","208","Toy_LambPlushie.jpg",".","1","37","0","736"
"11","11","retrieval","old_object","209","WateringCan_Antique.jpg",".","1","37","0","795"
"11","11","retrieval","old_object","210","Toy_Lizard.jpg",".","1","37","0","882"
"11","11","retrieval","old_object","211","Microwave.jpg",".","3","36","1","632"
"11","11","retrieval","old_object","212","Carousel.jpg",".","3","36","1","699"
"11","11","retrieval","new_object","213","Walkman.jpg",".",".","37","1","641"
"11","11","retrieval","new_object","214","Dice.jpg",".",".","37","1","713"
"11","11","retrieval","new_object","215","Toy_Ladybug.jpg",".",".","37","1","674"
"11","11","retrieval","new_object","216","Cloud.jpg",".",".","37","1","694"
"11","11","retrieval","new_object","217","Lynx.jpg",".",".","37","1","652"
"11","11","retrieval","new_object","218","Tray_Medical.jpg",".",".","37","1","644"
"11","11","retrieval","new_object","219","Puffin.jpg",".",".","37","1","812"
"11","11","retrieval","new_object","220","Golf_Club.jpg",".",".","37","1","1051"
"11","11","retrieval","old_object","221","Toolbox_BlackOpen.jpg",".","1","37","0","882"
"11","11","retrieval","old_object","222","Makeup_Compact.jpg",".","1","36","1","644"
"11","11","retrieval","old_object","223","Platter_Vegetables.jpg",".","3","36","1","632"
"11","11","retrieval","new_object","224","Toy_TrailerAirport.jpg",".",".","37","1","948"
"11","11","retrieval","old_object","225","Envelope_Manila.jpg",".","1","36","1","541"
"11","11","retrieval","new_object","226","Jars_PetFood.jpg",".",".","37","1","571"
"11","11","retrieval","new_object","227","Snowpea.jpg",".",".","37","1","645"
"11","11","retrieval","old_object","228","Bottle_Beer.jpg",".","3","36","1","590"
"11","11","retrieval","old_object","229","Jar_Honey.jpg",".","3","36","1","717"
"11","11","retrieval","new_object","230","Notepad.jpg",".",".","37","1","773"
"11","11","retrieval","old_object","231","WaterWell.jpg",".","1","37","0","1069"
"11","11","retrieval","new_object","232","Desk_Office.jpg",".",".","37","1","754"
"11","11","retrieval","old_object","233","PencilCase.jpg",".","3","36","1","674"
"11","11","retrieval","new_object","234","Case_CD.jpg",".",".","37","1","712"
"11","11","retrieval","new_object","235","BrainSagittal.jpg",".",".","37","1","535"
"11","11","retrieval","old_object","236","SofaAntique.jpg",".","1","37","0","537"
"11","11","retrieval","old_object","237","Clock_Interior.jpg",".","1","36","1","665"
"11","11","retrieval","new_object","238","DonaldDuck_Toy.jpg",".",".","37","1","619"
"11","11","retrieval","old_object","239","Light_Halogen.jpg",".","1","36","1","702"
"11","11","retrieval","new_object","240","LintRemover.jpg",".",".","37","1","730"
"11","11","retrieval","new_object","241","IroningBoard.jpg",".",".","36","0","608"
"11","11","retrieval","new_object","242","VinylRecord.jpg",".",".","37","1","575"
"11","11","retrieval","old_object","243","Bark.jpg",".","1","36","1","835"
"11","11","retrieval","new_object","244","Mitt_Blue.jpg",".",".","37","1","736"
"11","11","retrieval","old_object","245","Thermometer_Room.jpg",".","1","37","0","799"
"11","11","retrieval","old_object","246","Television.jpg",".","1","37","0","802"
"11","11","retrieval","old_object","247","Mug_Travel.jpg",".","1","37","0","534"
"11","11","retrieval","new_object","248","Boat_Colourful.jpg",".",".","37","1","704"
"11","11","retrieval","old_object","249","Table_Saw.jpg",".","3","36","1","608"
"11","11","retrieval","old_object","250","CarSuspension.jpg",".","3","36","1","722"
"11","11","retrieval","new_object","251","Tape_Dispenser.jpg",".",".","37","1","681"
"11","11","retrieval","new_object","252","Nail.jpg",".",".","37","1","691"
"11","11","retrieval","new_object","253","Cologne.jpg",".",".","37","1","589"
"11","11","retrieval","new_object","254","LeafBlower.jpg",".",".","36","0","765"
"11","11","retrieval","new_object","255","Bowl_Chopsticks.jpg",".",".","37","1","596"
"11","11","retrieval","old_object","256","Lighter_Black.jpg",".","3","36","1","557"
"11","11","retrieval","new_object","257","Shrimp.jpg",".",".","37","1","740"
"11","11","retrieval","old_object","258","HoseNozzle.jpg",".","3","37","0","889"
"11","11","retrieval","old_object","259","Lens_Camera.jpg",".","1","37","0","703"
"11","11","retrieval","old_object","260","FireAlarm.jpg",".","1","36","1","586"
"11","11","retrieval","new_object","261","Car_Buggy.jpg",".",".","37","1","640"
"11","11","retrieval","old_object","262","Castle_Sand.jpg",".","1","36","1","758"
"11","11","retrieval","new_object","263","Sandwich_Ham.jpg",".",".","37","1","690"
"11","11","retrieval","new_object","265","Pouch_Red.jpg",".",".","37","1","1497"
"11","11","retrieval","old_object","266","MemoPaperSpike.jpg",".","3","36","1","843"
"11","11","retrieval","new_object","267","ColoringSet.jpg",".",".","37","1","803"
"11","11","retrieval","new_object","268","Bus_DoubleDecker.jpg",".",".","37","1","743"
"11","11","retrieval","new_object","269","HairClipper.jpg",".",".","37","1","751"
"11","11","retrieval","new_object","270","TreeStump.jpg",".",".","37","1","725"
"11","11","retrieval","old_object","271","MechanicalSpring.jpg",".","1","37","0","635"
"11","11","retrieval","new_object","272","Glove_Baseball.jpg",".",".","37","1","868"
"11","11","retrieval","old_object","273","SelfieStick.jpg",".","1","37","0","783"
"11","11","retrieval","old_object","274","Bird_Duck.jpg",".","1","37","0","1132"
"11","11","retrieval","old_object","275","Nuts_Pecan.jpg",".","1","36","1","1289"
"11","11","retrieval","old_object","276","SewingPin_Cushion.jpg",".","1","37","0","1313"
"11","11","retrieval","new_object","277","Dropper.jpg",".",".","37","1","795"
"11","11","retrieval","new_object","278","Toy_BearBrownPlushie.jpg",".",".","37","1","665"
"11","11","retrieval","new_object","279","PowderProtein.jpg",".",".","37","1","897"
"11","11","retrieval","new_object","280","Pyramid.jpg",".",".","36","0","866"
"11","11","retrieval","new_object","281","BowlingPin.jpg",".",".","36","0","1225"
"11","11","retrieval","new_object","282","Match.jpg",".",".","37","1","646"
"11","11","retrieval","new_object","283","Shovel_Garden.jpg",".",".","37","1","809"
"11","11","retrieval","new_object","284","RadioactiveContainer.jpg",".",".","37","1","945"
"11","11","retrieval","old_object","285","Lollipop_Rainbow.jpg",".","1","36","1","707"
"11","11","retrieval","old_object","286","Cable_JumpStart.jpg",".","1","37","0","721"
"11","11","retrieval","new_object","287","PumpBreast.jpg",".",".","37","1","781"
"11","11","retrieval","old_object","288","Tree_Fir.jpg",".","1","36","1","728"
"11","11","retrieval","old_object","289","AirPump.jpg",".","3","36","1","710"
"11","11","retrieval","new_object","290","Piano_Upright.jpg",".",".","37","1","886"
"11","11","retrieval","new_object","291","Paddle_Canoe.jpg",".",".","36","0","963"
"11","11","retrieval","old_object","292","PagodaModel.jpg",".","3","36","1","744"
"11","11","retrieval","old_object","293","Light_Fixtures.jpg",".","1","37","0","852"
"11","11","retrieval","new_object","294","EyeChart.jpg",".",".","37","1","625"
"11","11","retrieval","new_object","295","Shirt_Tshirt.jpg",".",".","37","1","629"
"11","11","retrieval","old_object","296","Acorn.jpg",".","3","36","1","579"
"11","11","retrieval","new_object","297","Decoration_ChristmasWhite.jpg",".",".","37","1","583"
"11","11","retrieval","new_object","298","Suitcase.jpg",".",".","37","1","659"
"11","11","retrieval","old_object","299","Trash_Medical.jpg",".","3","36","1","712"
"11","11","retrieval","new_object","300","PaperCutter.jpg",".",".","37","1","851"
"11","11","retrieval","old_object","301","Arch_Triomphe.jpg",".","1","37","0","620"
"11","11","retrieval","new_object","302","Dragonfly.jpg",".",".","37","1","679"
"11","11","retrieval","new_object","303","Pretzel_Sticks.jpg",".",".","37","1","820"
"11","11","retrieval","old_object","304","Earring_Hoop.jpg",".","3","36","1","745"
"11","11","retrieval","old_object","305","ProjectorScreen.jpg",".","3","36","1","767"
"11","11","retrieval","old_object","306","Milkshake_Strawberry.jpg",".","3","36","1","688"
"11","11","retrieval","old_object","307","Spear.jpg",".","1","36","1","1008"
"11","11","retrieval","new_object","308","FlintIgniter.jpg",".",".","37","1","849"
"11","11","retrieval","old_object","309","Chair_Office.jpg",".","1","37","0","819"
"11","11","retrieval","old_object","310","Compact_Mirror.jpg",".","3","36","1","778"
"11","11","retrieval","new_object","311","Helicopter.jpg",".",".","37","1","724"
"11","11","retrieval","old_object","312","Corkboard.jpg",".","1","36","1","942"
"11","11","retrieval","new_object","313","MatchBook.jpg",".",".","37","1","771"
"11","11","retrieval","old_object","314","Fork_Regular.jpg",".","3","36","1","989"
"11","11","retrieval","old_object","315","PumiceStone.jpg",".","3","36","1","563"
"11","11","retrieval","new_object","316","Heater_ElectricUpright.jpg",".",".","37","1","570"
"11","11","retrieval","old_object","317","DoubleBass.jpg",".","3","37","0","760"
"11","11","retrieval","new_object","318","PersonWooden.jpg",".",".","37","1","551"
"11","11","retrieval","old_object","319","Garlic_Whole.jpg",".","1","37","0","828"
"11","11","retrieval","new_object","320","Sign_SlipperyRoad.jpg",".",".","36","0","796"
"11","11","retrieval","old_object","321","Lantern_Chinese.jpg",".","3","36","1","832"
"11","11","retrieval","old_object","322","Hockey_Puck.jpg",".","3","36","1","923"
"11","11","retrieval","old_object","323","Brush_Light.jpg",".","","36","1","750"
"11","11","retrieval","new_object","324","Mat_Bamboo.jpg",".",".","37","1","907"
"11","11","retrieval","new_object","325","Neckrest.jpg",".",".","37","1","810"
"11","11","demographics_block","gender","1",".",".",".","female","1","27136"
"11","11","demographics_block","age","1",".",".",".","46","1","27136"
"11","11","demographics_block","education","1",".",".",".","Bachelors","1","27136"
"11","11","demographics_block","left_right_handed","2",".",".",".","Right","1","8105"
"11","11","demographics_block","raceoption1","2",".",".",".","0","1","8105"
"11","11","demographics_block","raceoption2","2",".",".",".","","1","8105"
"11","11","demographics_block","raceoption3","2",".",".",".","","1","8105"
"11","11","demographics_block","raceoption4","2",".",".",".","","1","8105"
"11","11","demographics_block","raceoption5","2",".",".",".","","1","8105"
"11","11","demographics_block","raceoption6","2",".",".",".","","1","8105"
"11","11","demographics_block","raceoption7","2",".",".",".","","1","8105"
"11","11","demographics_block","raceoption8","2",".",".",".","","1","8105"
"11","11","demographics_block","raceoption9","2",".",".",".","","1","8105"
"11","11","demographics_block","raceother","2",".",".",".","","1","8105"
"11","11","demographics_block","raceother","2",".",".",".","","1","8105"
"11","11","demographics_block","english_language","2",".",".",".","Yes","1","8105"
"11","11","demographics_block","other","2",".",".",".","","1","8105"
"11","11","demographics_block","eyesight","3",".",".",".","Yes","1","12333"
"11","11","demographics_block","colorblind","3",".",".",".","No","1","12333"
