"group","subject","blockcode","trialcode","trialnum","stimulus","encoding_condition","old_object_condition","response","correct","latency"
"13","13","encoding","encoding","1","Tube_Paint.jpg","3",".","0","0","1000"
"13","13","encoding","encoding","2","CarSuspension.jpg","3",".","36","0","511"
"13","13","encoding","encoding","3","GasStation.jpg","3",".","37","0","675"
"13","13","encoding","encoding","4","Barbecue_Charcoal.jpg","3",".","37","0","927"
"13","13","encoding","encoding","5","TailLight.jpg","3",".","37","0","911"
"13","13","encoding","encoding","6","Ship_Cruise.jpg","3",".","37","0","516"
"13","13","encoding","encoding","7","TailLight.jpg","3",".","37","0","693"
"13","13","encoding","encoding","8","Sign_Construction.jpg","3",".","37","0","552"
"13","13","encoding","encoding","9","Clock_Interior.jpg","1",".","37","0","600"
"13","13","encoding","encoding","10","Fork_Regular.jpg","3",".","37","0","704"
"13","13","encoding","encoding","11","WateringCan_Antique.jpg","1",".","37","0","789"
"13","13","encoding","encoding","12","Barometer.jpg","3",".","37","0","601"
"13","13","encoding","encoding","13","Bone.jpg","3",".","36","0","786"
"13","13","encoding","encoding","14","Flags_CheckeredRacing.jpg","3",".","37","0","766"
"13","13","encoding","encoding","15","Toolbox_BlackOpen.jpg","1",".","37","0","719"
"13","13","encoding","encoding","16","Tube_Paint.jpg","3",".","37","0","962"
"13","13","encoding","encoding","17","Toy_LambPlushie.jpg","1",".","0","0","1000"
"13","13","encoding","encoding","18","Aquarium.jpg","1",".","37","0","759"
"13","13","encoding","encoding","19","Statue_Horse.jpg","3",".","37","0","729"
"13","13","encoding","encoding","20","Handbag.jpg","3",".","37","0","791"
"13","13","encoding","encoding","21","Hedgehog.jpg","1",".","36","0","713"
"13","13","encoding","encoding","22","Candy_Toffee.jpg","3",".","36","0","783"
"13","13","encoding","encoding","23","Hanger.jpg","3",".","37","0","628"
"13","13","encoding","encoding","24","Clave.jpg","3",".","37","0","663"
"13","13","encoding","encoding","25","Light_Studio.jpg","3",".","37","0","514"
"13","13","encoding","encoding","26","Lantern_Chinese.jpg","3",".","37","0","492"
"13","13","encoding","encoding","27","Tree_Fir.jpg","1",".","36","0","739"
"13","13","encoding","encoding","28","Bottle_Beer.jpg","3",".","37","0","496"
"13","13","encoding","encoding","29","Bucket_Halloween.jpg","3",".","37","0","794"
"13","13","encoding","encoding","30","BumperCar.jpg","1",".","37","0","528"
"13","13","encoding","encoding","31","Fork_Regular.jpg","3",".","37","0","422"
"13","13","encoding","encoding","32","Heelpad.jpg","3",".","37","0","556"
"13","13","encoding","encoding","33","Crab.jpg","3",".","37","0","723"
"13","13","encoding","encoding","34","Acorn.jpg","3",".","36","0","721"
"13","13","encoding","encoding","35","Statue_Man.jpg","1",".","37","0","712"
"13","13","encoding","encoding","36","Bark.jpg","1",".","36","0","987"
"13","13","encoding","encoding","37","PocketKnife.jpg","3",".","37","0","620"
"13","13","encoding","encoding","38","House_Wooden.jpg","1",".","37","0","628"
"13","13","encoding","encoding","39","Heelpad.jpg","3",".","37","0","549"
"13","13","encoding","encoding","40","Cable_JumpStart.jpg","1",".","37","0","668"
"13","13","encoding","encoding","41","Cannon.jpg","1",".","36","0","709"
"13","13","encoding","encoding","42","Compact_Mirror.jpg","3",".","37","0","637"
"13","13","encoding","encoding","43","PulleyWooden.jpg","3",".","37","0","617"
"13","13","encoding","encoding","44","Table_Saw.jpg","3",".","37","0","555"
"13","13","encoding","encoding","45","Backpack_Suitcase.jpg","1",".","37","0","571"
"13","13","encoding","encoding","46","Crab.jpg","3",".","36","0","530"
"13","13","encoding","encoding","47","CodeDoorLock.jpg","1",".","37","0","654"
"13","13","encoding","encoding","48","SolderingIron.jpg","1",".","37","0","568"
"13","13","encoding","encoding","49","Sign_Construction.jpg","3",".","37","0","493"
"13","13","encoding","encoding","50","Briefcase_Silver.jpg","3",".","37","0","521"
"13","13","encoding","encoding","51","Earring_Hoop.jpg","3",".","37","0","526"
"13","13","encoding","encoding","52","Lantern_Chinese.jpg","3",".","37","0","415"
"13","13","encoding","encoding","53","Candy_Lozenge.jpg","3",".","37","0","670"
"13","13","encoding","encoding","54","Bread_Carrot.jpg","1",".","36","0","489"
"13","13","encoding","encoding","55","Bread_Melon.jpg","3",".","36","0","503"
"13","13","encoding","encoding","56","Lighter_Black.jpg","3",".","37","0","523"
"13","13","encoding","encoding","57","Light_Studio.jpg","3",".","37","0","506"
"13","13","encoding","encoding","58","Canister_Oil.jpg","3",".","37","0","547"
"13","13","encoding","encoding","59","Ship_Cruise.jpg","3",".","37","0","511"
"13","13","encoding","encoding","60","Platter_Vegetables.jpg","3",".","37","0","597"
"13","13","encoding","encoding","61","Wontons.jpg","3",".","37","0","770"
"13","13","encoding","encoding","62","MetalDetector.jpg","3",".","37","0","535"
"13","13","encoding","encoding","63","Wire_ElectricalSingle.jpg","1",".","37","0","543"
"13","13","encoding","encoding","64","CarSuspension.jpg","3",".","37","0","568"
"13","13","encoding","encoding","65","Lantern_Chinese.jpg","3",".","37","0","446"
"13","13","encoding","encoding","67","RAMchip.jpg","1",".","36","0","516"
"13","13","encoding","encoding","68","Hat_Colonial.jpg","3",".","0","0","1000"
"13","13","encoding","encoding","69","Gecko.jpg","1",".","36","0","665"
"13","13","encoding","encoding","70","HoseNozzle.jpg","3",".","37","0","620"
"13","13","encoding","encoding","71","TailLight.jpg","3",".","37","0","613"
"13","13","encoding","encoding","72","Case_Pencil.jpg","3",".","37","0","394"
"13","13","encoding","encoding","73","Bus_School.jpg","3",".","37","0","453"
"13","13","encoding","encoding","74","SatelliteDish.jpg","3",".","37","0","546"
"13","13","encoding","encoding","75","Ladybug.jpg","1",".","37","0","769"
"13","13","encoding","encoding","76","Heelpad.jpg","3",".","37","0","528"
"13","13","encoding","encoding","77","Cart_Janitor.jpg","3",".","37","0","612"
"13","13","encoding","encoding","78","Helmet_Motorcycle.jpg","3",".","37","0","575"
"13","13","encoding","encoding","79","Acorn.jpg","3",".","36","0","456"
"13","13","encoding","encoding","80","GasStation.jpg","3",".","37","0","525"
"13","13","encoding","encoding","81","HoseNozzle.jpg","3",".","37","0","587"
"13","13","encoding","encoding","82","Toy_Lizard.jpg","1",".","36","0","559"
"13","13","encoding","encoding","83","Bag_Diaper.jpg","1",".","37","0","484"
"13","13","encoding","encoding","84","CarSuspension.jpg","3",".","37","0","618"
"13","13","encoding","encoding","85","Hockey_Puck.jpg","3",".","37","0","604"
"13","13","encoding","encoding","86","GasStation.jpg","3",".","37","0","511"
"13","13","encoding","encoding","87","Amp.jpg","3",".","37","0","542"
"13","13","encoding","encoding","88","PulleyWooden.jpg","3",".","37","0","889"
"13","13","encoding","encoding","89","LicensePlate.jpg","3",".","37","0","754"
"13","13","encoding","encoding","90","Taco.jpg","1",".","36","0","728"
"13","13","encoding","encoding","91","PagodaModel.jpg","3",".","37","0","667"
"13","13","encoding","encoding","92","Barometer_Wood.jpg","1",".","37","0","775"
"13","13","encoding","encoding","93","Flags_CheckeredRacing.jpg","3",".","37","0","624"
"13","13","encoding","encoding","94","Microwave.jpg","3",".","37","0","443"
"13","13","encoding","encoding","95","SatelliteDish.jpg","3",".","37","0","482"
"13","13","encoding","encoding","96","Glass_Beer.jpg","3",".","37","0","750"
"13","13","encoding","encoding","97","Bread_Melon.jpg","3",".","36","0","737"
"13","13","encoding","encoding","98","Mailbox_Antique.jpg","1",".","37","0","515"
"13","13","encoding","encoding","99","MousepadAndMouse.jpg","3",".","37","0","598"
"13","13","encoding","encoding","100","PocketKnife.jpg","3",".","37","0","502"
"13","13","encoding","encoding","101","MemoPaperSpike.jpg","3",".","37","0","555"
"13","13","encoding","encoding","102","Box_FirstAid.jpg","3",".","37","0","451"
"13","13","encoding","encoding","103","Binder.jpg","1",".","37","0","494"
"13","13","encoding","encoding","104","Spatula.jpg","1",".","37","0","662"
"13","13","encoding","encoding","105","Cup_Bathroom.jpg","3",".","37","0","937"
"13","13","encoding","encoding","106","Wontons.jpg","3",".","36","0","700"
"13","13","encoding","encoding","107","Brush_Light.jpg","3",".","37","0","561"
"13","13","encoding","encoding","108","MechanicalSpring.jpg","1",".","37","0","913"
"13","13","encoding","encoding","109","WaterWell.jpg","1",".","37","0","504"
"13","13","encoding","encoding","110","Trash_Medical.jpg","3",".","37","0","658"
"13","13","encoding","encoding","111","Handbag.jpg","3",".","37","0","856"
"13","13","encoding","encoding","112","Canister_Oil.jpg","3",".","37","0","532"
"13","13","encoding","encoding","113","HairCurler.jpg","3",".","37","0","725"
"13","13","encoding","encoding","114","Milkshake_Strawberry.jpg","3",".","37","0","581"
"13","13","encoding","encoding","115","Barbecue_Charcoal.jpg","3",".","37","0","535"
"13","13","encoding","encoding","116","Light_Fixtures.jpg","1",".","37","0","542"
"13","13","encoding","encoding","117","Compact_Mirror.jpg","3",".","37","0","537"
"13","13","encoding","encoding","118","SolderingWire.jpg","3",".","37","0","495"
"13","13","encoding","encoding","119","Hat_Colonial.jpg","3",".","37","0","509"
"13","13","encoding","encoding","120","Box_FirstAid.jpg","3",".","37","0","507"
"13","13","encoding","encoding","121","AirPump.jpg","3",".","37","0","515"
"13","13","encoding","encoding","122","Bread_Roll.jpg","3",".","36","0","624"
"13","13","encoding","encoding","123","Stove_WithOven.jpg","1",".","37","0","464"
"13","13","encoding","encoding","124","DartBoard.jpg","1",".","37","0","514"
"13","13","encoding","encoding","125","HairCurler.jpg","3",".","37","0","813"
"13","13","encoding","encoding","126","LicensePlate.jpg","3",".","37","0","604"
"13","13","encoding","encoding","127","Jar_Honey.jpg","3",".","37","0","470"
"13","13","encoding","encoding","128","Barbecue_Charcoal.jpg","3",".","37","0","566"
"13","13","encoding","encoding","129","Trash_Medical.jpg","3",".","37","0","668"
"13","13","encoding","encoding","130","Stone_AncientWriting.jpg","3",".","36","0","746"
"13","13","encoding","encoding","131","Mailbox_Community.jpg","1",".","37","0","593"
"13","13","encoding","encoding","133","Bible.jpg","1",".","37","0","652"
"13","13","encoding","encoding","134","Bottle_Beer.jpg","3",".","37","0","537"
"13","13","encoding","encoding","135","Garlic_Whole.jpg","1",".","36","0","685"
"13","13","encoding","encoding","136","SelfieStick.jpg","1",".","37","0","822"
"13","13","encoding","encoding","137","Cake_Cheese.jpg","3",".","0","0","1000"
"13","13","encoding","encoding","138","Statue_Horse.jpg","3",".","37","0","865"
"13","13","encoding","encoding","139","SewingPin_Cushion.jpg","1",".","37","0","548"
"13","13","encoding","encoding","140","Bat_Cricket.jpg","3",".","37","0","953"
"13","13","encoding","encoding","141","LifeJacket_Orangejpg.jpg","1",".","37","0","813"
"13","13","encoding","encoding","142","Hanger.jpg","3",".","37","0","576"
"13","13","encoding","encoding","143","Makeup_Compact.jpg","1",".","37","0","583"
"13","13","encoding","encoding","144","Carousel.jpg","3",".","37","0","674"
"13","13","encoding","encoding","145","Carousel.jpg","3",".","37","0","306"
"13","13","encoding","encoding","146","Radish.jpg","3",".","37","0","600"
"13","13","encoding","encoding","147","Carabiner_Orange.jpg","1",".","37","0","503"
"13","13","encoding","encoding","148","Jar_Honey.jpg","3",".","37","0","858"
"13","13","encoding","encoding","149","sign_traffic.jpg","1",".","37","0","726"
"13","13","encoding","encoding","150","Milkshake_Strawberry.jpg","3",".","36","0","649"
"13","13","encoding","encoding","151","Bread_Roll.jpg","3",".","36","0","698"
"13","13","encoding","encoding","152","Tube_Glue.jpg","3",".","37","0","592"
"13","13","encoding","encoding","153","Canister_Oil.jpg","3",".","37","0","482"
"13","13","encoding","encoding","154","Acorn.jpg","3",".","36","0","705"
"13","13","encoding","encoding","155","Fork_Regular.jpg","3",".","37","0","553"
"13","13","encoding","encoding","156","Thermometer_Room.jpg","1",".","37","0","517"
"13","13","encoding","encoding","157","Toy_PandaPlushie.jpg","3",".","36","0","816"
"13","13","encoding","encoding","158","LicensePlate.jpg","3",".","37","0","544"
"13","13","encoding","encoding","159","Carousel.jpg","3",".","37","0","449"
"13","13","encoding","encoding","160","Lighter_Black.jpg","3",".","37","0","578"
"13","13","encoding","encoding","161","HoseNozzle.jpg","3",".","37","0","468"
"13","13","encoding","encoding","162","Cup_Bathroom.jpg","3",".","37","0","540"
"13","13","encoding","encoding","163","SatelliteDish.jpg","3",".","37","0","538"
"13","13","encoding","encoding","164","Tube_Glue.jpg","3",".","37","0","730"
"13","13","encoding","encoding","165","Cake_Cheese.jpg","3",".","37","0","558"
"13","13","encoding","encoding","166","PencilCase.jpg","3",".","37","0","470"
"13","13","encoding","encoding","167","DogSled.jpg","3",".","37","0","532"
"13","13","encoding","encoding","168","Television.jpg","1",".","37","0","503"
"13","13","encoding","encoding","169","Helmet_Motorcycle.jpg","3",".","37","0","775"
"13","13","encoding","encoding","170","CoffeeLid.jpg","3",".","37","0","416"
"13","13","encoding","encoding","171","Handbag.jpg","3",".","37","0","448"
"13","13","encoding","encoding","172","PumiceStone.jpg","3",".","36","0","713"
"13","13","encoding","encoding","173","Briefcase_Silver.jpg","3",".","37","0","609"
"13","13","encoding","encoding","174","Helmet_Football.jpg","1",".","37","0","705"
"13","13","encoding","encoding","175","Earring_Hoop.jpg","3",".","37","0","613"
"13","13","encoding","encoding","176","Toy_Truck.jpg","1",".","37","0","449"
"13","13","encoding","encoding","177","Candy_Toffee.jpg","3",".","36","0","612"
"13","13","encoding","encoding","178","Cymbals.jpg","1",".","37","0","755"
"13","13","encoding","encoding","179","IceCream_Popsicle.jpg","3",".","37","0","699"
"13","13","encoding","encoding","180","Toy_MerryGoRound.jpg","1",".","37","0","520"
"13","13","encoding","encoding","181","Radish.jpg","3",".","37","0","401"
"13","13","encoding","encoding","182","Compact_Mirror.jpg","3",".","37","0","442"
"13","13","encoding","encoding","183","Briefcase_Silver.jpg","3",".","37","0","444"
"13","13","encoding","encoding","184","Platter_Vegetables.jpg","3",".","37","0","893"
"13","13","encoding","encoding","185","Hat_Colonial.jpg","3",".","37","0","544"
"13","13","encoding","encoding","186","Radish.jpg","3",".","36","0","742"
"13","13","encoding","encoding","187","AirCompressor.jpg","1",".","37","0","463"
"13","13","encoding","encoding","188","Platter_Vegetables.jpg","3",".","37","0","765"
"13","13","encoding","encoding","189","Envelope_Manila.jpg","1",".","37","0","705"
"13","13","encoding","encoding","190","Crab.jpg","3",".","37","0","923"
"13","13","encoding","encoding","191","HairCurler.jpg","3",".","37","0","512"
"13","13","encoding","encoding","192","SofaAntique.jpg","1",".","37","0","616"
"13","13","encoding","encoding","193","Hockey_Puck.jpg","3",".","37","0","496"
"13","13","encoding","encoding","194","Tube_Paint.jpg","3",".","36","0","833"
"13","13","encoding","encoding","195","SolderingWire.jpg","3",".","37","0","917"
"13","13","encoding","encoding","196","Bandage_Adhesive.jpg","1",".","37","0","631"
"13","13","encoding","encoding","197","Cinnamonroll.jpg","3",".","36","0","675"
"13","13","encoding","encoding","199","Bucket_Halloween.jpg","3",".","37","0","548"
"13","13","encoding","encoding","200","ProjectorScreen.jpg","3",".","37","0","562"
"13","13","encoding","encoding","201","Bus_School.jpg","3",".","37","0","477"
"13","13","encoding","encoding","202","Bone.jpg","3",".","36","0","815"
"13","13","encoding","encoding","203","Can_Oblong.jpg","3",".","37","0","460"
"13","13","encoding","encoding","204","Earring_Hoop.jpg","3",".","37","0","503"
"13","13","encoding","encoding","205","Toy_PandaPlushie.jpg","3",".","37","0","603"
"13","13","encoding","encoding","206","AirPump.jpg","3",".","37","0","470"
"13","13","encoding","encoding","207","Brush_Light.jpg","3",".","37","0","456"
"13","13","encoding","encoding","208","Spear.jpg","1",".","37","0","540"
"13","13","encoding","encoding","209","TortillaChip.jpg","1",".","36","0","580"
"13","13","encoding","encoding","210","Bread_Loaf.jpg","3",".","37","0","677"
"13","13","encoding","encoding","211","DogSled.jpg","3",".","37","0","432"
"13","13","encoding","encoding","212","Brush_Light.jpg","3",".","37","0","452"
"13","13","encoding","encoding","213","Barometer.jpg","3",".","37","0","547"
"13","13","encoding","encoding","214","Light_Studio.jpg","3",".","36","0","644"
"13","13","encoding","encoding","215","Sign_Construction.jpg","3",".","37","0","542"
"13","13","encoding","encoding","216","Candy_Lozenge.jpg","3",".","36","0","652"
"13","13","encoding","encoding","217","DoubleBass.jpg","3",".","37","0","459"
"13","13","encoding","encoding","218","Mask_HockeyGoalie.jpg","1",".","37","0","576"
"13","13","encoding","encoding","219","MousepadAndMouse.jpg","3",".","37","0","488"
"13","13","encoding","encoding","220","DogSled.jpg","3",".","37","0","463"
"13","13","encoding","encoding","221","PagodaModel.jpg","3",".","37","0","517"
"13","13","encoding","encoding","222","Barometer.jpg","3",".","37","0","392"
"13","13","encoding","encoding","223","Desk_White.jpg","1",".","37","0","555"
"13","13","encoding","encoding","224","ProjectorScreen.jpg","3",".","37","0","613"
"13","13","encoding","encoding","225","PagodaModel.jpg","3",".","37","0","457"
"13","13","encoding","encoding","226","PencilCase.jpg","3",".","37","0","455"
"13","13","encoding","encoding","227","ManholeCover.jpg","1",".","37","0","428"
"13","13","encoding","encoding","228","Bread_Loaf.jpg","3",".","36","0","585"
"13","13","encoding","encoding","229","SolderingWire.jpg","3",".","37","0","389"
"13","13","encoding","encoding","230","Case_Pencil.jpg","3",".","37","0","409"
"13","13","encoding","encoding","231","Table_Saw.jpg","3",".","37","0","370"
"13","13","encoding","encoding","232","PumiceStone.jpg","3",".","37","0","390"
"13","13","encoding","encoding","233","MemoPaperSpike.jpg","3",".","37","0","504"
"13","13","encoding","encoding","234","Weathervane.jpg","1",".","37","0","386"
"13","13","encoding","encoding","235","Castle_Sand.jpg","1",".","37","0","484"
"13","13","encoding","encoding","236","Van.jpg","1",".","37","0","466"
"13","13","encoding","encoding","237","Nuts_Pecan.jpg","1",".","36","0","645"
"13","13","encoding","encoding","238","MetalDetector.jpg","3",".","37","0","484"
"13","13","encoding","encoding","239","Mask_Ski.jpg","3",".","37","0","678"
"13","13","encoding","encoding","240","PencilCase.jpg","3",".","37","0","390"
"13","13","encoding","encoding","241","Oars.jpg","1",".","37","0","522"
"13","13","encoding","encoding","242","Helmet_Motorcycle.jpg","3",".","37","0","759"
"13","13","encoding","encoding","243","Lollipop_Rainbow.jpg","1",".","37","0","499"
"13","13","encoding","encoding","244","Hubcap.jpg","3",".","37","0","578"
"13","13","encoding","encoding","245","Cart_Janitor.jpg","3",".","37","0","393"
"13","13","encoding","encoding","246","Scythe.jpg","1",".","37","0","431"
"13","13","encoding","encoding","247","Hubcap.jpg","3",".","37","0","436"
"13","13","encoding","encoding","248","Jar_Honey.jpg","3",".","37","0","485"
"13","13","encoding","encoding","249","PyramidWooden.jpg","1",".","37","0","675"
"13","13","encoding","encoding","250","Amp.jpg","3",".","37","0","739"
"13","13","encoding","encoding","251","Bat_Cricket.jpg","3",".","37","0","648"
"13","13","encoding","encoding","252","Cinnamonroll.jpg","3",".","36","0","583"
"13","13","encoding","encoding","253","MemoPaperSpike.jpg","3",".","37","0","427"
"13","13","encoding","encoding","254","Bat_Cricket.jpg","3",".","37","0","483"
"13","13","encoding","encoding","255","Arch_Triomphe.jpg","1",".","37","0","475"
"13","13","encoding","encoding","256","Bread_Loaf.jpg","3",".","36","0","619"
"13","13","encoding","encoding","257","Lens_Camera.jpg","1",".","37","0","721"
"13","13","encoding","encoding","258","Branch.jpg","1",".","37","0","714"
"13","13","encoding","encoding","259","Mug_Travel.jpg","1",".","37","0","424"
"13","13","encoding","encoding","260","Hockey_Puck.jpg","3",".","37","0","440"
"13","13","encoding","encoding","261","FireAlarm.jpg","1",".","37","0","412"
"13","13","encoding","encoding","262","Bread_Roll.jpg","3",".","36","0","575"
"13","13","encoding","encoding","263","ProjectorScreen.jpg","3",".","37","0","517"
"13","13","encoding","encoding","265","AirPump.jpg","3",".","37","0","510"
"13","13","encoding","encoding","266","Tube_Glue.jpg","3",".","37","0","493"
"13","13","encoding","encoding","267","Corkboard.jpg","1",".","37","0","470"
"13","13","encoding","encoding","268","Light_Halogen.jpg","1",".","37","0","468"
"13","13","encoding","encoding","269","Wontons.jpg","3",".","37","0","494"
"13","13","encoding","encoding","270","DoubleBass.jpg","3",".","37","0","504"
"13","13","encoding","encoding","271","Cinnamonroll.jpg","3",".","36","0","569"
"13","13","encoding","encoding","272","Milkshake_Strawberry.jpg","3",".","37","0","680"
"13","13","encoding","encoding","273","Case_Pencil.jpg","3",".","37","0","483"
"13","13","encoding","encoding","274","MousepadAndMouse.jpg","3",".","37","0","484"
"13","13","encoding","encoding","275","Mask_Ski.jpg","3",".","37","0","476"
"13","13","encoding","encoding","276","Stone_AncientWriting.jpg","3",".","37","0","597"
"13","13","encoding","encoding","277","Bird_Duck.jpg","1",".","37","0","494"
"13","13","encoding","encoding","278","Chair_Office.jpg","1",".","37","0","427"
"13","13","encoding","encoding","279","Bowl_Glass.jpg","1",".","37","0","562"
"13","13","encoding","encoding","280","Glass_Beer.jpg","3",".","37","0","543"
"13","13","encoding","encoding","281","IceCream_Popsicle.jpg","3",".","0","0","1000"
"13","13","encoding","encoding","282","Cassette_Video.jpg","1",".","37","0","551"
"13","13","encoding","encoding","283","PocketKnife.jpg","3",".","37","0","516"
"13","13","encoding","encoding","284","MetalDetector.jpg","3",".","37","0","844"
"13","13","encoding","encoding","285","Candy_Toffee.jpg","3",".","37","0","728"
"13","13","encoding","encoding","286","CoffeeLid.jpg","3",".","37","0","490"
"13","13","encoding","encoding","287","Clave.jpg","3",".","37","0","657"
"13","13","encoding","encoding","288","Cup_Bathroom.jpg","3",".","37","0","726"
"13","13","encoding","encoding","289","Stone_AncientWriting.jpg","3",".","36","0","536"
"13","13","encoding","encoding","290","Ship_Cruise.jpg","3",".","37","0","471"
"13","13","encoding","encoding","291","Statue_Horse.jpg","3",".","37","0","519"
"13","13","encoding","encoding","292","Hubcap.jpg","3",".","37","0","473"
"13","13","encoding","encoding","293","Lighter_Black.jpg","3",".","37","0","533"
"13","13","encoding","encoding","294","Toy_PandaPlushie.jpg","3",".","37","0","403"
"13","13","encoding","encoding","295","Candy_Lozenge.jpg","3",".","36","0","678"
"13","13","encoding","encoding","296","Bread_Melon.jpg","3",".","36","0","572"
"13","13","encoding","encoding","297","Box_FirstAid.jpg","3",".","37","0","657"
"13","13","encoding","encoding","298","Cake_Cheese.jpg","3",".","36","0","755"
"13","13","encoding","encoding","299","Table_Saw.jpg","3",".","37","0","764"
"13","13","encoding","encoding","300","Amp.jpg","3",".","37","0","820"
"13","13","encoding","encoding","301","PumiceStone.jpg","3",".","37","0","579"
"13","13","encoding","encoding","302","Cart_Janitor.jpg","3",".","37","0","440"
"13","13","encoding","encoding","303","DoubleBass.jpg","3",".","37","0","504"
"13","13","encoding","encoding","304","Flags_CheckeredRacing.jpg","3",".","37","0","721"
"13","13","encoding","encoding","305","Bone.jpg","3",".","37","0","759"
"13","13","encoding","encoding","306","Bottle_Beer.jpg","3",".","0","0","1000"
"13","13","encoding","encoding","307","Trash_Medical.jpg","3",".","37","0","433"
"13","13","encoding","encoding","308","Clave.jpg","3",".","37","0","465"
"13","13","encoding","encoding","309","Bleachers.jpg","1",".","37","0","470"
"13","13","encoding","encoding","310","IceCream_Popsicle.jpg","3",".","36","0","615"
"13","13","encoding","encoding","311","CoffeeLid.jpg","3",".","37","0","539"
"13","13","encoding","encoding","312","Microwave.jpg","3",".","37","0","457"
"13","13","encoding","encoding","313","Bus_School.jpg","3",".","37","0","647"
"13","13","encoding","encoding","314","Can_Oblong.jpg","3",".","37","0","678"
"13","13","encoding","encoding","315","PulleyWooden.jpg","3",".","37","0","720"
"13","13","encoding","encoding","316","Bucket_Halloween.jpg","3",".","37","0","561"
"13","13","encoding","encoding","317","Mask_Ski.jpg","3",".","37","0","398"
"13","13","encoding","encoding","318","Can_Oblong.jpg","3",".","37","0","438"
"13","13","encoding","encoding","319","Microwave.jpg","3",".","37","0","323"
"13","13","encoding","encoding","320","Glass_Beer.jpg","3",".","37","0","307"
"13","13","encoding","encoding","321","Stool_Metal.jpg","1",".","37","0","409"
"13","13","encoding","encoding","322","Walker_Blue.jpg","1",".","37","0","414"
"13","13","encoding","encoding","323","Hanger.jpg","3",".","37","0","636"
"13","13","encoding","encoding","324","Umbrella_Classic.jpg","1",".","37","0","604"
"13","13","encoding","encoding","325","Tube_Paint.jpg","",".","37","0","552"
"13","13","retrieval","new_object","1","Ostrich.jpg",".",".","36","0","1479"
"13","13","retrieval","new_object","2","Sign_SlipperyRoad.jpg",".",".","36","0","843"
"13","13","retrieval","new_object","3","Toy_Christmastree.jpg",".",".","36","0","869"
"13","13","retrieval","old_object","4","Brush_Light.jpg",".","3","37","0","902"
"13","13","retrieval","new_object","5","BrainSagittal.jpg",".",".","37","1","1352"
"13","13","retrieval","new_object","6","Clippers_Glass.jpg",".",".","36","0","1100"
"13","13","retrieval","old_object","7","Mask_Ski.jpg",".","3","36","1","744"
"13","13","retrieval","old_object","8","Bread_Carrot.jpg",".","1","37","0","1370"
"13","13","retrieval","old_object","9","MousepadAndMouse.jpg",".","3","36","1","923"
"13","13","retrieval","new_object","10","Pear_Green.jpg",".",".","37","1","679"
"13","13","retrieval","new_object","11","DeepFryer.jpg",".",".","37","1","1260"
"13","13","retrieval","old_object","12","Cake_Cheese.jpg",".","3","36","1","853"
"13","13","retrieval","new_object","13","Golf_Club.jpg",".",".","37","1","1245"
"13","13","retrieval","old_object","14","Mailbox_Antique.jpg",".","1","36","1","1317"
"13","13","retrieval","old_object","15","DogSled.jpg",".","3","36","1","1696"
"13","13","retrieval","old_object","16","Hedgehog.jpg",".","1","37","0","762"
"13","13","retrieval","new_object","17","PumpBreast.jpg",".",".","37","1","1234"
"13","13","retrieval","new_object","18","Jars_PetFood.jpg",".",".","37","1","1211"
"13","13","retrieval","new_object","19","Nail.jpg",".",".","37","1","1669"
"13","13","retrieval","new_object","20","Dice.jpg",".",".","37","1","524"
"13","13","retrieval","old_object","21","Binder.jpg",".","1","36","1","1360"
"13","13","retrieval","old_object","22","Light_Studio.jpg",".","3","36","1","1494"
"13","13","retrieval","new_object","23","IroningBoard.jpg",".",".","0","0","2000"
"13","13","retrieval","old_object","24","Bible.jpg",".","1","36","1","1439"
"13","13","retrieval","new_object","25","FlintIgniter.jpg",".",".","37","1","992"
"13","13","retrieval","new_object","26","Stool_Camping.jpg",".",".","37","1","1294"
"13","13","retrieval","new_object","27","Puzzle_Animal.jpg",".",".","36","0","1148"
"13","13","retrieval","new_object","28","PaperCutter.jpg",".",".","37","1","1193"
"13","13","retrieval","new_object","29","SaladCaesar.jpg",".",".","37","1","743"
"13","13","retrieval","old_object","30","Candy_Toffee.jpg",".","3","36","1","1023"
"13","13","retrieval","old_object","31","Tube_Glue.jpg",".","3","36","1","859"
"13","13","retrieval","new_object","32","PersonWooden.jpg",".",".","37","1","675"
"13","13","retrieval","old_object","33","SatelliteDish.jpg",".","3","36","1","857"
"13","13","retrieval","new_object","34","WalkieTalkie_Yellow.jpg",".",".","37","1","898"
"13","13","retrieval","new_object","35","RadioactiveContainer.jpg",".",".","36","0","1338"
"13","13","retrieval","new_object","36","Otoscope.jpg",".",".","37","1","1412"
"13","13","retrieval","old_object","37","Cup_Bathroom.jpg",".","3","36","1","1337"
"13","13","retrieval","old_object","38","AirCompressor.jpg",".","1","36","1","735"
"13","13","retrieval","old_object","39","TailLight.jpg",".","3","36","1","1224"
"13","13","retrieval","new_object","40","OperaGlasses.jpg",".",".","37","1","1475"
"13","13","retrieval","old_object","41","Case_Pencil.jpg",".","3","36","1","1358"
"13","13","retrieval","new_object","42","TowelRack_Metal.jpg",".",".","37","1","958"
"13","13","retrieval","new_object","43","VacuumHose.jpg",".",".","36","0","1130"
"13","13","retrieval","old_object","44","Helmet_Football.jpg",".","1","37","0","1281"
"13","13","retrieval","new_object","45","Toy_BearBrownPlushie.jpg",".",".","37","1","1222"
"13","13","retrieval","old_object","46","Bleachers.jpg",".","1","36","1","722"
"13","13","retrieval","old_object","47","Flags_CheckeredRacing.jpg",".","3","37","0","1030"
"13","13","retrieval","new_object","48","Cologne.jpg",".",".","37","1","1047"
"13","13","retrieval","old_object","49","Taco.jpg",".","1","36","1","815"
"13","13","retrieval","old_object","50","Ship_Cruise.jpg",".","3","36","1","884"
"13","13","retrieval","old_object","51","Stool_Metal.jpg",".","1","36","1","846"
"13","13","retrieval","old_object","52","Cart_Janitor.jpg",".","3","36","1","736"
"13","13","retrieval","new_object","53","Toy_Dog.jpg",".",".","36","0","925"
"13","13","retrieval","new_object","54","Case_CD.jpg",".",".","36","0","811"
"13","13","retrieval","old_object","55","Bread_Roll.jpg",".","3","37","0","940"
"13","13","retrieval","old_object","56","Box_FirstAid.jpg",".","3","36","1","773"
"13","13","retrieval","old_object","57","Statue_Man.jpg",".","1","37","0","753"
"13","13","retrieval","old_object","58","Glass_Beer.jpg",".","3","36","1","748"
"13","13","retrieval","old_object","59","Toy_PandaPlushie.jpg",".","3","36","1","955"
"13","13","retrieval","old_object","60","Bucket_Halloween.jpg",".","3","36","1","760"
"13","13","retrieval","new_object","61","MatchBook.jpg",".",".","37","1","637"
"13","13","retrieval","old_object","62","Spatula.jpg",".","1","37","0","940"
"13","13","retrieval","old_object","63","Van.jpg",".","1","37","0","1042"
"13","13","retrieval","old_object","64","Bandage_Adhesive.jpg",".","1","36","1","905"
"13","13","retrieval","old_object","65","LicensePlate.jpg",".","3","36","1","1058"
"13","13","retrieval","old_object","67","Gecko.jpg",".","1","0","0","2000"
"13","13","retrieval","old_object","68","Tube_Paint.jpg",".","3","36","1","144"
"13","13","retrieval","new_object","69","Blueberry.jpg",".",".","37","1","635"
"13","13","retrieval","old_object","70","Handbag.jpg",".","3","36","1","927"
"13","13","retrieval","old_object","71","ManholeCover.jpg",".","1","36","1","870"
"13","13","retrieval","new_object","72","Car_Buggy.jpg",".",".","37","1","690"
"13","13","retrieval","new_object","73","Lips_Wax.jpg",".",".","36","0","725"
"13","13","retrieval","new_object","74","Pretzel_Sticks.jpg",".",".","37","1","1062"
"13","13","retrieval","old_object","75","PocketKnife.jpg",".","3","36","1","805"
"13","13","retrieval","old_object","76","Oars.jpg",".","1","36","1","803"
"13","13","retrieval","old_object","77","Helmet_Motorcycle.jpg",".","3","36","1","765"
"13","13","retrieval","old_object","78","Canister_Oil.jpg",".","3","36","1","644"
"13","13","retrieval","old_object","79","Bus_School.jpg",".","3","36","1","646"
"13","13","retrieval","old_object","80","Statue_Horse.jpg",".","3","36","1","716"
"13","13","retrieval","new_object","81","Stone_Spa.jpg",".",".","37","1","591"
"13","13","retrieval","new_object","82","Speakers_Theatre.jpg",".",".","37","1","968"
"13","13","retrieval","new_object","83","Protractor.jpg",".",".","36","0","1211"
"13","13","retrieval","old_object","84","IceCream_Popsicle.jpg",".","3","36","1","721"
"13","13","retrieval","new_object","85","MortarPestle_WhiteMarble.jpg",".",".","37","1","929"
"13","13","retrieval","old_object","86","BumperCar.jpg",".","1","36","1","713"
"13","13","retrieval","old_object","87","Hanger.jpg",".","3","36","1","755"
"13","13","retrieval","new_object","88","Coral.jpg",".",".","37","1","848"
"13","13","retrieval","old_object","89","HairCurler.jpg",".","3","36","1","720"
"13","13","retrieval","new_object","90","TelescopeSpacecraft.jpg",".",".","37","1","785"
"13","13","retrieval","new_object","91","Glasses_Sun.jpg",".",".","36","0","660"
"13","13","retrieval","new_object","92","CarLighter.jpg",".",".","37","1","948"
"13","13","retrieval","old_object","93","Mailbox_Community.jpg",".","1","37","0","856"
"13","13","retrieval","new_object","94","ColoringSet.jpg",".",".","37","1","899"
"13","13","retrieval","old_object","95","Cinnamonroll.jpg",".","3","36","1","867"
"13","13","retrieval","old_object","96","Briefcase_Silver.jpg",".","3","36","1","919"
"13","13","retrieval","old_object","97","Barometer_Wood.jpg",".","1","36","1","1041"
"13","13","retrieval","old_object","98","Umbrella_Classic.jpg",".","1","37","0","655"
"13","13","retrieval","old_object","99","CodeDoorLock.jpg",".","1","37","0","986"
"13","13","retrieval","old_object","100","Candy_Lozenge.jpg",".","3","37","0","821"
"13","13","retrieval","new_object","101","Fan_Straw.jpg",".",".","37","1","855"
"13","13","retrieval","old_object","102","Bag_Diaper.jpg",".","1","37","0","719"
"13","13","retrieval","new_object","103","Makeup_Bag.jpg",".",".","37","1","979"
"13","13","retrieval","new_object","104","Lynx.jpg",".",".","36","0","1119"
"13","13","retrieval","old_object","105","Backpack_Suitcase.jpg",".","1","37","0","836"
"13","13","retrieval","new_object","106","Camera_Video.jpg",".",".","37","1","1069"
"13","13","retrieval","new_object","107","Tray_Medical.jpg",".",".","37","1","908"
"13","13","retrieval","old_object","108","MetalDetector.jpg",".","3","36","1","1168"
"13","13","retrieval","old_object","109","SolderingWire.jpg",".","3","36","1","1446"
"13","13","retrieval","old_object","110","Radish.jpg",".","3","36","1","1438"
"13","13","retrieval","old_object","111","Clave.jpg",".","3","36","1","758"
"13","13","retrieval","old_object","112","Branch.jpg",".","1","37","0","1123"
"13","13","retrieval","new_object","113","Toy_Taxi.jpg",".",".","37","1","1459"
"13","13","retrieval","old_object","114","Bread_Loaf.jpg",".","3","37","0","1363"
"13","13","retrieval","new_object","115","Backhoe.jpg",".",".","37","1","1481"
"13","13","retrieval","new_object","116","PaperTowel_Brown.jpg",".",".","37","1","1311"
"13","13","retrieval","old_object","117","Stove_WithOven.jpg",".","1","36","1","1476"
"13","13","retrieval","new_object","118","Tape_Dispenser.jpg",".",".","37","1","1269"
"13","13","retrieval","new_object","119","GrillRack.jpg",".",".","37","1","1168"
"13","13","retrieval","old_object","120","TortillaChip.jpg",".","1","37","0","1106"
"13","13","retrieval","new_object","121","SoapDish.jpg",".",".","37","1","1150"
"13","13","retrieval","old_object","122","Carabiner_Orange.jpg",".","1","36","1","1181"
"13","13","retrieval","old_object","123","Barometer.jpg",".","3","36","1","773"
"13","13","retrieval","old_object","124","Ladybug.jpg",".","1","37","0","956"
"13","13","retrieval","new_object","125","Bicycle_Kids.jpg",".",".","37","1","1263"
"13","13","retrieval","old_object","126","Bread_Melon.jpg",".","3","36","1","1113"
"13","13","retrieval","old_object","127","GasStation.jpg",".","3","36","1","955"
"13","13","retrieval","old_object","128","Bat_Cricket.jpg",".","3","37","0","1886"
"13","13","retrieval","old_object","129","Desk_White.jpg",".","1","37","0","788"
"13","13","retrieval","old_object","130","Scythe.jpg",".","1","37","0","1070"
"13","13","retrieval","old_object","131","Mask_HockeyGoalie.jpg",".","1","37","0","934"
"13","13","retrieval","new_object","133","Toy_BeadMaze.jpg",".",".","37","1","1286"
"13","13","retrieval","old_object","134","Aquarium.jpg",".","1","36","1","1069"
"13","13","retrieval","new_object","135","Level.jpg",".",".","37","1","775"
"13","13","retrieval","old_object","136","Cannon.jpg",".","1","37","0","689"
"13","13","retrieval","old_object","137","Weathervane.jpg",".","1","36","1","807"
"13","13","retrieval","old_object","138","Wontons.jpg",".","3","36","1","925"
"13","13","retrieval","new_object","139","Drum_Ramadan.jpg",".",".","36","0","1392"
"13","13","retrieval","old_object","140","Cassette_Video.jpg",".","1","37","0","932"
"13","13","retrieval","new_object","141","Walkman.jpg",".",".","37","1","836"
"13","13","retrieval","new_object","142","EyeChart.jpg",".",".","37","1","958"
"13","13","retrieval","new_object","143","Heater_Outdoor.jpg",".",".","36","0","1114"
"13","13","retrieval","new_object","144","Desk_Office.jpg",".",".","36","0","1037"
"13","13","retrieval","old_object","145","SolderingIron.jpg",".","1","36","1","1042"
"13","13","retrieval","new_object","146","Dropper.jpg",".",".","37","1","718"
"13","13","retrieval","new_object","147","PowderProtein.jpg",".",".","37","1","1095"
"13","13","retrieval","old_object","148","House_Wooden.jpg",".","1","37","0","1306"
"13","13","retrieval","new_object","149","Toy_TrailerAirport.jpg",".",".","37","1","831"
"13","13","retrieval","new_object","150","Match.jpg",".",".","37","1","1053"
"13","13","retrieval","old_object","151","Hat_Colonial.jpg",".","3","36","1","961"
"13","13","retrieval","new_object","152","Balcony.jpg",".",".","37","1","885"
"13","13","retrieval","new_object","153","Mask_VenetianCat.jpg",".",".","37","1","1059"
"13","13","retrieval","new_object","154","Notepad.jpg",".",".","37","1","639"
"13","13","retrieval","new_object","155","SnowmanDecor.jpg",".",".","37","1","653"
"13","13","retrieval","old_object","156","Amp.jpg",".","3","36","1","866"
"13","13","retrieval","new_object","157","Celery.jpg",".",".","37","1","720"
"13","13","retrieval","new_object","158","Shovel_Garden.jpg",".",".","37","1","887"
"13","13","retrieval","old_object","159","PulleyWooden.jpg",".","3","36","1","904"
"13","13","retrieval","old_object","160","sign_traffic.jpg",".","1","37","0","1108"
"13","13","retrieval","new_object","161","Toy_Firetruck.jpg",".",".","37","1","939"
"13","13","retrieval","new_object","162","DonaldDuck_Toy.jpg",".",".","36","0","943"
"13","13","retrieval","old_object","163","DartBoard.jpg",".","1","37","0","1000"
"13","13","retrieval","old_object","164","Cymbals.jpg",".","1","36","1","1011"
"13","13","retrieval","old_object","165","CoffeeLid.jpg",".","3","36","1","823"
"13","13","retrieval","old_object","166","Toy_Truck.jpg",".","1","37","0","821"
"13","13","retrieval","old_object","167","Sign_Construction.jpg",".","3","37","0","1118"
"13","13","retrieval","new_object","168","Cheeseburger.jpg",".",".","37","1","980"
"13","13","retrieval","old_object","169","Walker_Blue.jpg",".","1","37","0","889"
"13","13","retrieval","new_object","170","VinylRecord.jpg",".",".","37","1","1004"
"13","13","retrieval","new_object","171","Squash_Butternut.jpg",".",".","37","1","942"
"13","13","retrieval","new_object","172","Tray_Metal.jpg",".",".","37","1","699"
"13","13","retrieval","new_object","173","Garlic_Clove.jpg",".",".","37","1","657"
"13","13","retrieval","new_object","174","Piano_Upright.jpg",".",".","37","1","1017"
"13","13","retrieval","new_object","175","CDstack.jpg",".",".","37","1","871"
"13","13","retrieval","old_object","176","Heelpad.jpg",".","3","36","1","968"
"13","13","retrieval","old_object","177","Can_Oblong.jpg",".","3","36","1","1053"
"13","13","retrieval","old_object","178","PyramidWooden.jpg",".","1","36","1","1036"
"13","13","retrieval","old_object","179","Crab.jpg",".","3","36","1","691"
"13","13","retrieval","new_object","180","Hat_Police.jpg",".",".","37","1","778"
"13","13","retrieval","old_object","181","Hubcap.jpg",".","3","36","1","864"
"13","13","retrieval","new_object","182","LintRemover.jpg",".",".","37","1","1417"
"13","13","retrieval","old_object","183","LifeJacket_Orangejpg.jpg",".","1","36","1","1496"
"13","13","retrieval","new_object","184","Pyramid.jpg",".",".","36","0","1464"
"13","13","retrieval","new_object","185","Pasta_Fettuccine.jpg",".",".","37","1","1138"
"13","13","retrieval","old_object","186","Bone.jpg",".","3","36","1","1186"
"13","13","retrieval","new_object","187","Toy_DonkeyFur.jpg",".",".","37","1","994"
"13","13","retrieval","new_object","188","Snowpea.jpg",".",".","37","1","1122"
"13","13","retrieval","new_object","189","Card_TwoSpade.jpg",".",".","36","0","1032"
"13","13","retrieval","old_object","190","RAMchip.jpg",".","1","37","0","1664"
"13","13","retrieval","old_object","191","Stone_AncientWriting.jpg",".","3","36","1","1148"
"13","13","retrieval","new_object","192","Hat_Feather.jpg",".",".","37","1","1054"
"13","13","retrieval","old_object","193","Barbecue_Charcoal.jpg",".","3","36","1","1242"
"13","13","retrieval","old_object","194","Wire_ElectricalSingle.jpg",".","1","37","0","978"
"13","13","retrieval","new_object","195","WaterHeater.jpg",".",".","36","0","1014"
"13","13","retrieval","new_object","196","Cloud.jpg",".",".","37","1","1039"
"13","13","retrieval","new_object","197","Boat_Colourful.jpg",".",".","37","1","1235"
"13","13","retrieval","new_object","199","ClothesDryingRack.jpg",".",".","37","1","1179"
"13","13","retrieval","new_object","200","Pouch_Red.jpg",".",".","37","1","715"
"13","13","retrieval","old_object","201","Bowl_Glass.jpg",".","1","36","1","747"
"13","13","retrieval","old_object","202","Toy_MerryGoRound.jpg",".","1","37","0","1072"
"13","13","retrieval","new_object","203","Lobster.jpg",".",".","37","1","866"
"13","13","retrieval","old_object","204","Toy_LambPlushie.jpg",".","1","36","1","998"
"13","13","retrieval","old_object","205","WateringCan_Antique.jpg",".","1","37","0","826"
"13","13","retrieval","new_object","206","Carrot.jpg",".",".","37","1","1128"
"13","13","retrieval","old_object","207","Toy_Lizard.jpg",".","1","36","1","949"
"13","13","retrieval","old_object","208","Microwave.jpg",".","3","36","1","1030"
"13","13","retrieval","new_object","209","WaterCooler.jpg",".",".","37","1","777"
"13","13","retrieval","old_object","210","Carousel.jpg",".","3","36","1","863"
"13","13","retrieval","old_object","211","Toolbox_BlackOpen.jpg",".","1","36","1","784"
"13","13","retrieval","new_object","212","Shrimp.jpg",".",".","37","1","690"
"13","13","retrieval","old_object","213","Makeup_Compact.jpg",".","1","36","1","925"
"13","13","retrieval","new_object","214","Canister_Tea.jpg",".",".","36","0","807"
"13","13","retrieval","new_object","215","Ginger.jpg",".",".","37","1","751"
"13","13","retrieval","old_object","216","Platter_Vegetables.jpg",".","3","37","0","1223"
"13","13","retrieval","old_object","217","Envelope_Manila.jpg",".","1","36","1","797"
"13","13","retrieval","old_object","218","Bottle_Beer.jpg",".","3","36","1","734"
"13","13","retrieval","new_object","219","Flashlight.jpg",".",".","36","0","693"
"13","13","retrieval","new_object","220","Airplane_Small.jpg",".",".","37","1","695"
"13","13","retrieval","new_object","221","ComputerKey_Escape.jpg",".",".","37","1","841"
"13","13","retrieval","old_object","222","Jar_Honey.jpg",".","3","36","1","1056"
"13","13","retrieval","new_object","223","Stick_Stirring.jpg",".",".","37","1","1093"
"13","13","retrieval","old_object","224","WaterWell.jpg",".","1","36","1","1011"
"13","13","retrieval","old_object","225","PencilCase.jpg",".","3","36","1","884"
"13","13","retrieval","new_object","226","Stick_IceHockey.jpg",".",".","37","1","1049"
"13","13","retrieval","new_object","227","Computer_ExpansionCard.jpg",".",".","37","1","1160"
"13","13","retrieval","old_object","228","SofaAntique.jpg",".","1","36","1","797"
"13","13","retrieval","new_object","229","Broccoli.jpg",".",".","37","1","811"
"13","13","retrieval","new_object","230","Ruler_Wooden.jpg",".",".","36","0","936"
"13","13","retrieval","new_object","231","Box_Cutlery.jpg",".",".","37","1","846"
"13","13","retrieval","old_object","232","Clock_Interior.jpg",".","1","37","0","1108"
"13","13","retrieval","old_object","233","Light_Halogen.jpg",".","1","36","1","1010"
"13","13","retrieval","new_object","234","ShinPads.jpg",".",".","37","1","1026"
"13","13","retrieval","new_object","235","Bagpipes.jpg",".",".","37","1","1016"
"13","13","retrieval","new_object","236","NailFiles.jpg",".",".","37","1","1152"
"13","13","retrieval","new_object","237","ShoeLace_Flat.jpg",".",".","37","1","1204"
"13","13","retrieval","new_object","238","HairClipper.jpg",".",".","37","1","663"
"13","13","retrieval","new_object","239","Shirt_Tshirt.jpg",".",".","37","1","748"
"13","13","retrieval","new_object","240","Boar.jpg",".",".","37","1","750"
"13","13","retrieval","new_object","241","Barrel_Wine.jpg",".",".","37","1","700"
"13","13","retrieval","new_object","242","FuzzyDice.jpg",".",".","36","0","1008"
"13","13","retrieval","new_object","243","Mat_Bamboo.jpg",".",".","37","1","723"
"13","13","retrieval","new_object","244","TreeStump.jpg",".",".","37","1","817"
"13","13","retrieval","old_object","245","Bark.jpg",".","1","37","0","620"
"13","13","retrieval","new_object","246","Scorpion.jpg",".",".","37","1","832"
"13","13","retrieval","new_object","247","HairBand.jpg",".",".","37","1","1011"
"13","13","retrieval","old_object","248","Thermometer_Room.jpg",".","1","37","0","1059"
"13","13","retrieval","old_object","249","Television.jpg",".","1","37","0","922"
"13","13","retrieval","old_object","250","Mug_Travel.jpg",".","1","37","0","891"
"13","13","retrieval","old_object","251","Table_Saw.jpg",".","3","36","1","1344"
"13","13","retrieval","new_object","252","Sandwich_Ham.jpg",".",".","37","1","1322"
"13","13","retrieval","old_object","253","CarSuspension.jpg",".","3","37","0","1677"
"13","13","retrieval","new_object","254","Bus_DoubleDecker.jpg",".",".","37","1","1466"
"13","13","retrieval","new_object","255","Paddle_Canoe.jpg",".",".","36","0","1628"
"13","13","retrieval","new_object","256","RecorderInstrument.jpg",".",".","36","0","1564"
"13","13","retrieval","new_object","257","BowlingPin.jpg",".",".","37","1","974"
"13","13","retrieval","new_object","258","Toy_Rooster.jpg",".",".","36","0","1081"
"13","13","retrieval","new_object","259","Glove_Baseball.jpg",".",".","37","1","1156"
"13","13","retrieval","old_object","260","Lighter_Black.jpg",".","3","36","1","944"
"13","13","retrieval","old_object","261","HoseNozzle.jpg",".","3","37","0","985"
"13","13","retrieval","new_object","262","Suitcase.jpg",".",".","37","1","1009"
"13","13","retrieval","new_object","263","Toy_Wooden rings.jpg",".",".","37","1","820"
"13","13","retrieval","old_object","265","Lens_Camera.jpg",".","1","37","0","738"
"13","13","retrieval","new_object","266","Shoes_Mould.jpg",".",".","37","1","857"
"13","13","retrieval","old_object","267","FireAlarm.jpg",".","1","37","0","844"
"13","13","retrieval","new_object","268","Candleholder_LampShaped.jpg",".",".","37","1","855"
"13","13","retrieval","old_object","269","Castle_Sand.jpg",".","1","36","1","1120"
"13","13","retrieval","new_object","270","Coin.jpg",".",".","37","1","1041"
"13","13","retrieval","new_object","271","Heater_ElectricUpright.jpg",".",".","37","1","1072"
"13","13","retrieval","new_object","272","Paddle_Ball.jpg",".",".","37","1","904"
"13","13","retrieval","old_object","273","MemoPaperSpike.jpg",".","3","36","1","795"
"13","13","retrieval","old_object","274","MechanicalSpring.jpg",".","1","37","0","880"
"13","13","retrieval","old_object","275","SelfieStick.jpg",".","1","36","1","1044"
"13","13","retrieval","old_object","276","Bird_Duck.jpg",".","1","37","0","864"
"13","13","retrieval","new_object","277","TowelRack_Brown.jpg",".",".","37","1","900"
"13","13","retrieval","new_object","278","Helicopter.jpg",".",".","37","1","1001"
"13","13","retrieval","new_object","279","Sink_Kitchen.jpg",".",".","37","1","860"
"13","13","retrieval","old_object","280","Nuts_Pecan.jpg",".","1","36","1","760"
"13","13","retrieval","new_object","281","Puffin.jpg",".",".","37","1","571"
"13","13","retrieval","new_object","282","Card_Deck.jpg",".",".","37","1","772"
"13","13","retrieval","new_object","283","LeafBlower.jpg",".",".","37","1","1111"
"13","13","retrieval","new_object","284","Toy_Ladybug.jpg",".",".","37","1","1003"
"13","13","retrieval","old_object","285","SewingPin_Cushion.jpg",".","1","37","0","883"
"13","13","retrieval","old_object","286","Lollipop_Rainbow.jpg",".","1","36","1","1286"
"13","13","retrieval","old_object","287","Cable_JumpStart.jpg",".","1","37","0","889"
"13","13","retrieval","new_object","288","Dog_Bulldog.jpg",".",".","37","1","1151"
"13","13","retrieval","old_object","289","Tree_Fir.jpg",".","1","36","1","717"
"13","13","retrieval","old_object","290","AirPump.jpg",".","3","36","1","883"
"13","13","retrieval","old_object","291","PagodaModel.jpg",".","3","36","1","940"
"13","13","retrieval","old_object","292","Light_Fixtures.jpg",".","1","36","1","775"
"13","13","retrieval","old_object","293","Acorn.jpg",".","3","37","0","886"
"13","13","retrieval","new_object","294","Snorkle.jpg",".",".","37","1","1060"
"13","13","retrieval","new_object","295","Clamp_Screw.jpg",".",".","36","0","938"
"13","13","retrieval","old_object","296","Trash_Medical.jpg",".","3","36","1","1020"
"13","13","retrieval","old_object","297","Arch_Triomphe.jpg",".","1","37","0","883"
"13","13","retrieval","new_object","298","Toy_Bat.jpg",".",".","37","1","616"
"13","13","retrieval","old_object","299","Earring_Hoop.jpg",".","3","36","1","868"
"13","13","retrieval","old_object","300","ProjectorScreen.jpg",".","3","36","1","710"
"13","13","retrieval","old_object","301","Milkshake_Strawberry.jpg",".","3","36","1","814"
"13","13","retrieval","new_object","302","Bowl_Chopsticks.jpg",".",".","36","0","734"
"13","13","retrieval","new_object","303","Mitt_Blue.jpg",".",".","37","1","616"
"13","13","retrieval","old_object","304","Spear.jpg",".","1","36","1","691"
"13","13","retrieval","new_object","305","IceCubes.jpg",".",".","37","1","614"
"13","13","retrieval","new_object","306","Sphinx.jpg",".",".","36","0","872"
"13","13","retrieval","old_object","307","Chair_Office.jpg",".","1","36","1","905"
"13","13","retrieval","new_object","308","Suit_Women.jpg",".",".","37","1","888"
"13","13","retrieval","old_object","309","Compact_Mirror.jpg",".","3","36","1","713"
"13","13","retrieval","old_object","310","Corkboard.jpg",".","1","37","0","718"
"13","13","retrieval","new_object","311","Neckrest.jpg",".",".","37","1","723"
"13","13","retrieval","old_object","312","Fork_Regular.jpg",".","3","36","1","1058"
"13","13","retrieval","old_object","313","PumiceStone.jpg",".","3","36","1","757"
"13","13","retrieval","new_object","314","Bucket_WoodenLight.jpg",".",".","37","1","665"
"13","13","retrieval","old_object","315","DoubleBass.jpg",".","3","36","1","819"
"13","13","retrieval","old_object","316","Garlic_Whole.jpg",".","1","36","1","827"
"13","13","retrieval","new_object","317","Seeder.jpg",".",".","37","1","759"
"13","13","retrieval","new_object","318","Box_WoodCrate.jpg",".",".","37","1","907"
"13","13","retrieval","old_object","319","Lantern_Chinese.jpg",".","3","37","0","708"
"13","13","retrieval","old_object","320","Hockey_Puck.jpg",".","3","36","1","686"
"13","13","retrieval","new_object","321","Bag_Toiletry.jpg",".",".","36","0","832"
"13","13","retrieval","new_object","322","Compressor.jpg",".",".","36","0","768"
"13","13","retrieval","old_object","323","Brush_Light.jpg",".","","36","1","735"
"13","13","retrieval","new_object","324","Dragonfly.jpg",".",".","37","1","917"
"13","13","retrieval","new_object","325","Decoration_ChristmasWhite.jpg",".",".","36","0","786"
"13","13","demographics_block","gender","1",".",".",".","male","1","11316"
"13","13","demographics_block","age","1",".",".",".","32","1","11316"
"13","13","demographics_block","education","1",".",".",".","14","1","11316"
"13","13","demographics_block","left_right_handed","2",".",".",".","Right","1","4513"
"13","13","demographics_block","raceoption1","2",".",".",".","0","1","4513"
"13","13","demographics_block","raceoption2","2",".",".",".","","1","4513"
"13","13","demographics_block","raceoption3","2",".",".",".","","1","4513"
"13","13","demographics_block","raceoption4","2",".",".",".","","1","4513"
"13","13","demographics_block","raceoption5","2",".",".",".","","1","4513"
"13","13","demographics_block","raceoption6","2",".",".",".","","1","4513"
"13","13","demographics_block","raceoption7","2",".",".",".","","1","4513"
"13","13","demographics_block","raceoption8","2",".",".",".","","1","4513"
"13","13","demographics_block","raceoption9","2",".",".",".","","1","4513"
"13","13","demographics_block","raceother","2",".",".",".","","1","4513"
"13","13","demographics_block","raceother","2",".",".",".","","1","4513"
"13","13","demographics_block","english_language","2",".",".",".","Yes","1","4513"
"13","13","demographics_block","other","2",".",".",".","","1","4513"
"13","13","demographics_block","eyesight","3",".",".",".","Yes","1","2741"
"13","13","demographics_block","colorblind","3",".",".",".","No","1","2741"
"14","14","encoding","encoding","1","Tube_Paint.jpg","3",".","0","0","1009"
"14","14","encoding","encoding","2","CarSuspension.jpg","3",".","37","0","525"
"14","14","encoding","encoding","3","GasStation.jpg","3",".","37","0","542"
"14","14","encoding","encoding","4","Barbecue_Charcoal.jpg","3",".","37","0","584"
"14","14","encoding","encoding","5","TailLight.jpg","3",".","37","0","585"
"14","14","encoding","encoding","6","Ship_Cruise.jpg","3",".","37","0","523"
"14","14","encoding","encoding","7","TailLight.jpg","3",".","37","0","476"
"14","14","encoding","encoding","8","Sign_Construction.jpg","3",".","37","0","598"
"14","14","encoding","encoding","9","Clock_Interior.jpg","1",".","37","0","559"
"14","14","encoding","encoding","10","Fork_Regular.jpg","3",".","37","0","737"
"14","14","encoding","encoding","11","WateringCan_Antique.jpg","1",".","37","0","651"
"14","14","encoding","encoding","12","Barometer.jpg","3",".","37","0","652"
"14","14","encoding","encoding","13","Bone.jpg","3",".","37","0","614"
"14","14","encoding","encoding","14","Flags_CheckeredRacing.jpg","3",".","37","0","511"
"14","14","encoding","encoding","15","Toolbox_BlackOpen.jpg","1",".","37","0","465"
"14","14","encoding","encoding","16","Tube_Paint.jpg","3",".","37","0","754"
"14","14","encoding","encoding","17","Toy_LambPlushie.jpg","1",".","37","0","828"
"14","14","encoding","encoding","18","Aquarium.jpg","1",".","0","0","1009"
"14","14","encoding","encoding","19","Statue_Horse.jpg","3",".","37","0","575"
"14","14","encoding","encoding","20","Handbag.jpg","3",".","37","0","905"
"14","14","encoding","encoding","21","Hedgehog.jpg","1",".","36","0","682"
"14","14","encoding","encoding","22","Candy_Toffee.jpg","3",".","36","0","828"
"14","14","encoding","encoding","23","Hanger.jpg","3",".","37","0","645"
"14","14","encoding","encoding","24","Clave.jpg","3",".","37","0","639"
"14","14","encoding","encoding","25","Light_Studio.jpg","3",".","37","0","721"
"14","14","encoding","encoding","26","Lantern_Chinese.jpg","3",".","37","0","674"
"14","14","encoding","encoding","27","Tree_Fir.jpg","1",".","37","0","884"
"14","14","encoding","encoding","28","Bottle_Beer.jpg","3",".","37","0","693"
"14","14","encoding","encoding","29","Bucket_Halloween.jpg","3",".","37","0","711"
"14","14","encoding","encoding","30","BumperCar.jpg","1",".","37","0","688"
"14","14","encoding","encoding","31","Fork_Regular.jpg","3",".","37","0","770"
"14","14","encoding","encoding","32","Heelpad.jpg","3",".","37","0","780"
"14","14","encoding","encoding","33","Crab.jpg","3",".","36","0","661"
"14","14","encoding","encoding","34","Acorn.jpg","3",".","36","0","767"
"14","14","encoding","encoding","35","Statue_Man.jpg","1",".","37","0","720"
"14","14","encoding","encoding","36","Bark.jpg","1",".","36","0","698"
"14","14","encoding","encoding","37","PocketKnife.jpg","3",".","37","0","867"
"14","14","encoding","encoding","38","House_Wooden.jpg","1",".","36","0","701"
"14","14","encoding","encoding","39","Heelpad.jpg","3",".","37","0","751"
"14","14","encoding","encoding","40","Cable_JumpStart.jpg","1",".","37","0","656"
"14","14","encoding","encoding","41","Cannon.jpg","1",".","37","0","602"
"14","14","encoding","encoding","42","Compact_Mirror.jpg","3",".","37","0","595"
"14","14","encoding","encoding","43","PulleyWooden.jpg","3",".","37","0","773"
"14","14","encoding","encoding","44","Table_Saw.jpg","3",".","37","0","678"
"14","14","encoding","encoding","45","Backpack_Suitcase.jpg","1",".","37","0","848"
"14","14","encoding","encoding","46","Crab.jpg","3",".","36","0","946"
"14","14","encoding","encoding","47","CodeDoorLock.jpg","1",".","37","0","699"
"14","14","encoding","encoding","48","SolderingIron.jpg","1",".","37","0","797"
"14","14","encoding","encoding","49","Sign_Construction.jpg","3",".","0","0","1009"
"14","14","encoding","encoding","50","Briefcase_Silver.jpg","3",".","37","0","648"
"14","14","encoding","encoding","51","Earring_Hoop.jpg","3",".","37","0","577"
"14","14","encoding","encoding","52","Lantern_Chinese.jpg","3",".","37","0","515"
"14","14","encoding","encoding","53","Candy_Lozenge.jpg","3",".","36","0","701"
"14","14","encoding","encoding","54","Bread_Carrot.jpg","1",".","36","0","910"
"14","14","encoding","encoding","55","Bread_Melon.jpg","3",".","36","0","759"
"14","14","encoding","encoding","56","Lighter_Black.jpg","3",".","37","0","809"
"14","14","encoding","encoding","57","Light_Studio.jpg","3",".","37","0","739"
"14","14","encoding","encoding","58","Canister_Oil.jpg","3",".","37","0","652"
"14","14","encoding","encoding","59","Ship_Cruise.jpg","3",".","37","0","718"
"14","14","encoding","encoding","60","Platter_Vegetables.jpg","3",".","36","0","671"
"14","14","encoding","encoding","61","Wontons.jpg","3",".","36","0","760"
"14","14","encoding","encoding","62","MetalDetector.jpg","3",".","37","0","634"
"14","14","encoding","encoding","63","Wire_ElectricalSingle.jpg","1",".","37","0","699"
"14","14","encoding","encoding","64","CarSuspension.jpg","3",".","37","0","454"
"14","14","encoding","encoding","65","Lantern_Chinese.jpg","3",".","37","0","614"
"14","14","encoding","encoding","67","RAMchip.jpg","1",".","37","0","531"
"14","14","encoding","encoding","68","Hat_Colonial.jpg","3",".","37","0","557"
"14","14","encoding","encoding","69","Gecko.jpg","1",".","36","0","550"
"14","14","encoding","encoding","70","HoseNozzle.jpg","3",".","37","0","504"
"14","14","encoding","encoding","71","TailLight.jpg","3",".","37","0","473"
"14","14","encoding","encoding","72","Case_Pencil.jpg","3",".","37","0","459"
"14","14","encoding","encoding","73","Bus_School.jpg","3",".","37","0","453"
"14","14","encoding","encoding","74","SatelliteDish.jpg","3",".","36","0","478"
"14","14","encoding","encoding","75","Ladybug.jpg","1",".","36","0","504"
"14","14","encoding","encoding","76","Heelpad.jpg","3",".","37","0","513"
"14","14","encoding","encoding","77","Cart_Janitor.jpg","3",".","37","0","443"
"14","14","encoding","encoding","78","Helmet_Motorcycle.jpg","3",".","37","0","428"
"14","14","encoding","encoding","79","Acorn.jpg","3",".","36","0","590"
"14","14","encoding","encoding","80","GasStation.jpg","3",".","37","0","600"
"14","14","encoding","encoding","81","HoseNozzle.jpg","3",".","37","0","553"
"14","14","encoding","encoding","82","Toy_Lizard.jpg","1",".","37","0","715"
"14","14","encoding","encoding","83","Bag_Diaper.jpg","1",".","37","0","484"
"14","14","encoding","encoding","84","CarSuspension.jpg","3",".","37","0","510"
"14","14","encoding","encoding","85","Hockey_Puck.jpg","3",".","37","0","783"
"14","14","encoding","encoding","86","GasStation.jpg","3",".","37","0","529"
"14","14","encoding","encoding","87","Amp.jpg","3",".","37","0","467"
"14","14","encoding","encoding","88","PulleyWooden.jpg","3",".","37","0","420"
"14","14","encoding","encoding","89","LicensePlate.jpg","3",".","37","0","518"
"14","14","encoding","encoding","90","Taco.jpg","1",".","36","0","511"
"14","14","encoding","encoding","91","PagodaModel.jpg","3",".","37","0","529"
"14","14","encoding","encoding","92","Barometer_Wood.jpg","1",".","0","0","1009"
"14","14","encoding","encoding","93","Flags_CheckeredRacing.jpg","3",".","37","0","468"
"14","14","encoding","encoding","94","Microwave.jpg","3",".","37","0","766"
"14","14","encoding","encoding","95","SatelliteDish.jpg","3",".","37","0","687"
"14","14","encoding","encoding","96","Glass_Beer.jpg","3",".","37","0","961"
"14","14","encoding","encoding","97","Bread_Melon.jpg","3",".","36","0","618"
"14","14","encoding","encoding","98","Mailbox_Antique.jpg","1",".","37","0","508"
"14","14","encoding","encoding","99","MousepadAndMouse.jpg","3",".","37","0","565"
"14","14","encoding","encoding","100","PocketKnife.jpg","3",".","37","0","559"
"14","14","encoding","encoding","101","MemoPaperSpike.jpg","3",".","37","0","609"
"14","14","encoding","encoding","102","Box_FirstAid.jpg","3",".","37","0","586"
"14","14","encoding","encoding","103","Binder.jpg","1",".","37","0","492"
"14","14","encoding","encoding","104","Spatula.jpg","1",".","37","0","717"
"14","14","encoding","encoding","105","Cup_Bathroom.jpg","3",".","37","0","527"
"14","14","encoding","encoding","106","Wontons.jpg","3",".","36","0","536"
"14","14","encoding","encoding","107","Brush_Light.jpg","3",".","37","0","466"
"14","14","encoding","encoding","108","MechanicalSpring.jpg","1",".","37","0","491"
"14","14","encoding","encoding","109","WaterWell.jpg","1",".","37","0","485"
"14","14","encoding","encoding","110","Trash_Medical.jpg","3",".","37","0","487"
"14","14","encoding","encoding","111","Handbag.jpg","3",".","37","0","440"
"14","14","encoding","encoding","112","Canister_Oil.jpg","3",".","37","0","394"
"14","14","encoding","encoding","113","HairCurler.jpg","3",".","37","0","435"
"14","14","encoding","encoding","114","Milkshake_Strawberry.jpg","3",".","36","0","645"
"14","14","encoding","encoding","115","Barbecue_Charcoal.jpg","3",".","37","0","478"
"14","14","encoding","encoding","116","Light_Fixtures.jpg","1",".","37","0","512"
"14","14","encoding","encoding","117","Compact_Mirror.jpg","3",".","37","0","442"
"14","14","encoding","encoding","118","SolderingWire.jpg","3",".","37","0","499"
"14","14","encoding","encoding","119","Hat_Colonial.jpg","3",".","37","0","453"
"14","14","encoding","encoding","120","Box_FirstAid.jpg","3",".","37","0","502"
"14","14","encoding","encoding","121","AirPump.jpg","3",".","37","0","504"
"14","14","encoding","encoding","122","Bread_Roll.jpg","3",".","36","0","529"
"14","14","encoding","encoding","123","Stove_WithOven.jpg","1",".","37","0","491"
"14","14","encoding","encoding","124","DartBoard.jpg","1",".","37","0","533"
"14","14","encoding","encoding","125","HairCurler.jpg","3",".","37","0","542"
"14","14","encoding","encoding","126","LicensePlate.jpg","3",".","37","0","479"
"14","14","encoding","encoding","127","Jar_Honey.jpg","3",".","37","0","617"
"14","14","encoding","encoding","128","Barbecue_Charcoal.jpg","3",".","37","0","475"
"14","14","encoding","encoding","129","Trash_Medical.jpg","3",".","37","0","491"
"14","14","encoding","encoding","130","Stone_AncientWriting.jpg","3",".","36","0","645"
"14","14","encoding","encoding","131","Mailbox_Community.jpg","1",".","37","0","527"
"14","14","encoding","encoding","133","Bible.jpg","1",".","37","0","498"
"14","14","encoding","encoding","134","Bottle_Beer.jpg","3",".","37","0","508"
"14","14","encoding","encoding","135","Garlic_Whole.jpg","1",".","36","0","508"
"14","14","encoding","encoding","136","SelfieStick.jpg","1",".","37","0","390"
"14","14","encoding","encoding","137","Cake_Cheese.jpg","3",".","36","0","472"
"14","14","encoding","encoding","138","Statue_Horse.jpg","3",".","37","0","393"
"14","14","encoding","encoding","139","SewingPin_Cushion.jpg","1",".","37","0","556"
"14","14","encoding","encoding","140","Bat_Cricket.jpg","3",".","37","0","476"
"14","14","encoding","encoding","141","LifeJacket_Orangejpg.jpg","1",".","37","0","454"
"14","14","encoding","encoding","142","Hanger.jpg","3",".","37","0","576"
"14","14","encoding","encoding","143","Makeup_Compact.jpg","1",".","37","0","529"
"14","14","encoding","encoding","144","Carousel.jpg","3",".","37","0","586"
"14","14","encoding","encoding","145","Carousel.jpg","3",".","37","0","692"
"14","14","encoding","encoding","146","Radish.jpg","3",".","37","0","974"
"14","14","encoding","encoding","147","Carabiner_Orange.jpg","1",".","37","0","887"
"14","14","encoding","encoding","148","Jar_Honey.jpg","3",".","37","0","641"
"14","14","encoding","encoding","149","sign_traffic.jpg","1",".","37","0","562"
"14","14","encoding","encoding","150","Milkshake_Strawberry.jpg","3",".","36","0","892"
"14","14","encoding","encoding","151","Bread_Roll.jpg","3",".","36","0","501"
"14","14","encoding","encoding","152","Tube_Glue.jpg","3",".","37","0","519"
"14","14","encoding","encoding","153","Canister_Oil.jpg","3",".","37","0","512"
"14","14","encoding","encoding","154","Acorn.jpg","3",".","36","0","594"
"14","14","encoding","encoding","155","Fork_Regular.jpg","3",".","37","0","772"
"14","14","encoding","encoding","156","Thermometer_Room.jpg","1",".","37","0","653"
"14","14","encoding","encoding","157","Toy_PandaPlushie.jpg","3",".","0","0","1009"
"14","14","encoding","encoding","158","LicensePlate.jpg","3",".","37","0","504"
"14","14","encoding","encoding","159","Carousel.jpg","3",".","37","0","634"
"14","14","encoding","encoding","160","Lighter_Black.jpg","3",".","37","0","700"
"14","14","encoding","encoding","161","HoseNozzle.jpg","3",".","37","0","589"
"14","14","encoding","encoding","162","Cup_Bathroom.jpg","3",".","37","0","439"
"14","14","encoding","encoding","163","SatelliteDish.jpg","3",".","37","0","456"
"14","14","encoding","encoding","164","Tube_Glue.jpg","3",".","37","0","490"
"14","14","encoding","encoding","165","Cake_Cheese.jpg","3",".","36","0","475"
"14","14","encoding","encoding","166","PencilCase.jpg","3",".","37","0","557"
"14","14","encoding","encoding","167","DogSled.jpg","3",".","37","0","574"
"14","14","encoding","encoding","168","Television.jpg","1",".","37","0","840"
"14","14","encoding","encoding","169","Helmet_Motorcycle.jpg","3",".","37","0","578"
"14","14","encoding","encoding","170","CoffeeLid.jpg","3",".","37","0","515"
"14","14","encoding","encoding","171","Handbag.jpg","3",".","37","0","597"
"14","14","encoding","encoding","172","PumiceStone.jpg","3",".","36","0","686"
"14","14","encoding","encoding","173","Briefcase_Silver.jpg","3",".","37","0","496"
"14","14","encoding","encoding","174","Helmet_Football.jpg","1",".","37","0","569"
"14","14","encoding","encoding","175","Earring_Hoop.jpg","3",".","37","0","563"
"14","14","encoding","encoding","176","Toy_Truck.jpg","1",".","37","0","533"
"14","14","encoding","encoding","177","Candy_Toffee.jpg","3",".","36","0","430"
"14","14","encoding","encoding","178","Cymbals.jpg","1",".","37","0","544"
"14","14","encoding","encoding","179","IceCream_Popsicle.jpg","3",".","36","0","585"
"14","14","encoding","encoding","180","Toy_MerryGoRound.jpg","1",".","37","0","467"
"14","14","encoding","encoding","181","Radish.jpg","3",".","36","0","444"
"14","14","encoding","encoding","182","Compact_Mirror.jpg","3",".","37","0","462"
"14","14","encoding","encoding","183","Briefcase_Silver.jpg","3",".","0","0","1009"
"14","14","encoding","encoding","184","Platter_Vegetables.jpg","3",".","36","0","705"
"14","14","encoding","encoding","185","Hat_Colonial.jpg","3",".","37","0","491"
"14","14","encoding","encoding","186","Radish.jpg","3",".","36","0","580"
"14","14","encoding","encoding","187","AirCompressor.jpg","1",".","37","0","726"
"14","14","encoding","encoding","188","Platter_Vegetables.jpg","3",".","36","0","791"
"14","14","encoding","encoding","189","Envelope_Manila.jpg","1",".","37","0","553"
"14","14","encoding","encoding","190","Crab.jpg","3",".","36","0","507"
"14","14","encoding","encoding","191","HairCurler.jpg","3",".","37","0","540"
"14","14","encoding","encoding","192","SofaAntique.jpg","1",".","0","0","1009"
"14","14","encoding","encoding","193","Hockey_Puck.jpg","3",".","37","0","679"
"14","14","encoding","encoding","194","Tube_Paint.jpg","3",".","37","0","945"
"14","14","encoding","encoding","195","SolderingWire.jpg","3",".","37","0","634"
"14","14","encoding","encoding","196","Bandage_Adhesive.jpg","1",".","0","0","1009"
"14","14","encoding","encoding","197","Cinnamonroll.jpg","3",".","37","0","774"
"14","14","encoding","encoding","199","Bucket_Halloween.jpg","3",".","37","0","594"
"14","14","encoding","encoding","200","ProjectorScreen.jpg","3",".","37","0","579"
"14","14","encoding","encoding","201","Bus_School.jpg","3",".","37","0","556"
"14","14","encoding","encoding","202","Bone.jpg","3",".","36","0","438"
"14","14","encoding","encoding","203","Can_Oblong.jpg","3",".","37","0","808"
"14","14","encoding","encoding","204","Earring_Hoop.jpg","3",".","37","0","786"
"14","14","encoding","encoding","205","Toy_PandaPlushie.jpg","3",".","37","0","515"
"14","14","encoding","encoding","206","AirPump.jpg","3",".","37","0","436"
"14","14","encoding","encoding","207","Brush_Light.jpg","3",".","37","0","430"
"14","14","encoding","encoding","208","Spear.jpg","1",".","37","0","591"
"14","14","encoding","encoding","209","TortillaChip.jpg","1",".","36","0","881"
"14","14","encoding","encoding","210","Bread_Loaf.jpg","3",".","37","0","923"
"14","14","encoding","encoding","211","DogSled.jpg","3",".","37","0","772"
"14","14","encoding","encoding","212","Brush_Light.jpg","3",".","37","0","478"
"14","14","encoding","encoding","213","Barometer.jpg","3",".","37","0","407"
"14","14","encoding","encoding","214","Light_Studio.jpg","3",".","37","0","345"
"14","14","encoding","encoding","215","Sign_Construction.jpg","3",".","37","0","434"
"14","14","encoding","encoding","216","Candy_Lozenge.jpg","3",".","37","0","380"
"14","14","encoding","encoding","217","DoubleBass.jpg","3",".","0","0","1009"
"14","14","encoding","encoding","218","Mask_HockeyGoalie.jpg","1",".","0","0","1009"
"14","14","encoding","encoding","219","MousepadAndMouse.jpg","3",".","37","0","401"
"14","14","encoding","encoding","220","DogSled.jpg","3",".","0","0","1009"
"14","14","encoding","encoding","221","PagodaModel.jpg","3",".","37","0","76"
"14","14","encoding","encoding","222","Barometer.jpg","3",".","37","0","381"
"14","14","encoding","encoding","223","Desk_White.jpg","1",".","37","0","623"
"14","14","encoding","encoding","224","ProjectorScreen.jpg","3",".","37","0","601"
"14","14","encoding","encoding","225","PagodaModel.jpg","3",".","0","0","1009"
"14","14","encoding","encoding","226","PencilCase.jpg","3",".","37","0","892"
"14","14","encoding","encoding","227","ManholeCover.jpg","1",".","37","0","557"
"14","14","encoding","encoding","228","Bread_Loaf.jpg","3",".","36","0","559"
"14","14","encoding","encoding","229","SolderingWire.jpg","3",".","37","0","528"
"14","14","encoding","encoding","230","Case_Pencil.jpg","3",".","37","0","474"
"14","14","encoding","encoding","231","Table_Saw.jpg","3",".","37","0","452"
"14","14","encoding","encoding","232","PumiceStone.jpg","3",".","36","0","605"
"14","14","encoding","encoding","233","MemoPaperSpike.jpg","3",".","37","0","479"
"14","14","encoding","encoding","234","Weathervane.jpg","1",".","37","0","488"
"14","14","encoding","encoding","235","Castle_Sand.jpg","1",".","36","0","634"
"14","14","encoding","encoding","236","Van.jpg","1",".","37","0","627"
"14","14","encoding","encoding","237","Nuts_Pecan.jpg","1",".","37","0","469"
"14","14","encoding","encoding","238","MetalDetector.jpg","3",".","37","0","375"
"14","14","encoding","encoding","239","Mask_Ski.jpg","3",".","37","0","560"
"14","14","encoding","encoding","240","PencilCase.jpg","3",".","37","0","434"
"14","14","encoding","encoding","241","Oars.jpg","1",".","37","0","387"
"14","14","encoding","encoding","242","Helmet_Motorcycle.jpg","3",".","37","0","445"
"14","14","encoding","encoding","243","Lollipop_Rainbow.jpg","1",".","36","0","598"
"14","14","encoding","encoding","244","Hubcap.jpg","3",".","37","0","448"
"14","14","encoding","encoding","245","Cart_Janitor.jpg","3",".","37","0","953"
"14","14","encoding","encoding","246","Scythe.jpg","1",".","37","0","779"
"14","14","encoding","encoding","247","Hubcap.jpg","3",".","37","0","589"
"14","14","encoding","encoding","248","Jar_Honey.jpg","3",".","37","0","702"
"14","14","encoding","encoding","249","PyramidWooden.jpg","1",".","36","0","760"
"14","14","encoding","encoding","250","Amp.jpg","3",".","37","0","513"
"14","14","encoding","encoding","251","Bat_Cricket.jpg","3",".","37","0","667"
"14","14","encoding","encoding","252","Cinnamonroll.jpg","3",".","36","0","532"
"14","14","encoding","encoding","253","MemoPaperSpike.jpg","3",".","37","0","438"
"14","14","encoding","encoding","254","Bat_Cricket.jpg","3",".","37","0","512"
"14","14","encoding","encoding","255","Arch_Triomphe.jpg","1",".","37","0","417"
"14","14","encoding","encoding","256","Bread_Loaf.jpg","3",".","0","0","1009"
"14","14","encoding","encoding","257","Lens_Camera.jpg","1",".","37","0","332"
"14","14","encoding","encoding","258","Branch.jpg","1",".","36","0","550"
"14","14","encoding","encoding","259","Mug_Travel.jpg","1",".","37","0","415"
"14","14","encoding","encoding","260","Hockey_Puck.jpg","3",".","37","0","729"
"14","14","encoding","encoding","261","FireAlarm.jpg","1",".","37","0","587"
"14","14","encoding","encoding","262","Bread_Roll.jpg","3",".","37","0","780"
"14","14","encoding","encoding","263","ProjectorScreen.jpg","3",".","37","0","486"
"14","14","encoding","encoding","265","AirPump.jpg","3",".","37","0","716"
"14","14","encoding","encoding","266","Tube_Glue.jpg","3",".","37","0","502"
"14","14","encoding","encoding","267","Corkboard.jpg","1",".","37","0","512"
"14","14","encoding","encoding","268","Light_Halogen.jpg","1",".","37","0","473"
"14","14","encoding","encoding","269","Wontons.jpg","3",".","36","0","491"
"14","14","encoding","encoding","270","DoubleBass.jpg","3",".","37","0","676"
"14","14","encoding","encoding","271","Cinnamonroll.jpg","3",".","36","0","470"
"14","14","encoding","encoding","272","Milkshake_Strawberry.jpg","3",".","36","0","471"
"14","14","encoding","encoding","273","Case_Pencil.jpg","3",".","37","0","561"
"14","14","encoding","encoding","274","MousepadAndMouse.jpg","3",".","37","0","610"
"14","14","encoding","encoding","275","Mask_Ski.jpg","3",".","37","0","796"
"14","14","encoding","encoding","276","Stone_AncientWriting.jpg","3",".","36","0","622"
"14","14","encoding","encoding","277","Bird_Duck.jpg","1",".","36","0","679"
"14","14","encoding","encoding","278","Chair_Office.jpg","1",".","37","0","457"
"14","14","encoding","encoding","279","Bowl_Glass.jpg","1",".","37","0","474"
"14","14","encoding","encoding","280","Glass_Beer.jpg","3",".","36","0","436"
"14","14","encoding","encoding","281","IceCream_Popsicle.jpg","3",".","36","0","469"
"14","14","encoding","encoding","282","Cassette_Video.jpg","1",".","37","0","463"
"14","14","encoding","encoding","283","PocketKnife.jpg","3",".","37","0","576"
"14","14","encoding","encoding","284","MetalDetector.jpg","3",".","37","0","570"
"14","14","encoding","encoding","285","Candy_Toffee.jpg","3",".","36","0","460"
"14","14","encoding","encoding","286","CoffeeLid.jpg","3",".","37","0","461"
"14","14","encoding","encoding","287","Clave.jpg","3",".","36","0","559"
"14","14","encoding","encoding","288","Cup_Bathroom.jpg","3",".","37","0","440"
"14","14","encoding","encoding","289","Stone_AncientWriting.jpg","3",".","36","0","570"
"14","14","encoding","encoding","290","Ship_Cruise.jpg","3",".","37","0","691"
"14","14","encoding","encoding","291","Statue_Horse.jpg","3",".","37","0","693"
"14","14","encoding","encoding","292","Hubcap.jpg","3",".","37","0","615"
"14","14","encoding","encoding","293","Lighter_Black.jpg","3",".","37","0","344"
"14","14","encoding","encoding","294","Toy_PandaPlushie.jpg","3",".","37","0","666"
"14","14","encoding","encoding","295","Candy_Lozenge.jpg","3",".","36","0","475"
"14","14","encoding","encoding","296","Bread_Melon.jpg","3",".","36","0","461"
"14","14","encoding","encoding","297","Box_FirstAid.jpg","3",".","37","0","438"
"14","14","encoding","encoding","298","Cake_Cheese.jpg","3",".","36","0","464"
"14","14","encoding","encoding","299","Table_Saw.jpg","3",".","37","0","410"
"14","14","encoding","encoding","300","Amp.jpg","3",".","37","0","507"
"14","14","encoding","encoding","301","PumiceStone.jpg","3",".","36","0","445"
"14","14","encoding","encoding","302","Cart_Janitor.jpg","3",".","37","0","446"
"14","14","encoding","encoding","303","DoubleBass.jpg","3",".","37","0","472"
"14","14","encoding","encoding","304","Flags_CheckeredRacing.jpg","3",".","0","0","1009"
"14","14","encoding","encoding","305","Bone.jpg","3",".","36","0","571"
"14","14","encoding","encoding","306","Bottle_Beer.jpg","3",".","37","0","645"
"14","14","encoding","encoding","307","Trash_Medical.jpg","3",".","37","0","670"
"14","14","encoding","encoding","308","Clave.jpg","3",".","36","0","504"
"14","14","encoding","encoding","309","Bleachers.jpg","1",".","37","0","545"
"14","14","encoding","encoding","310","IceCream_Popsicle.jpg","3",".","36","0","595"
"14","14","encoding","encoding","311","CoffeeLid.jpg","3",".","37","0","460"
"14","14","encoding","encoding","312","Microwave.jpg","3",".","37","0","606"
"14","14","encoding","encoding","313","Bus_School.jpg","3",".","37","0","527"
"14","14","encoding","encoding","314","Can_Oblong.jpg","3",".","37","0","553"
"14","14","encoding","encoding","315","PulleyWooden.jpg","3",".","37","0","603"
"14","14","encoding","encoding","316","Bucket_Halloween.jpg","3",".","37","0","572"
"14","14","encoding","encoding","317","Mask_Ski.jpg","3",".","37","0","462"
"14","14","encoding","encoding","318","Can_Oblong.jpg","3",".","37","0","807"
"14","14","encoding","encoding","319","Microwave.jpg","3",".","37","0","577"
"14","14","encoding","encoding","320","Glass_Beer.jpg","3",".","37","0","498"
"14","14","encoding","encoding","321","Stool_Metal.jpg","1",".","37","0","492"
"14","14","encoding","encoding","322","Walker_Blue.jpg","1",".","37","0","454"
"14","14","encoding","encoding","323","Hanger.jpg","3",".","37","0","455"
"14","14","encoding","encoding","324","Umbrella_Classic.jpg","1",".","37","0","425"
"14","14","encoding","encoding","325","Tube_Paint.jpg","",".","37","0","418"
"14","14","retrieval","new_object","1","Jars_PetFood.jpg",".",".","37","1","857"
"14","14","retrieval","old_object","2","Brush_Light.jpg",".","3","36","1","626"
"14","14","retrieval","new_object","3","Cheeseburger.jpg",".",".","37","1","634"
"14","14","retrieval","old_object","4","Mask_Ski.jpg",".","3","36","1","923"
"14","14","retrieval","old_object","5","Bread_Carrot.jpg",".","1","37","0","643"
"14","14","retrieval","old_object","6","MousepadAndMouse.jpg",".","3","36","1","595"
"14","14","retrieval","new_object","7","Box_WoodCrate.jpg",".",".","37","1","756"
"14","14","retrieval","old_object","8","Cake_Cheese.jpg",".","3","36","1","612"
"14","14","retrieval","new_object","9","Tape_Dispenser.jpg",".",".","37","1","636"
"14","14","retrieval","new_object","10","GrillRack.jpg",".",".","37","1","477"
"14","14","retrieval","old_object","11","Mailbox_Antique.jpg",".","1","37","0","485"
"14","14","retrieval","new_object","12","Makeup_Bag.jpg",".",".","37","1","462"
"14","14","retrieval","old_object","13","DogSled.jpg",".","3","37","0","782"
"14","14","retrieval","new_object","14","Glove_Baseball.jpg",".",".","36","0","1143"
"14","14","retrieval","new_object","15","Helicopter.jpg",".",".","36","0","615"
"14","14","retrieval","new_object","16","Squash_Butternut.jpg",".",".","37","1","631"
"14","14","retrieval","new_object","17","Shirt_Tshirt.jpg",".",".","36","0","752"
"14","14","retrieval","old_object","18","Hedgehog.jpg",".","1","36","1","576"
"14","14","retrieval","new_object","19","MortarPestle_WhiteMarble.jpg",".",".","37","1","1081"
"14","14","retrieval","old_object","20","Binder.jpg",".","1","37","0","729"
"14","14","retrieval","new_object","21","Dropper.jpg",".",".","37","1","729"
"14","14","retrieval","new_object","22","Hat_Police.jpg",".",".","37","1","514"
"14","14","retrieval","old_object","23","Light_Studio.jpg",".","3","37","0","866"
"14","14","retrieval","new_object","24","Toy_Wooden rings.jpg",".",".","37","1","1067"
"14","14","retrieval","old_object","25","Bible.jpg",".","1","36","1","563"
"14","14","retrieval","new_object","26","Pyramid.jpg",".",".","36","0","483"
"14","14","retrieval","old_object","27","Candy_Toffee.jpg",".","3","36","1","564"
"14","14","retrieval","old_object","28","Tube_Glue.jpg",".","3","36","1","660"
"14","14","retrieval","new_object","29","Mat_Bamboo.jpg",".",".","36","0","908"
"14","14","retrieval","new_object","30","Heater_Outdoor.jpg",".",".","36","0","828"
"14","14","retrieval","old_object","31","SatelliteDish.jpg",".","3","37","0","804"
"14","14","retrieval","old_object","32","Cup_Bathroom.jpg",".","3","36","1","598"
"14","14","retrieval","old_object","33","AirCompressor.jpg",".","1","36","1","1061"
"14","14","retrieval","old_object","34","TailLight.jpg",".","3","36","1","942"
"14","14","retrieval","old_object","35","Case_Pencil.jpg",".","3","36","1","1134"
"14","14","retrieval","new_object","36","Toy_Taxi.jpg",".",".","37","1","1438"
"14","14","retrieval","old_object","37","Helmet_Football.jpg",".","1","36","1","1055"
"14","14","retrieval","new_object","38","ShoeLace_Flat.jpg",".",".","37","1","767"
"14","14","retrieval","old_object","39","Bleachers.jpg",".","1","37","0","1616"
"14","14","retrieval","new_object","40","Stick_Stirring.jpg",".",".","37","1","784"
"14","14","retrieval","new_object","41","Lips_Wax.jpg",".",".","37","1","1696"
"14","14","retrieval","new_object","42","Broccoli.jpg",".",".","36","0","1017"
"14","14","retrieval","old_object","43","Flags_CheckeredRacing.jpg",".","3","36","1","1097"
"14","14","retrieval","new_object","44","Dragonfly.jpg",".",".","36","0","1146"
"14","14","retrieval","new_object","45","Sink_Kitchen.jpg",".",".","37","1","802"
"14","14","retrieval","new_object","46","Notepad.jpg",".",".","37","1","714"
"14","14","retrieval","old_object","47","Taco.jpg",".","1","36","1","579"
"14","14","retrieval","old_object","48","Ship_Cruise.jpg",".","3","36","1","851"
"14","14","retrieval","new_object","49","Sign_SlipperyRoad.jpg",".",".","37","1","1164"
"14","14","retrieval","old_object","50","Stool_Metal.jpg",".","1","36","1","860"
"14","14","retrieval","new_object","51","Match.jpg",".",".","37","1","708"
"14","14","retrieval","new_object","52","Decoration_ChristmasWhite.jpg",".",".","37","1","549"
"14","14","retrieval","old_object","53","Cart_Janitor.jpg",".","3","36","1","925"
"14","14","retrieval","new_object","54","Flashlight.jpg",".",".","37","1","846"
"14","14","retrieval","new_object","55","Camera_Video.jpg",".",".","36","0","1094"
"14","14","retrieval","new_object","56","Scorpion.jpg",".",".","37","1","886"
"14","14","retrieval","old_object","57","Bread_Roll.jpg",".","3","36","1","631"
"14","14","retrieval","new_object","58","BrainSagittal.jpg",".",".","37","1","735"
"14","14","retrieval","new_object","59","Pretzel_Sticks.jpg",".",".","37","1","904"
"14","14","retrieval","new_object","60","Dog_Bulldog.jpg",".",".","37","1","816"
"14","14","retrieval","new_object","61","Bagpipes.jpg",".",".","37","1","1673"
"14","14","retrieval","new_object","62","ComputerKey_Escape.jpg",".",".","37","1","1177"
"14","14","retrieval","old_object","63","Box_FirstAid.jpg",".","3","36","1","1113"
"14","14","retrieval","old_object","64","Statue_Man.jpg",".","1","37","0","978"
"14","14","retrieval","new_object","65","Sandwich_Ham.jpg",".",".","37","1","810"
"14","14","retrieval","new_object","67","Heater_ElectricUpright.jpg",".",".","36","0","1226"
"14","14","retrieval","old_object","68","Glass_Beer.jpg",".","3","36","1","731"
"14","14","retrieval","new_object","69","Shrimp.jpg",".",".","37","1","603"
"14","14","retrieval","old_object","70","Toy_PandaPlushie.jpg",".","3","36","1","1076"
"14","14","retrieval","new_object","71","Pouch_Red.jpg",".",".","37","1","836"
"14","14","retrieval","old_object","72","Bucket_Halloween.jpg",".","3","36","1","892"
"14","14","retrieval","new_object","73","Level.jpg",".",".","37","1","725"
"14","14","retrieval","new_object","74","Snorkle.jpg",".",".","37","1","1301"
"14","14","retrieval","old_object","75","Spatula.jpg",".","1","37","0","1118"
"14","14","retrieval","new_object","76","Airplane_Small.jpg",".",".","37","1","934"
"14","14","retrieval","new_object","77","Candleholder_LampShaped.jpg",".",".","37","1","1382"
"14","14","retrieval","old_object","78","Van.jpg",".","1","37","0","694"
"14","14","retrieval","new_object","79","Toy_BeadMaze.jpg",".",".","37","1","662"
"14","14","retrieval","old_object","80","Bandage_Adhesive.jpg",".","1","37","0","1072"
"14","14","retrieval","new_object","81","VinylRecord.jpg",".",".","37","1","791"
"14","14","retrieval","new_object","82","Mask_VenetianCat.jpg",".",".","37","1","927"
"14","14","retrieval","old_object","83","LicensePlate.jpg",".","3","36","1","680"
"14","14","retrieval","old_object","84","Gecko.jpg",".","1","36","1","632"
"14","14","retrieval","new_object","85","Neckrest.jpg",".",".","37","1","705"
"14","14","retrieval","old_object","86","Tube_Paint.jpg",".","3","36","1","602"
"14","14","retrieval","new_object","87","Stone_Spa.jpg",".",".","37","1","625"
"14","14","retrieval","old_object","88","Handbag.jpg",".","3","36","1","794"
"14","14","retrieval","old_object","89","ManholeCover.jpg",".","1","36","1","978"
"14","14","retrieval","old_object","90","PocketKnife.jpg",".","3","36","1","659"
"14","14","retrieval","old_object","91","Oars.jpg",".","1","36","1","507"
"14","14","retrieval","new_object","92","SoapDish.jpg",".",".","37","1","1203"
"14","14","retrieval","old_object","93","Helmet_Motorcycle.jpg",".","3","37","0","1116"
"14","14","retrieval","old_object","94","Canister_Oil.jpg",".","3","36","1","1028"
"14","14","retrieval","new_object","95","Puzzle_Animal.jpg",".",".","37","1","581"
"14","14","retrieval","old_object","96","Bus_School.jpg",".","3","36","1","717"
"14","14","retrieval","new_object","97","Canister_Tea.jpg",".",".","37","1","797"
"14","14","retrieval","old_object","98","Statue_Horse.jpg",".","3","36","1","670"
"14","14","retrieval","new_object","99","PaperCutter.jpg",".",".","37","1","638"
"14","14","retrieval","old_object","100","IceCream_Popsicle.jpg",".","3","36","1","559"
"14","14","retrieval","new_object","101","Cologne.jpg",".",".","37","1","655"
"14","14","retrieval","new_object","102","Clamp_Screw.jpg",".",".","36","0","975"
"14","14","retrieval","new_object","103","TowelRack_Brown.jpg",".",".","37","1","672"
"14","14","retrieval","old_object","104","BumperCar.jpg",".","1","37","0","680"
"14","14","retrieval","old_object","105","Hanger.jpg",".","3","36","1","577"
"14","14","retrieval","new_object","106","WaterCooler.jpg",".",".","37","1","649"
"14","14","retrieval","old_object","107","HairCurler.jpg",".","3","36","1","1753"
"14","14","retrieval","old_object","108","Mailbox_Community.jpg",".","1","37","0","1082"
"14","14","retrieval","old_object","109","Cinnamonroll.jpg",".","3","36","1","1066"
"14","14","retrieval","new_object","110","Toy_DonkeyFur.jpg",".",".","37","1","819"
"14","14","retrieval","new_object","111","DonaldDuck_Toy.jpg",".",".","37","1","675"
"14","14","retrieval","old_object","112","Briefcase_Silver.jpg",".","3","36","1","532"
"14","14","retrieval","old_object","113","Barometer_Wood.jpg",".","1","36","1","644"
"14","14","retrieval","old_object","114","Umbrella_Classic.jpg",".","1","36","1","1388"
"14","14","retrieval","new_object","115","Speakers_Theatre.jpg",".",".","37","1","557"
"14","14","retrieval","old_object","116","CodeDoorLock.jpg",".","1","36","1","1429"
"14","14","retrieval","new_object","117","Toy_Firetruck.jpg",".",".","37","1","638"
"14","14","retrieval","new_object","118","IroningBoard.jpg",".",".","36","0","662"
"14","14","retrieval","new_object","119","Walkman.jpg",".",".","36","0","870"
"14","14","retrieval","old_object","120","Candy_Lozenge.jpg",".","3","36","1","591"
"14","14","retrieval","old_object","121","Bag_Diaper.jpg",".","1","37","0","671"
"14","14","retrieval","new_object","122","Ruler_Wooden.jpg",".",".","37","1","655"
"14","14","retrieval","old_object","123","Backpack_Suitcase.jpg",".","1","37","0","632"
"14","14","retrieval","new_object","124","MatchBook.jpg",".",".","37","1","1040"
"14","14","retrieval","old_object","125","MetalDetector.jpg",".","3","37","0","1105"
"14","14","retrieval","old_object","126","SolderingWire.jpg",".","3","36","1","745"
"14","14","retrieval","old_object","127","Radish.jpg",".","3","36","1","610"
"14","14","retrieval","new_object","128","SnowmanDecor.jpg",".",".","37","1","698"
"14","14","retrieval","old_object","129","Clave.jpg",".","3","36","1","642"
"14","14","retrieval","old_object","130","Branch.jpg",".","1","36","1","634"
"14","14","retrieval","old_object","131","Bread_Loaf.jpg",".","3","36","1","514"
"14","14","retrieval","old_object","133","Stove_WithOven.jpg",".","1","37","0","640"
"14","14","retrieval","new_object","134","Pear_Green.jpg",".",".","37","1","625"
"14","14","retrieval","new_object","135","Toy_Dog.jpg",".",".","37","1","849"
"14","14","retrieval","old_object","136","TortillaChip.jpg",".","1","36","1","730"
"14","14","retrieval","new_object","137","Drum_Ramadan.jpg",".",".","37","1","546"
"14","14","retrieval","old_object","138","Carabiner_Orange.jpg",".","1","37","0","578"
"14","14","retrieval","new_object","139","Otoscope.jpg",".",".","37","1","547"
"14","14","retrieval","new_object","140","PowderProtein.jpg",".",".","37","1","563"
"14","14","retrieval","new_object","141","FuzzyDice.jpg",".",".","36","0","628"
"14","14","retrieval","new_object","142","HairBand.jpg",".",".","37","1","500"
"14","14","retrieval","old_object","143","Barometer.jpg",".","3","36","1","636"
"14","14","retrieval","new_object","144","SaladCaesar.jpg",".",".","37","1","629"
"14","14","retrieval","new_object","145","Garlic_Clove.jpg",".",".","36","0","557"
"14","14","retrieval","old_object","146","Ladybug.jpg",".","1","36","1","510"
"14","14","retrieval","old_object","147","Bread_Melon.jpg",".","3","36","1","518"
"14","14","retrieval","new_object","148","Boat_Colourful.jpg",".",".","37","1","767"
"14","14","retrieval","new_object","149","BowlingPin.jpg",".",".","37","1","831"
"14","14","retrieval","old_object","150","GasStation.jpg",".","3","37","0","615"
"14","14","retrieval","new_object","151","Blueberry.jpg",".",".","36","0","536"
"14","14","retrieval","old_object","152","Bat_Cricket.jpg",".","3","36","1","504"
"14","14","retrieval","old_object","153","Desk_White.jpg",".","1","37","0","513"
"14","14","retrieval","old_object","154","Scythe.jpg",".","1","36","1","505"
"14","14","retrieval","new_object","155","Coin.jpg",".",".","37","1","545"
"14","14","retrieval","new_object","156","Dice.jpg",".",".","37","1","482"
"14","14","retrieval","new_object","157","Paddle_Canoe.jpg",".",".","36","0","498"
"14","14","retrieval","old_object","158","Mask_HockeyGoalie.jpg",".","1","36","1","938"
"14","14","retrieval","new_object","159","Puffin.jpg",".",".","37","1","875"
"14","14","retrieval","new_object","160","Hat_Feather.jpg",".",".","37","1","779"
"14","14","retrieval","new_object","161","Bicycle_Kids.jpg",".",".","37","1","548"
"14","14","retrieval","old_object","162","Aquarium.jpg",".","1","36","1","652"
"14","14","retrieval","old_object","163","Cannon.jpg",".","1","37","0","621"
"14","14","retrieval","new_object","164","TelescopeSpacecraft.jpg",".",".","37","1","621"
"14","14","retrieval","new_object","165","Shoes_Mould.jpg",".",".","37","1","541"
"14","14","retrieval","old_object","166","Weathervane.jpg",".","1","36","1","782"
"14","14","retrieval","new_object","167","Clippers_Glass.jpg",".",".","37","1","870"
"14","14","retrieval","old_object","168","Wontons.jpg",".","3","36","1","661"
"14","14","retrieval","new_object","169","CarLighter.jpg",".",".","37","1","647"
"14","14","retrieval","new_object","170","ShinPads.jpg",".",".","37","1","1038"
"14","14","retrieval","old_object","171","Cassette_Video.jpg",".","1","37","0","639"
"14","14","retrieval","old_object","172","SolderingIron.jpg",".","1","37","0","807"
"14","14","retrieval","new_object","173","DeepFryer.jpg",".",".","36","0","712"
"14","14","retrieval","new_object","174","Snowpea.jpg",".",".","37","1","809"
"14","14","retrieval","old_object","175","House_Wooden.jpg",".","1","36","1","912"
"14","14","retrieval","new_object","176","Backhoe.jpg",".",".","37","1","753"
"14","14","retrieval","old_object","177","Hat_Colonial.jpg",".","3","36","1","801"
"14","14","retrieval","old_object","178","Amp.jpg",".","3","37","0","1042"
"14","14","retrieval","old_object","179","PulleyWooden.jpg",".","3","37","0","795"
"14","14","retrieval","new_object","180","Car_Buggy.jpg",".",".","37","1","1554"
"14","14","retrieval","new_object","181","ClothesDryingRack.jpg",".",".","37","1","1491"
"14","14","retrieval","old_object","182","sign_traffic.jpg",".","1","36","1","723"
"14","14","retrieval","old_object","183","DartBoard.jpg",".","1","37","0","692"
"14","14","retrieval","new_object","184","Piano_Upright.jpg",".",".","37","1","676"
"14","14","retrieval","new_object","185","Card_TwoSpade.jpg",".",".","37","1","852"
"14","14","retrieval","new_object","186","Golf_Club.jpg",".",".","37","1","949"
"14","14","retrieval","new_object","187","VacuumHose.jpg",".",".","37","1","821"
"14","14","retrieval","old_object","188","Cymbals.jpg",".","1","37","0","1246"
"14","14","retrieval","old_object","189","CoffeeLid.jpg",".","3","37","0","718"
"14","14","retrieval","new_object","190","RadioactiveContainer.jpg",".",".","37","1","839"
"14","14","retrieval","new_object","191","Bag_Toiletry.jpg",".",".","37","1","615"
"14","14","retrieval","new_object","192","Ginger.jpg",".",".","36","0","671"
"14","14","retrieval","old_object","193","Toy_Truck.jpg",".","1","37","0","560"
"14","14","retrieval","new_object","194","Seeder.jpg",".",".","37","1","616"
"14","14","retrieval","new_object","195","Bus_DoubleDecker.jpg",".",".","36","0","816"
"14","14","retrieval","old_object","196","Sign_Construction.jpg",".","3","37","0","881"
"14","14","retrieval","new_object","197","Toy_Rooster.jpg",".",".","37","1","689"
"14","14","retrieval","new_object","199","Case_CD.jpg",".",".","37","1","657"
"14","14","retrieval","new_object","200","CDstack.jpg",".",".","37","1","1481"
"14","14","retrieval","old_object","201","Walker_Blue.jpg",".","1","37","0","682"
"14","14","retrieval","old_object","202","Heelpad.jpg",".","3","36","1","1018"
"14","14","retrieval","new_object","203","LintRemover.jpg",".",".","37","1","1202"
"14","14","retrieval","old_object","204","Can_Oblong.jpg",".","3","37","0","811"
"14","14","retrieval","old_object","205","PyramidWooden.jpg",".","1","36","1","819"
"14","14","retrieval","new_object","206","Paddle_Ball.jpg",".",".","37","1","684"
"14","14","retrieval","new_object","207","Desk_Office.jpg",".",".","37","1","668"
"14","14","retrieval","new_object","208","Celery.jpg",".",".","37","1","788"
"14","14","retrieval","old_object","209","Crab.jpg",".","3","36","1","637"
"14","14","retrieval","old_object","210","Hubcap.jpg",".","3","36","1","805"
"14","14","retrieval","old_object","211","LifeJacket_Orangejpg.jpg",".","1","36","1","790"
"14","14","retrieval","old_object","212","Bone.jpg",".","3","36","1","526"
"14","14","retrieval","new_object","213","Stick_IceHockey.jpg",".",".","37","1","1670"
"14","14","retrieval","new_object","214","PumpBreast.jpg",".",".","37","1","1311"
"14","14","retrieval","old_object","215","RAMchip.jpg",".","1","37","0","983"
"14","14","retrieval","old_object","216","Stone_AncientWriting.jpg",".","3","36","1","624"
"14","14","retrieval","new_object","217","Toy_Ladybug.jpg",".",".","37","1","696"
"14","14","retrieval","new_object","218","Glasses_Sun.jpg",".",".","37","1","832"
"14","14","retrieval","old_object","219","Barbecue_Charcoal.jpg",".","3","36","1","945"
"14","14","retrieval","new_object","220","WaterHeater.jpg",".",".","37","1","585"
"14","14","retrieval","new_object","221","FlintIgniter.jpg",".",".","37","1","802"
"14","14","retrieval","old_object","222","Wire_ElectricalSingle.jpg",".","1","0","0","2009"
"14","14","retrieval","new_object","223","Box_Cutlery.jpg",".",".","37","1","737"
"14","14","retrieval","old_object","224","Bowl_Glass.jpg",".","1","37","0","578"
"14","14","retrieval","old_object","225","Toy_MerryGoRound.jpg",".","1","36","1","699"
"14","14","retrieval","new_object","226","Boar.jpg",".",".","37","1","651"
"14","14","retrieval","old_object","227","Toy_LambPlushie.jpg",".","1","36","1","707"
"14","14","retrieval","new_object","228","Ostrich.jpg",".",".","37","1","675"
"14","14","retrieval","new_object","229","Toy_Christmastree.jpg",".",".","37","1","668"
"14","14","retrieval","old_object","230","WateringCan_Antique.jpg",".","1","37","0","916"
"14","14","retrieval","old_object","231","Toy_Lizard.jpg",".","1","36","1","677"
"14","14","retrieval","old_object","232","Microwave.jpg",".","3","37","0","597"
"14","14","retrieval","old_object","233","Carousel.jpg",".","3","36","1","605"
"14","14","retrieval","old_object","234","Toolbox_BlackOpen.jpg",".","1","36","1","582"
"14","14","retrieval","new_object","235","Bowl_Chopsticks.jpg",".",".","37","1","614"
"14","14","retrieval","old_object","236","Makeup_Compact.jpg",".","1","37","0","583"
"14","14","retrieval","old_object","237","Platter_Vegetables.jpg",".","3","36","1","551"
"14","14","retrieval","old_object","238","Envelope_Manila.jpg",".","1","37","0","679"
"14","14","retrieval","old_object","239","Bottle_Beer.jpg",".","3","37","0","456"
"14","14","retrieval","old_object","240","Jar_Honey.jpg",".","3","36","1","608"
"14","14","retrieval","new_object","241","Stool_Camping.jpg",".",".","37","1","673"
"14","14","retrieval","new_object","242","IceCubes.jpg",".",".","37","1","665"
"14","14","retrieval","new_object","243","Computer_ExpansionCard.jpg",".",".","36","0","738"
"14","14","retrieval","old_object","244","WaterWell.jpg",".","1","37","0","954"
"14","14","retrieval","old_object","245","PencilCase.jpg",".","3","36","1","610"
"14","14","retrieval","new_object","246","TreeStump.jpg",".",".","37","1","763"
"14","14","retrieval","new_object","247","Lobster.jpg",".",".","36","0","635"
"14","14","retrieval","old_object","248","SofaAntique.jpg",".","1","36","1","700"
