"group","subject","blockcode","trialcode","trialnum","stimulus","encoding_condition","old_object_condition","response","correct","latency"
"5","5","encoding","encoding","1","H33.jpg","1",".","0","0","1000"
"5","5","encoding","encoding","2","G67.jpg","3",".","0","0","1000"
"5","5","encoding","encoding","3","G35.jpg","3",".","0","0","1000"
"5","5","encoding","encoding","4","G7.jpg","3",".","0","0","1000"
"5","5","encoding","encoding","5","G45.jpg","3",".","0","0","1000"
"5","5","encoding","encoding","6","H72.jpg","1",".","37","0","468"
"5","5","encoding","encoding","7","G24.jpg","3",".","0","0","1000"
"5","5","encoding","encoding","8","G60.jpg","3",".","0","0","1000"
"5","5","encoding","encoding","9","G9.jpg","3",".","0","0","1000"
"5","5","encoding","encoding","10","H17.jpg","1",".","37","0","121"
"5","5","encoding","encoding","11","G74.jpg","3",".","37","0","358"
"5","5","encoding","encoding","12","G3.jpg","3",".","37","0","439"
"5","5","encoding","encoding","13","H32.jpg","1",".","0","0","1000"
"5","5","encoding","encoding","14","G5.jpg","3",".","37","0","182"
"5","5","encoding","encoding","15","G72.jpg","3",".","0","0","1000"
"5","5","encoding","encoding","16","H61.jpg","1",".","0","0","1000"
"5","5","encoding","encoding","17","H49.jpg","1",".","0","0","1000"
"5","5","encoding","encoding","18","G69.jpg","3",".","0","0","1000"
"5","5","encoding","encoding","19","G16.jpg","3",".","0","0","1000"
"5","5","encoding","encoding","20","H42.jpg","1",".","0","0","1000"
"5","5","encoding","encoding","21","G46.jpg","3",".","0","0","1000"
"5","5","encoding","encoding","22","G64.jpg","3",".","37","0","40"
"5","5","encoding","encoding","23","G70.jpg","3",".","37","0","849"
"5","5","encoding","encoding","24","G14.jpg","3",".","0","0","1000"
"5","5","encoding","encoding","25","G9.jpg","3",".","37","0","936"
"5","5","encoding","encoding","26","G43.jpg","3",".","0","0","1000"
"5","5","encoding","encoding","27","H67.jpg","1",".","0","0","1000"
"5","5","encoding","encoding","28","G64.jpg","3",".","0","0","1000"
"5","5","encoding","encoding","29","H68.jpg","1",".","0","0","1000"
"5","5","encoding","encoding","30","H38.jpg","1",".","37","0","75"
"5","5","encoding","encoding","31","H27.jpg","1",".","0","0","1000"
"5","5","encoding","encoding","32","G35.jpg","3",".","0","0","1000"
"5","5","encoding","encoding","33","G75.jpg","3",".","0","0","1000"
"5","5","encoding","encoding","34","G77.jpg","3",".","0","0","1000"
"5","5","encoding","encoding","35","H30.jpg","1",".","0","0","1000"
"5","5","encoding","encoding","36","G73.jpg","3",".","0","0","1000"
"5","5","encoding","encoding","37","G68.jpg","3",".","0","0","1000"
"5","5","encoding","encoding","38","G1.jpg","3",".","37","0","711"
"5","5","encoding","encoding","39","G65.jpg","3",".","0","0","1000"
"5","5","encoding","encoding","40","G43.jpg","3",".","37","0","683"
"5","5","encoding","encoding","41","H13.jpg","1",".","0","0","1000"
"5","5","encoding","encoding","42","H55.jpg","1",".","0","0","1000"
"5","5","encoding","encoding","43","G36.jpg","3",".","36","0","7"
"5","5","encoding","encoding","44","H71.jpg","1",".","36","0","5"
"5","5","encoding","encoding","45","H15.jpg","1",".","37","0","80"
"5","5","encoding","encoding","46","G31.jpg","3",".","37","0","107"
"5","5","encoding","encoding","47","G15.jpg","3",".","36","0","88"
"5","5","encoding","encoding","48","G28.jpg","3",".","36","0","50"
"5","5","encoding","encoding","49","H14.jpg","1",".","37","0","61"
"5","5","encoding","encoding","50","G55.jpg","3",".","36","0","40"
"5","5","encoding","encoding","51","G25.jpg","3",".","0","0","1000"
"5","5","encoding","encoding","52","G26.jpg","3",".","36","0","312"
"5","5","encoding","encoding","53","H39.jpg","1",".","37","0","57"
"5","5","encoding","encoding","54","G42.jpg","3",".","37","0","17"
"5","5","encoding","encoding","55","G60.jpg","3",".","36","0","0"
"5","5","encoding","encoding","56","G39.jpg","3",".","37","0","257"
"5","5","encoding","encoding","57","H21.jpg","1",".","36","0","50"
"5","5","encoding","encoding","58","H6.jpg","1",".","36","0","37"
"5","5","encoding","encoding","59","H5.jpg","1",".","37","0","339"
"5","5","encoding","encoding","60","H41.jpg","1",".","36","0","162"
"5","5","encoding","encoding","61","G51.jpg","3",".","37","0","56"
"5","5","encoding","encoding","62","G26.jpg","3",".","36","0","80"
"5","5","encoding","encoding","63","G64.jpg","3",".","36","0","123"
"5","5","encoding","encoding","64","G49.jpg","3",".","37","0","33"
"5","5","encoding","encoding","65","G2.jpg","3",".","37","0","109"
"5","5","encoding","encoding","67","G13.jpg","3",".","0","0","1000"
"5","5","encoding","encoding","68","G19.jpg","3",".","37","0","543"
"5","5","encoding","encoding","69","G71.jpg","3",".","37","0","313"
"5","5","encoding","encoding","70","G40.jpg","3",".","37","0","946"
"5","5","encoding","encoding","71","G21.jpg","3",".","0","0","1000"
"5","5","encoding","encoding","72","H44.jpg","1",".","0","0","1000"
"5","5","encoding","encoding","73","H53.jpg","1",".","0","0","1000"
"5","5","encoding","encoding","74","G79.jpg","3",".","37","0","628"
"5","5","encoding","encoding","75","G4.jpg","3",".","37","0","608"
"5","5","encoding","encoding","76","G43.jpg","3",".","37","0","829"
"5","5","encoding","encoding","77","G32.jpg","3",".","37","0","959"
"5","5","encoding","encoding","78","G63.jpg","3",".","0","0","1000"
"5","5","encoding","encoding","79","H76.jpg","1",".","0","0","1000"
"5","5","encoding","encoding","80","G33.jpg","3",".","0","0","1000"
"5","5","encoding","encoding","81","G39.jpg","3",".","37","0","969"
"5","5","encoding","encoding","82","H34.jpg","1",".","37","0","903"
"5","5","encoding","encoding","83","H60.jpg","1",".","37","0","957"
"5","5","encoding","encoding","84","G15.jpg","3",".","0","0","1000"
"5","5","encoding","encoding","85","G0.jpg","3",".","0","0","1000"
"5","5","encoding","encoding","86","G49.jpg","3",".","0","0","1000"
"5","5","encoding","encoding","87","G57.jpg","3",".","0","0","1000"
"5","5","encoding","encoding","88","G23.jpg","3",".","0","0","1000"
"5","5","encoding","encoding","89","H74.jpg","1",".","0","0","1000"
"5","5","encoding","encoding","90","G11.jpg","3",".","0","0","1000"
"5","5","encoding","encoding","91","G26.jpg","3",".","0","0","1000"
"5","5","encoding","encoding","92","G58.jpg","3",".","0","0","1000"
"5","5","encoding","encoding","93","G33.jpg","3",".","37","0","930"
"5","5","encoding","encoding","94","G65.jpg","3",".","37","0","649"
"5","5","encoding","encoding","95","G56.jpg","3",".","37","0","896"
"5","5","encoding","encoding","96","G7.jpg","3",".","37","0","704"
"5","5","encoding","encoding","97","G23.jpg","3",".","37","0","980"
"5","5","encoding","encoding","98","H47.jpg","1",".","0","0","1000"
"5","5","encoding","encoding","99","G71.jpg","3",".","37","0","235"
"5","5","encoding","encoding","100","G17.jpg","3",".","36","0","906"
"5","5","encoding","encoding","101","G53.jpg","3",".","37","0","8"
"5","5","encoding","encoding","102","G78.jpg","3",".","37","0","39"
"5","5","encoding","encoding","103","G27.jpg","3",".","37","0","290"
"5","5","encoding","encoding","104","H43.jpg","1",".","36","0","271"
"5","5","encoding","encoding","105","G29.jpg","3",".","37","0","218"
"5","5","encoding","encoding","106","H69.jpg","1",".","37","0","49"
"5","5","encoding","encoding","107","G48.jpg","3",".","37","0","5"
"5","5","encoding","encoding","108","H23.jpg","1",".","37","0","27"
"5","5","encoding","encoding","109","G78.jpg","3",".","37","0","111"
"5","5","encoding","encoding","110","H4.jpg","1",".","37","0","92"
"5","5","encoding","encoding","111","G52.jpg","3",".","36","0","34"
"5","5","encoding","encoding","112","G58.jpg","3",".","37","0","84"
"5","5","encoding","encoding","113","G8.jpg","3",".","36","0","26"
"5","5","encoding","encoding","114","G52.jpg","3",".","37","0","92"
"5","5","encoding","encoding","115","G53.jpg","3",".","36","0","307"
"5","5","encoding","encoding","116","G12.jpg","3",".","37","0","17"
"5","5","encoding","encoding","117","H51.jpg","1",".","37","0","43"
"5","5","encoding","encoding","118","H12.jpg","1",".","36","0","90"
"5","5","encoding","encoding","119","G22.jpg","3",".","36","0","162"
"5","5","encoding","encoding","120","G56.jpg","3",".","0","0","1000"
"5","5","encoding","encoding","121","H52.jpg","1",".","37","0","98"
"5","5","encoding","encoding","122","G25.jpg","3",".","37","0","101"
"5","5","encoding","encoding","123","G66.jpg","3",".","37","0","98"
"5","5","encoding","encoding","124","G29.jpg","3",".","36","0","53"
"5","5","encoding","encoding","125","G55.jpg","3",".","36","0","228"
"5","5","encoding","encoding","126","G31.jpg","3",".","36","0","307"
"5","5","encoding","encoding","127","H66.jpg","1",".","37","0","248"
"5","5","encoding","encoding","128","G44.jpg","3",".","37","0","84"
"5","5","encoding","encoding","129","G61.jpg","3",".","0","0","1000"
"5","5","encoding","encoding","130","G12.jpg","3",".","37","0","571"
"5","5","encoding","encoding","131","G49.jpg","3",".","37","0","537"
"5","5","encoding","encoding","133","H62.jpg","1",".","0","0","1000"
"5","5","encoding","encoding","134","G1.jpg","3",".","37","0","876"
"5","5","encoding","encoding","135","G10.jpg","3",".","37","0","246"
"5","5","encoding","encoding","136","G20.jpg","3",".","37","0","920"
"5","5","encoding","encoding","137","G28.jpg","3",".","0","0","1000"
"5","5","encoding","encoding","138","G62.jpg","3",".","0","0","1000"
"5","5","encoding","encoding","139","G20.jpg","3",".","37","0","975"
"5","5","encoding","encoding","140","G46.jpg","3",".","36","0","192"
"5","5","encoding","encoding","141","G39.jpg","3",".","37","0","175"
"5","5","encoding","encoding","142","G37.jpg","3",".","37","0","208"
"5","5","encoding","encoding","143","H26.jpg","1",".","36","0","5"
"5","5","encoding","encoding","144","G60.jpg","3",".","36","0","9"
"5","5","encoding","encoding","145","G54.jpg","3",".","37","0","17"
"5","5","encoding","encoding","146","G36.jpg","3",".","36","0","4"
"5","5","encoding","encoding","147","G32.jpg","3",".","36","0","92"
"5","5","encoding","encoding","148","G79.jpg","3",".","36","0","55"
"5","5","encoding","encoding","149","G47.jpg","3",".","37","0","175"
"5","5","encoding","encoding","150","G74.jpg","3",".","37","0","59"
"5","5","encoding","encoding","151","G35.jpg","3",".","36","0","14"
"5","5","encoding","encoding","152","G78.jpg","3",".","37","0","11"
"5","5","encoding","encoding","153","G40.jpg","3",".","36","0","49"
"5","5","encoding","encoding","154","G75.jpg","3",".","37","0","139"
"5","5","encoding","encoding","155","G45.jpg","3",".","37","0","58"
"5","5","encoding","encoding","156","G62.jpg","3",".","37","0","142"
"5","5","encoding","encoding","157","H57.jpg","1",".","37","0","673"
"5","5","encoding","encoding","158","H19.jpg","1",".","0","0","1000"
"5","5","encoding","encoding","159","G11.jpg","3",".","36","0","497"
"5","5","encoding","encoding","160","G41.jpg","3",".","36","0","276"
"5","5","encoding","encoding","161","G18.jpg","3",".","37","0","186"
"5","5","encoding","encoding","162","G19.jpg","3",".","37","0","115"
"5","5","encoding","encoding","163","H58.jpg","1",".","0","0","1000"
"5","5","encoding","encoding","164","G11.jpg","3",".","0","0","1000"
"5","5","encoding","encoding","165","H3.jpg","1",".","0","0","1000"
"5","5","encoding","encoding","166","G34.jpg","3",".","0","0","1000"
"5","5","encoding","encoding","167","G0.jpg","3",".","0","0","1000"
"5","5","encoding","encoding","168","G10.jpg","3",".","0","0","1000"
"5","5","encoding","encoding","169","G74.jpg","3",".","37","0","570"
"5","5","encoding","encoding","170","G47.jpg","3",".","37","0","608"
"5","5","encoding","encoding","171","G69.jpg","3",".","37","0","274"
"5","5","encoding","encoding","172","G70.jpg","3",".","37","0","205"
"5","5","encoding","encoding","173","G6.jpg","3",".","37","0","250"
"5","5","encoding","encoding","174","G73.jpg","3",".","0","0","1000"
"5","5","encoding","encoding","175","H16.jpg","1",".","0","0","1000"
"5","5","encoding","encoding","176","G59.jpg","3",".","0","0","1000"
"5","5","encoding","encoding","177","G8.jpg","3",".","0","0","1000"
"5","5","encoding","encoding","178","H10.jpg","1",".","0","0","1000"
"5","5","encoding","encoding","179","G41.jpg","3",".","37","0","391"
"5","5","encoding","encoding","180","G40.jpg","3",".","37","0","293"
"5","5","encoding","encoding","181","H79.jpg","1",".","37","0","63"
"5","5","encoding","encoding","182","G24.jpg","3",".","37","0","169"
"5","5","encoding","encoding","183","H8.jpg","1",".","37","0","3"
"5","5","encoding","encoding","184","G66.jpg","3",".","37","0","317"
"5","5","encoding","encoding","185","G2.jpg","3",".","36","0","182"
"5","5","encoding","encoding","186","G38.jpg","3",".","36","0","125"
"5","5","encoding","encoding","187","G51.jpg","3",".","36","0","91"
"5","5","encoding","encoding","188","G72.jpg","3",".","36","0","16"
"5","5","encoding","encoding","189","G28.jpg","3",".","37","0","20"
"5","5","encoding","encoding","190","G77.jpg","3",".","36","0","52"
"5","5","encoding","encoding","191","G7.jpg","3",".","37","0","101"
"5","5","encoding","encoding","192","G66.jpg","3",".","36","0","2"
"5","5","encoding","encoding","193","H54.jpg","1",".","0","0","1000"
"5","5","encoding","encoding","194","G72.jpg","3",".","0","0","1000"
"5","5","encoding","encoding","195","G38.jpg","3",".","0","0","1000"
"5","5","encoding","encoding","196","H45.jpg","1",".","0","0","1000"
"5","5","encoding","encoding","197","G65.jpg","3",".","37","0","612"
"5","5","encoding","encoding","199","G9.jpg","3",".","0","0","1000"
"5","5","encoding","encoding","200","G70.jpg","3",".","0","0","1000"
"5","5","encoding","encoding","201","G71.jpg","3",".","37","0","563"
"5","5","encoding","encoding","202","G75.jpg","3",".","0","0","1000"
"5","5","encoding","encoding","203","G50.jpg","3",".","36","0","143"
"5","5","encoding","encoding","204","H0.jpg","1",".","0","0","1000"
"5","5","encoding","encoding","205","G8.jpg","3",".","0","0","1000"
"5","5","encoding","encoding","206","G63.jpg","3",".","37","0","686"
"5","5","encoding","encoding","207","G5.jpg","3",".","36","0","95"
"5","5","encoding","encoding","208","G59.jpg","3",".","36","0","100"
"5","5","encoding","encoding","209","H29.jpg","1",".","36","0","34"
"5","5","encoding","encoding","210","H37.jpg","1",".","37","0","220"
"5","5","encoding","encoding","211","G31.jpg","3",".","0","0","1000"
"5","5","encoding","encoding","212","H2.jpg","1",".","0","0","1000"
"5","5","encoding","encoding","213","H20.jpg","1",".","0","0","1000"
"5","5","encoding","encoding","214","G76.jpg","3",".","0","0","1000"
"5","5","encoding","encoding","215","H77.jpg","1",".","0","0","1000"
"5","5","encoding","encoding","216","G21.jpg","3",".","0","0","1000"
"5","5","encoding","encoding","217","G14.jpg","3",".","0","0","1000"
"5","5","encoding","encoding","218","G10.jpg","3",".","0","0","1000"
"5","5","encoding","encoding","219","G50.jpg","3",".","0","0","1000"
"5","5","encoding","encoding","220","G61.jpg","3",".","0","0","1000"
"5","5","encoding","encoding","221","G5.jpg","3",".","0","0","1000"
"5","5","encoding","encoding","222","G1.jpg","3",".","0","0","1000"
"5","5","encoding","encoding","223","G14.jpg","3",".","0","0","1000"
"5","5","encoding","encoding","224","G13.jpg","3",".","0","0","1000"
"5","5","encoding","encoding","225","G30.jpg","3",".","0","0","1000"
"5","5","encoding","encoding","226","G41.jpg","3",".","0","0","1000"
"5","5","encoding","encoding","227","G19.jpg","3",".","0","0","1000"
"5","5","encoding","encoding","228","G17.jpg","3",".","0","0","1000"
"5","5","encoding","encoding","229","G36.jpg","3",".","0","0","1000"
"5","5","encoding","encoding","230","H35.jpg","1",".","0","0","1000"
"5","5","encoding","encoding","231","G25.jpg","3",".","0","0","1000"
"5","5","encoding","encoding","232","G37.jpg","3",".","0","0","1000"
"5","5","encoding","encoding","233","H64.jpg","1",".","0","0","1000"
"5","5","encoding","encoding","234","H11.jpg","1",".","0","0","1000"
"5","5","encoding","encoding","235","G32.jpg","3",".","0","0","1000"
"5","5","encoding","encoding","236","H28.jpg","1",".","37","0","275"
"5","5","encoding","encoding","237","H18.jpg","1",".","37","0","115"
"5","5","encoding","encoding","238","H59.jpg","1",".","37","0","179"
"5","5","encoding","encoding","239","G47.jpg","3",".","37","0","18"
"5","5","encoding","encoding","240","G22.jpg","3",".","37","0","114"
"5","5","encoding","encoding","241","G6.jpg","3",".","37","0","152"
"5","5","encoding","encoding","242","G27.jpg","3",".","37","0","111"
"5","5","encoding","encoding","243","G69.jpg","3",".","37","0","204"
"5","5","encoding","encoding","244","H36.jpg","1",".","37","0","121"
"5","5","encoding","encoding","245","G33.jpg","3",".","37","0","25"
"5","5","encoding","encoding","246","H56.jpg","1",".","37","0","64"
"5","5","encoding","encoding","247","G3.jpg","3",".","37","0","49"
"5","5","encoding","encoding","248","H24.jpg","1",".","37","0","646"
"5","5","encoding","encoding","249","G15.jpg","3",".","37","0","2"
"5","5","encoding","encoding","250","H50.jpg","1",".","37","0","510"
"5","5","encoding","encoding","251","G16.jpg","3",".","37","0","51"
"5","5","encoding","encoding","252","H1.jpg","1",".","37","0","180"
"5","5","encoding","encoding","253","H73.jpg","1",".","36","0","936"
"5","5","encoding","encoding","254","G73.jpg","3",".","0","0","1000"
"5","5","encoding","encoding","255","G46.jpg","3",".","0","0","1000"
"5","5","encoding","encoding","256","G76.jpg","3",".","37","0","719"
"5","5","encoding","encoding","257","G12.jpg","3",".","37","0","166"
"5","5","encoding","encoding","258","G67.jpg","3",".","36","0","4"
"5","5","encoding","encoding","259","G23.jpg","3",".","36","0","35"
"5","5","encoding","encoding","260","G62.jpg","3",".","36","0","60"
"5","5","encoding","encoding","261","G45.jpg","3",".","36","0","27"
"5","5","encoding","encoding","262","G42.jpg","3",".","37","0","490"
"5","5","encoding","encoding","263","G16.jpg","3",".","37","0","141"
"5","5","encoding","encoding","265","H78.jpg","1",".","0","0","1000"
"5","5","encoding","encoding","266","G79.jpg","3",".","37","0","8"
"5","5","encoding","encoding","267","H70.jpg","1",".","0","0","1000"
"5","5","encoding","encoding","268","H31.jpg","1",".","0","0","1000"
"5","5","encoding","encoding","269","G63.jpg","3",".","0","0","1000"
"5","5","encoding","encoding","270","G44.jpg","3",".","0","0","1000"
"5","5","encoding","encoding","271","H7.jpg","1",".","0","0","1000"
"5","5","encoding","encoding","272","G55.jpg","3",".","0","0","1000"
"5","5","encoding","encoding","273","G51.jpg","3",".","37","0","20"
"5","5","encoding","encoding","274","G4.jpg","3",".","0","0","1000"
"5","5","encoding","encoding","275","G3.jpg","3",".","0","0","1000"
"5","5","encoding","encoding","276","G37.jpg","3",".","37","0","281"
"5","5","encoding","encoding","277","G57.jpg","3",".","37","0","266"
"5","5","encoding","encoding","278","G18.jpg","3",".","37","0","89"
"5","5","encoding","encoding","279","H9.jpg","1",".","0","0","1000"
"5","5","encoding","encoding","280","G22.jpg","3",".","37","0","379"
"5","5","encoding","encoding","281","G48.jpg","3",".","37","0","412"
"5","5","encoding","encoding","282","G17.jpg","3",".","37","0","233"
"5","5","encoding","encoding","283","G6.jpg","3",".","37","0","80"
"5","5","encoding","encoding","284","H25.jpg","1",".","37","0","69"
"5","5","encoding","encoding","285","G68.jpg","3",".","37","0","2"
"5","5","encoding","encoding","286","G27.jpg","3",".","37","0","9"
"5","5","encoding","encoding","287","G24.jpg","3",".","37","0","154"
"5","5","encoding","encoding","288","G2.jpg","3",".","37","0","233"
"5","5","encoding","encoding","289","G50.jpg","3",".","37","0","52"
"5","5","encoding","encoding","290","G30.jpg","3",".","0","0","1000"
"5","5","encoding","encoding","291","G34.jpg","3",".","37","0","236"
"5","5","encoding","encoding","292","G59.jpg","3",".","0","0","1000"
"5","5","encoding","encoding","293","G52.jpg","3",".","0","0","1000"
"5","5","encoding","encoding","294","H40.jpg","1",".","37","0","71"
"5","5","encoding","encoding","295","G58.jpg","3",".","37","0","80"
"5","5","encoding","encoding","296","G54.jpg","3",".","37","0","215"
"5","5","encoding","encoding","297","G54.jpg","3",".","37","0","3"
"5","5","encoding","encoding","298","G56.jpg","3",".","37","0","16"
"5","5","encoding","encoding","299","H63.jpg","1",".","37","0","137"
"5","5","encoding","encoding","300","G61.jpg","3",".","37","0","958"
"5","5","encoding","encoding","301","H46.jpg","1",".","37","0","133"
"5","5","encoding","encoding","302","G13.jpg","3",".","37","0","217"
"5","5","encoding","encoding","303","G57.jpg","3",".","37","0","384"
"5","5","encoding","encoding","304","G30.jpg","3",".","37","0","33"
"5","5","encoding","encoding","305","G21.jpg","3",".","37","0","93"
"5","5","encoding","encoding","306","G20.jpg","3",".","37","0","272"
"5","5","encoding","encoding","307","G48.jpg","3",".","37","0","534"
"5","5","encoding","encoding","308","G53.jpg","3",".","37","0","404"
"5","5","encoding","encoding","309","G4.jpg","3",".","37","0","213"
"5","5","encoding","encoding","310","H22.jpg","1",".","37","0","463"
"5","5","encoding","encoding","311","G77.jpg","3",".","37","0","265"
"5","5","encoding","encoding","312","H75.jpg","1",".","0","0","1000"
"5","5","encoding","encoding","313","G67.jpg","3",".","0","0","1000"
"5","5","encoding","encoding","314","H48.jpg","1",".","0","0","1000"
"5","5","encoding","encoding","315","G18.jpg","3",".","0","0","1000"
"5","5","encoding","encoding","316","G34.jpg","3",".","0","0","1000"
"5","5","encoding","encoding","317","G42.jpg","3",".","0","0","1000"
"5","5","encoding","encoding","318","H65.jpg","1",".","0","0","1000"
"5","5","encoding","encoding","319","G68.jpg","3",".","0","0","1000"
"5","5","encoding","encoding","320","G38.jpg","3",".","0","0","1000"
"5","5","encoding","encoding","321","G76.jpg","3",".","0","0","1000"
"5","5","encoding","encoding","322","G29.jpg","3",".","0","0","1000"
"5","5","encoding","encoding","323","G0.jpg","3",".","0","0","1000"
"5","5","encoding","encoding","324","G44.jpg","3",".","0","0","1000"
"5","5","encoding","encoding","325","H33.jpg","",".","0","0","1000"
"5","5","retrieval","old_object","1","H6.jpg",".","1","37","0","1889"
"5","5","retrieval","new_object","2","F36.jpg",".",".","37","1","1544"
"5","5","retrieval","new_object","3","E27.jpg",".",".","0","0","2000"
"5","5","retrieval","old_object","4","G2.jpg",".","3","37","0","1041"
"5","5","retrieval","old_object","5","G37.jpg",".","3","0","0","2000"
"5","5","retrieval","new_object","6","F61.jpg",".",".","0","0","2000"
"5","5","retrieval","new_object","7","E12.jpg",".",".","37","1","43"
"5","5","retrieval","old_object","8","G6.jpg",".","3","36","1","25"
"5","5","retrieval","old_object","9","H23.jpg",".","1","37","0","148"
"5","5","retrieval","old_object","10","H46.jpg",".","1","36","1","3"
"5","5","retrieval","old_object","11","G38.jpg",".","3","36","1","42"
"5","5","retrieval","new_object","12","F58.jpg",".",".","37","1","161"
"5","5","retrieval","new_object","13","E57.jpg",".",".","37","1","4"
"5","5","retrieval","new_object","14","E50.jpg",".",".","36","0","375"
"5","5","retrieval","new_object","15","F50.jpg",".",".","36","0","48"
"5","5","retrieval","old_object","16","H67.jpg",".","1","37","0","748"
"5","5","retrieval","new_object","17","E79.jpg",".",".","36","0","1334"
"5","5","retrieval","old_object","18","G62.jpg",".","3","0","0","2000"
"5","5","retrieval","new_object","19","E30.jpg",".",".","0","0","2000"
"5","5","retrieval","old_object","20","G66.jpg",".","3","0","0","2000"
"5","5","retrieval","new_object","21","E45.jpg",".",".","36","0","377"
"5","5","retrieval","old_object","22","G3.jpg",".","3","36","1","979"
"5","5","retrieval","old_object","23","G26.jpg",".","3","36","1","1716"
"5","5","retrieval","new_object","24","E74.jpg",".",".","37","1","1163"
"5","5","retrieval","old_object","25","H47.jpg",".","1","37","0","15"
"5","5","retrieval","new_object","26","F53.jpg",".",".","36","0","73"
"5","5","retrieval","old_object","27","H50.jpg",".","1","37","0","100"
"5","5","retrieval","new_object","28","E22.jpg",".",".","37","1","43"
"5","5","retrieval","old_object","29","G13.jpg",".","3","36","1","37"
"5","5","retrieval","old_object","30","H28.jpg",".","1","36","1","56"
"5","5","retrieval","new_object","31","F76.jpg",".",".","0","0","2000"
"5","5","retrieval","old_object","32","H34.jpg",".","1","36","1","523"
"5","5","retrieval","old_object","33","G17.jpg",".","3","36","1","6"
"5","5","retrieval","old_object","34","H53.jpg",".","1","37","0","48"
"5","5","retrieval","new_object","35","E18.jpg",".",".","37","1","16"
"5","5","retrieval","new_object","36","F18.jpg",".",".","36","0","61"
"5","5","retrieval","old_object","37","G63.jpg",".","3","37","0","94"
"5","5","retrieval","new_object","38","F77.jpg",".",".","37","1","89"
"5","5","retrieval","old_object","39","H54.jpg",".","1","36","1","129"
"5","5","retrieval","new_object","40","F38.jpg",".",".","37","1","530"
"5","5","retrieval","new_object","41","F30.jpg",".",".","36","0","39"
"5","5","retrieval","old_object","42","G76.jpg",".","3","37","0","1243"
"5","5","retrieval","new_object","43","E6.jpg",".",".","0","0","2000"
"5","5","retrieval","old_object","44","H38.jpg",".","1","0","0","2000"
"5","5","retrieval","old_object","45","G34.jpg",".","3","37","0","1333"
"5","5","retrieval","new_object","46","F6.jpg",".",".","37","1","1141"
"5","5","retrieval","old_object","47","H21.jpg",".","1","37","0","263"
"5","5","retrieval","new_object","48","F39.jpg",".",".","37","1","31"
"5","5","retrieval","new_object","49","E23.jpg",".",".","37","1","5"
"5","5","retrieval","old_object","50","G72.jpg",".","3","37","0","123"
"5","5","retrieval","old_object","51","H69.jpg",".","1","36","1","111"
"5","5","retrieval","new_object","52","F12.jpg",".",".","36","0","60"
"5","5","retrieval","old_object","53","H48.jpg",".","1","37","0","81"
"5","5","retrieval","old_object","54","H20.jpg",".","1","36","1","66"
"5","5","retrieval","new_object","55","F49.jpg",".",".","36","0","84"
"5","5","retrieval","new_object","56","E77.jpg",".",".","37","1","5"
"5","5","retrieval","old_object","57","G24.jpg",".","3","36","1","148"
"5","5","retrieval","old_object","58","H60.jpg",".","1","36","1","8"
"5","5","retrieval","old_object","59","H33.jpg",".","1","37","0","180"
"5","5","retrieval","new_object","60","E47.jpg",".",".","0","0","2000"
"5","5","retrieval","new_object","61","E64.jpg",".",".","0","0","2000"
"5","5","retrieval","new_object","62","F19.jpg",".",".","37","1","139"
"5","5","retrieval","new_object","63","F29.jpg",".",".","36","0","148"
"5","5","retrieval","new_object","64","E21.jpg",".",".","36","0","72"
"5","5","retrieval","new_object","65","E54.jpg",".",".","37","1","20"
"5","5","retrieval","new_object","67","E73.jpg",".",".","36","0","1052"
"5","5","retrieval","new_object","68","E9.jpg",".",".","37","1","119"
"5","5","retrieval","new_object","69","F2.jpg",".",".","36","0","13"
"5","5","retrieval","new_object","70","F75.jpg",".",".","37","1","104"
"5","5","retrieval","old_object","71","G43.jpg",".","3","36","1","33"
"5","5","retrieval","new_object","72","F62.jpg",".",".","37","1","35"
"5","5","retrieval","new_object","73","E31.jpg",".",".","37","1","108"
"5","5","retrieval","new_object","74","F8.jpg",".",".","36","0","38"
"5","5","retrieval","new_object","75","E66.jpg",".",".","37","1","34"
"5","5","retrieval","old_object","76","G28.jpg",".","3","37","0","51"
"5","5","retrieval","new_object","77","E40.jpg",".",".","37","1","3"
"5","5","retrieval","new_object","78","F60.jpg",".",".","36","0","157"
"5","5","retrieval","new_object","79","E35.jpg",".",".","36","0","227"
"5","5","retrieval","old_object","80","H58.jpg",".","1","37","0","59"
"5","5","retrieval","old_object","81","G65.jpg",".","3","37","0","24"
"5","5","retrieval","new_object","82","F31.jpg",".",".","36","0","133"
"5","5","retrieval","old_object","83","G68.jpg",".","3","37","0","40"
"5","5","retrieval","old_object","84","H76.jpg",".","1","36","1","102"
"5","5","retrieval","new_object","85","F56.jpg",".",".","37","1","60"
"5","5","retrieval","new_object","86","F23.jpg",".",".","36","0","67"
"5","5","retrieval","old_object","87","G74.jpg",".","3","37","0","41"
"5","5","retrieval","new_object","88","F47.jpg",".",".","36","0","7"
"5","5","retrieval","new_object","89","E51.jpg",".",".","37","1","119"
"5","5","retrieval","old_object","90","H37.jpg",".","1","36","1","75"
"5","5","retrieval","new_object","91","E49.jpg",".",".","37","1","1679"
"5","5","retrieval","new_object","92","F3.jpg",".",".","36","0","412"
"5","5","retrieval","new_object","93","F14.jpg",".",".","36","0","137"
"5","5","retrieval","new_object","94","F73.jpg",".",".","36","0","65"
"5","5","retrieval","new_object","95","E69.jpg",".",".","36","0","5"
"5","5","retrieval","new_object","96","F1.jpg",".",".","36","0","175"
"5","5","retrieval","new_object","97","F44.jpg",".",".","37","1","57"
"5","5","retrieval","new_object","98","E76.jpg",".",".","36","0","103"
"5","5","retrieval","old_object","99","H78.jpg",".","1","36","1","74"
"5","5","retrieval","old_object","100","G64.jpg",".","3","36","1","53"
"5","5","retrieval","old_object","101","H17.jpg",".","1","36","1","380"
"5","5","retrieval","new_object","102","E32.jpg",".",".","37","1","11"
"5","5","retrieval","new_object","103","E33.jpg",".",".","36","0","56"
"5","5","retrieval","old_object","104","H7.jpg",".","1","37","0","33"
"5","5","retrieval","new_object","105","E72.jpg",".",".","37","1","1"
"5","5","retrieval","old_object","106","G10.jpg",".","3","37","0","137"
"5","5","retrieval","new_object","107","E0.jpg",".",".","37","1","8"
"5","5","retrieval","old_object","108","H61.jpg",".","1","36","1","214"
"5","5","retrieval","new_object","109","E68.jpg",".",".","36","0","23"
"5","5","retrieval","old_object","110","G55.jpg",".","3","36","1","62"
"5","5","retrieval","old_object","111","H45.jpg",".","1","36","1","155"
"5","5","retrieval","new_object","112","F5.jpg",".",".","36","0","215"
"5","5","retrieval","new_object","113","F65.jpg",".",".","36","0","185"
"5","5","retrieval","old_object","114","G18.jpg",".","3","36","1","105"
"5","5","retrieval","new_object","115","E60.jpg",".",".","0","0","2000"
"5","5","retrieval","old_object","116","H73.jpg",".","1","36","1","258"
"5","5","retrieval","old_object","117","H51.jpg",".","1","37","0","6"
"5","5","retrieval","new_object","118","E15.jpg",".",".","37","1","28"
"5","5","retrieval","new_object","119","E41.jpg",".",".","37","1","51"
"5","5","retrieval","new_object","120","E1.jpg",".",".","36","0","18"
"5","5","retrieval","old_object","121","G21.jpg",".","3","36","1","19"
"5","5","retrieval","new_object","122","E55.jpg",".",".","37","1","4"
"5","5","retrieval","old_object","123","H62.jpg",".","1","37","0","290"
"5","5","retrieval","old_object","124","G48.jpg",".","3","36","1","9"
"5","5","retrieval","new_object","125","F64.jpg",".",".","36","0","2"
"5","5","retrieval","old_object","126","G78.jpg",".","3","37","0","102"
"5","5","retrieval","old_object","127","H42.jpg",".","1","37","0","114"
"5","5","retrieval","new_object","128","F16.jpg",".",".","37","1","0"
"5","5","retrieval","new_object","129","E13.jpg",".",".","36","0","1"
"5","5","retrieval","old_object","130","H27.jpg",".","1","36","1","59"
"5","5","retrieval","old_object","131","G23.jpg",".","3","36","1","97"
"5","5","retrieval","new_object","133","F7.jpg",".",".","36","0","1342"
"5","5","retrieval","new_object","134","F45.jpg",".",".","36","0","24"
"5","5","retrieval","old_object","135","G46.jpg",".","3","36","1","154"
"5","5","retrieval","new_object","136","F42.jpg",".",".","36","0","29"
"5","5","retrieval","new_object","137","F20.jpg",".",".","36","0","21"
"5","5","retrieval","new_object","138","F21.jpg",".",".","36","0","208"
"5","5","retrieval","new_object","139","E62.jpg",".",".","36","0","43"
"5","5","retrieval","old_object","140","H32.jpg",".","1","36","1","1004"
"5","5","retrieval","old_object","141","G15.jpg",".","3","36","1","143"
"5","5","retrieval","new_object","142","E75.jpg",".",".","36","0","133"
"5","5","retrieval","new_object","143","E44.jpg",".",".","37","1","64"
"5","5","retrieval","old_object","144","H77.jpg",".","1","36","1","240"
"5","5","retrieval","old_object","145","H75.jpg",".","1","37","0","16"
"5","5","retrieval","old_object","146","H10.jpg",".","1","37","0","65"
"5","5","retrieval","new_object","147","E65.jpg",".",".","36","0","83"
"5","5","retrieval","old_object","148","H44.jpg",".","1","36","1","187"
"5","5","retrieval","old_object","149","H3.jpg",".","1","37","0","87"
"5","5","retrieval","new_object","150","F35.jpg",".",".","36","0","60"
"5","5","retrieval","old_object","151","H79.jpg",".","1","36","1","45"
"5","5","retrieval","new_object","152","E29.jpg",".",".","36","0","41"
"5","5","retrieval","new_object","153","E63.jpg",".",".","36","0","5"
"5","5","retrieval","new_object","154","E48.jpg",".",".","36","0","25"
"5","5","retrieval","old_object","155","H25.jpg",".","1","37","0","39"
"5","5","retrieval","new_object","156","E20.jpg",".",".","36","0","185"
"5","5","retrieval","old_object","157","G7.jpg",".","3","36","1","97"
"5","5","retrieval","new_object","158","E10.jpg",".",".","36","0","5"
"5","5","retrieval","old_object","159","H24.jpg",".","1","37","0","131"
"5","5","retrieval","old_object","160","G29.jpg",".","3","36","1","78"
"5","5","retrieval","old_object","161","H14.jpg",".","1","36","1","99"
"5","5","retrieval","old_object","162","H4.jpg",".","1","36","1","17"
"5","5","retrieval","old_object","163","H40.jpg",".","1","36","1","5"
"5","5","retrieval","old_object","164","H11.jpg",".","1","36","1","179"
"5","5","retrieval","new_object","165","E70.jpg",".",".","0","0","2000"
"5","5","retrieval","new_object","166","F15.jpg",".",".","0","0","2000"
"5","5","retrieval","old_object","167","G25.jpg",".","3","0","0","2000"
"5","5","retrieval","old_object","168","H71.jpg",".","1","36","1","1820"
"5","5","retrieval","old_object","169","H52.jpg",".","1","36","1","109"
"5","5","retrieval","old_object","170","G12.jpg",".","3","36","1","75"
"5","5","retrieval","new_object","171","E28.jpg",".",".","36","0","55"
"5","5","retrieval","new_object","172","E7.jpg",".",".","36","0","0"
"5","5","retrieval","old_object","173","G54.jpg",".","3","36","1","26"
"5","5","retrieval","old_object","174","G20.jpg",".","3","0","0","2000"
"5","5","retrieval","old_object","175","G30.jpg",".","3","36","1","1046"
"5","5","retrieval","new_object","176","F78.jpg",".",".","0","0","2000"
"5","5","retrieval","old_object","177","G0.jpg",".","3","36","1","1919"
"5","5","retrieval","new_object","178","E34.jpg",".",".","36","0","39"
"5","5","retrieval","new_object","179","F71.jpg",".",".","36","0","23"
"5","5","retrieval","old_object","180","H72.jpg",".","1","36","1","24"
"5","5","retrieval","old_object","181","G60.jpg",".","3","37","0","43"
"5","5","retrieval","new_object","182","E67.jpg",".",".","36","0","22"
"5","5","retrieval","old_object","183","G5.jpg",".","3","37","0","106"
"5","5","retrieval","old_object","184","H63.jpg",".","1","37","0","98"
"5","5","retrieval","old_object","185","H22.jpg",".","1","36","1","88"
"5","5","retrieval","new_object","186","F34.jpg",".",".","37","1","65"
"5","5","retrieval","new_object","187","E42.jpg",".",".","36","0","34"
"5","5","retrieval","new_object","188","E61.jpg",".",".","36","0","7"
"5","5","retrieval","old_object","189","G79.jpg",".","3","37","0","58"
"5","5","retrieval","new_object","190","E25.jpg",".",".","37","1","37"
"5","5","retrieval","old_object","191","G51.jpg",".","3","37","0","56"
"5","5","retrieval","old_object","192","H49.jpg",".","1","36","1","26"
"5","5","retrieval","new_object","193","F13.jpg",".",".","37","1","350"
"5","5","retrieval","old_object","194","H65.jpg",".","1","36","1","36"
"5","5","retrieval","old_object","195","G35.jpg",".","3","37","0","101"
"5","5","retrieval","new_object","196","E5.jpg",".",".","36","0","43"
"5","5","retrieval","old_object","197","H36.jpg",".","1","37","0","18"
"5","5","retrieval","new_object","199","F43.jpg",".",".","0","0","2000"
"5","5","retrieval","old_object","200","G16.jpg",".","3","37","0","10"
"5","5","retrieval","old_object","201","H56.jpg",".","1","36","1","191"
"5","5","retrieval","old_object","202","H59.jpg",".","1","36","1","56"
"5","5","retrieval","old_object","203","H5.jpg",".","1","37","0","76"
"5","5","retrieval","new_object","204","F55.jpg",".",".","37","1","46"
"5","5","retrieval","old_object","205","H35.jpg",".","1","37","0","125"
"5","5","retrieval","new_object","206","F10.jpg",".",".","37","1","38"
"5","5","retrieval","new_object","207","F46.jpg",".",".","37","1","111"
"5","5","retrieval","new_object","208","F28.jpg",".",".","37","1","5"
"5","5","retrieval","new_object","209","F79.jpg",".",".","37","1","337"
"5","5","retrieval","new_object","210","F70.jpg",".",".","37","1","65"
"5","5","retrieval","old_object","211","G67.jpg",".","3","36","1","61"
"5","5","retrieval","new_object","212","E14.jpg",".",".","37","1","199"
"5","5","retrieval","new_object","213","F51.jpg",".",".","36","0","49"
"5","5","retrieval","new_object","214","E53.jpg",".",".","0","0","2000"
"5","5","retrieval","old_object","215","G75.jpg",".","3","0","0","2000"
"5","5","retrieval","old_object","216","H0.jpg",".","1","36","1","135"
"5","5","retrieval","old_object","217","G47.jpg",".","3","37","0","23"
"5","5","retrieval","new_object","218","E46.jpg",".",".","37","1","63"
"5","5","retrieval","old_object","219","G36.jpg",".","3","36","1","59"
"5","5","retrieval","new_object","220","F9.jpg",".",".","37","1","41"
"5","5","retrieval","old_object","221","G50.jpg",".","3","36","1","221"
"5","5","retrieval","new_object","222","E11.jpg",".",".","36","0","50"
"5","5","retrieval","new_object","223","F68.jpg",".",".","37","1","8"
"5","5","retrieval","old_object","224","G45.jpg",".","3","37","0","116"
"5","5","retrieval","new_object","225","F57.jpg",".",".","36","0","73"
"5","5","retrieval","new_object","226","E71.jpg",".",".","36","0","78"
"5","5","retrieval","old_object","227","G33.jpg",".","3","36","1","22"
"5","5","retrieval","old_object","228","G77.jpg",".","3","36","1","27"
"5","5","retrieval","old_object","229","G4.jpg",".","3","37","0","99"
"5","5","retrieval","old_object","230","H74.jpg",".","1","37","0","14"
"5","5","retrieval","new_object","231","F74.jpg",".",".","37","1","139"
"5","5","retrieval","new_object","232","F69.jpg",".",".","37","1","45"
"5","5","retrieval","old_object","233","H41.jpg",".","1","36","1","7"
"5","5","retrieval","old_object","234","G53.jpg",".","3","36","1","32"
"5","5","retrieval","old_object","235","G73.jpg",".","3","37","0","52"
"5","5","retrieval","old_object","236","H8.jpg",".","1","37","0","102"
"5","5","retrieval","new_object","237","F24.jpg",".",".","37","1","25"
"5","5","retrieval","old_object","238","H16.jpg",".","1","37","0","14"
"5","5","retrieval","old_object","239","G31.jpg",".","3","37","0","133"
"5","5","retrieval","new_object","240","E78.jpg",".",".","36","0","117"
"5","5","retrieval","new_object","241","F17.jpg",".",".","36","0","1198"
"5","5","retrieval","old_object","242","G44.jpg",".","3","37","0","150"
"5","5","retrieval","old_object","243","G41.jpg",".","3","37","0","138"
"5","5","retrieval","old_object","244","G27.jpg",".","3","37","0","160"
"5","5","retrieval","old_object","245","G56.jpg",".","3","37","0","59"
"5","5","retrieval","old_object","246","H1.jpg",".","1","36","1","43"
"5","5","retrieval","new_object","247","F25.jpg",".",".","37","1","51"
"5","5","retrieval","old_object","248","H9.jpg",".","1","36","1","182"
"5","5","retrieval","new_object","249","F48.jpg",".",".","37","1","79"
"5","5","retrieval","old_object","250","G57.jpg",".","3","37","0","83"
"5","5","retrieval","new_object","251","E8.jpg",".",".","36","0","34"
"5","5","retrieval","old_object","252","H39.jpg",".","1","36","1","99"
"5","5","retrieval","new_object","253","E52.jpg",".",".","37","1","117"
"5","5","retrieval","new_object","254","E2.jpg",".",".","37","1","62"
"5","5","retrieval","new_object","255","E17.jpg",".",".","37","1","119"
"5","5","retrieval","new_object","256","E56.jpg",".",".","36","0","58"
"5","5","retrieval","old_object","257","H30.jpg",".","1","37","0","315"
"5","5","retrieval","new_object","258","F4.jpg",".",".","36","0","94"
"5","5","retrieval","old_object","259","H2.jpg",".","1","36","1","98"
"5","5","retrieval","new_object","260","F22.jpg",".",".","37","1","19"
"5","5","retrieval","old_object","261","G14.jpg",".","3","37","0","113"
"5","5","retrieval","old_object","262","H19.jpg",".","1","36","1","73"
"5","5","retrieval","old_object","263","G58.jpg",".","3","37","0","290"
"5","5","retrieval","new_object","265","E4.jpg",".",".","37","1","1651"
"5","5","retrieval","old_object","266","H26.jpg",".","1","36","1","37"
"5","5","retrieval","new_object","267","E24.jpg",".",".","36","0","4"
"5","5","retrieval","old_object","268","G39.jpg",".","3","36","1","47"
"5","5","retrieval","new_object","269","F26.jpg",".",".","36","0","112"
"5","5","retrieval","new_object","270","F59.jpg",".",".","37","1","153"
"5","5","retrieval","new_object","271","F52.jpg",".",".","37","1","34"
"5","5","retrieval","new_object","272","E39.jpg",".",".","37","1","105"
"5","5","retrieval","new_object","273","E37.jpg",".",".","37","1","120"
"5","5","retrieval","old_object","274","G19.jpg",".","3","36","1","176"
"5","5","retrieval","new_object","275","F67.jpg",".",".","36","0","66"
"5","5","retrieval","new_object","276","F63.jpg",".",".","37","1","114"
"5","5","retrieval","old_object","277","G1.jpg",".","3","37","0","111"
"5","5","retrieval","new_object","278","F0.jpg",".",".","37","1","56"
"5","5","retrieval","old_object","279","G22.jpg",".","3","36","1","74"
"5","5","retrieval","new_object","280","E3.jpg",".",".","37","1","54"
"5","5","retrieval","old_object","281","H18.jpg",".","1","36","1","165"
"5","5","retrieval","old_object","282","H57.jpg",".","1","37","0","39"
"5","5","retrieval","new_object","283","F41.jpg",".",".","36","0","126"
"5","5","retrieval","new_object","284","E59.jpg",".",".","37","1","231"
"5","5","retrieval","new_object","285","F37.jpg",".",".","36","0","160"
"5","5","retrieval","old_object","286","H55.jpg",".","1","36","1","126"
"5","5","retrieval","new_object","287","E36.jpg",".",".","36","0","70"
"5","5","retrieval","old_object","288","G8.jpg",".","3","36","1","198"
"5","5","retrieval","old_object","289","G71.jpg",".","3","37","0","139"
"5","5","retrieval","old_object","290","G59.jpg",".","3","36","1","32"
"5","5","retrieval","old_object","291","H66.jpg",".","1","36","1","89"
"5","5","retrieval","old_object","292","H43.jpg",".","1","37","0","137"
"5","5","retrieval","new_object","293","F27.jpg",".",".","37","1","51"
"5","5","retrieval","old_object","294","H70.jpg",".","1","36","1","94"
"5","5","retrieval","new_object","295","E19.jpg",".",".","37","1","116"
"5","5","retrieval","old_object","296","G70.jpg",".","3","36","1","189"
"5","5","retrieval","new_object","297","F32.jpg",".",".","36","0","605"
"5","5","retrieval","old_object","298","H64.jpg",".","1","36","1","102"
"5","5","retrieval","new_object","299","F72.jpg",".",".","37","1","312"
"5","5","retrieval","old_object","300","G69.jpg",".","3","37","0","203"
"5","5","retrieval","old_object","301","G61.jpg",".","3","37","0","25"
"5","5","retrieval","new_object","302","E16.jpg",".",".","37","1","58"
"5","5","retrieval","old_object","303","H12.jpg",".","1","37","0","87"
"5","5","retrieval","old_object","304","G11.jpg",".","3","37","0","263"
"5","5","retrieval","old_object","305","G42.jpg",".","3","37","0","79"
"5","5","retrieval","old_object","306","G49.jpg",".","3","36","1","61"
"5","5","retrieval","new_object","307","F66.jpg",".",".","36","0","209"
"5","5","retrieval","old_object","308","H13.jpg",".","1","37","0","296"
"5","5","retrieval","new_object","309","F11.jpg",".",".","36","0","293"
"5","5","retrieval","new_object","310","E43.jpg",".",".","37","1","233"
"5","5","retrieval","old_object","311","G32.jpg",".","3","36","1","54"
"5","5","retrieval","new_object","312","E38.jpg",".",".","36","0","397"
"5","5","retrieval","old_object","313","G52.jpg",".","3","36","1","19"
"5","5","retrieval","old_object","314","G40.jpg",".","3","36","1","31"
"5","5","retrieval","old_object","315","H29.jpg",".","1","36","1","167"
"5","5","retrieval","new_object","316","F54.jpg",".",".","36","0","107"
"5","5","retrieval","new_object","317","E26.jpg",".",".","36","0","130"
"5","5","retrieval","old_object","318","G9.jpg",".","3","36","1","100"
"5","5","retrieval","new_object","319","F33.jpg",".",".","37","1","1"
"5","5","retrieval","old_object","320","H68.jpg",".","1","36","1","103"
"5","5","retrieval","new_object","321","F40.jpg",".",".","36","0","105"
"5","5","retrieval","old_object","322","H31.jpg",".","1","36","1","40"
"5","5","retrieval","old_object","323","H15.jpg",".","1","37","0","63"
"5","5","retrieval","old_object","324","H6.jpg",".","","37","0","4"
"5","5","retrieval","new_object","325","E58.jpg",".",".","36","0","21"
"5","5","demographics_block","gender","1",".",".",".","female","1","29049"
"5","5","demographics_block","age","1",".",".",".","25","1","29049"
"5","5","demographics_block","education","1",".",".",".","16","1","29049"
"5","5","demographics_block","left_right_handed","2",".",".",".","Right","1","8461"
"5","5","demographics_block","raceoption1","2",".",".",".","0","1","8461"
"5","5","demographics_block","raceoption2","2",".",".",".","","1","8461"
"5","5","demographics_block","raceoption3","2",".",".",".","","1","8461"
"5","5","demographics_block","raceoption4","2",".",".",".","","1","8461"
"5","5","demographics_block","raceoption5","2",".",".",".","","1","8461"
"5","5","demographics_block","raceoption6","2",".",".",".","","1","8461"
"5","5","demographics_block","raceoption7","2",".",".",".","","1","8461"
"5","5","demographics_block","raceoption8","2",".",".",".","","1","8461"
"5","5","demographics_block","raceoption9","2",".",".",".","","1","8461"
"5","5","demographics_block","raceother","2",".",".",".","","1","8461"
"5","5","demographics_block","raceother","2",".",".",".","","1","8461"
"5","5","demographics_block","english_language","2",".",".",".","Yes","1","8461"
"5","5","demographics_block","other","2",".",".",".","","1","8461"
"5","5","demographics_block","eyesight","3",".",".",".","Yes","1","7104"
"5","5","demographics_block","colorblind","3",".",".",".","No","1","7104"
"12","12","encoding","encoding","1","H33.jpg","1",".","0","0","1000"
"12","12","encoding","encoding","2","G67.jpg","3",".","37","0","813"
"12","12","encoding","encoding","3","G35.jpg","3",".","37","0","690"
"12","12","encoding","encoding","4","G7.jpg","3",".","37","0","772"
"12","12","encoding","encoding","5","G45.jpg","3",".","37","0","660"
"12","12","encoding","encoding","6","H72.jpg","1",".","37","0","835"
"12","12","encoding","encoding","7","G24.jpg","3",".","37","0","885"
"12","12","encoding","encoding","8","G60.jpg","3",".","0","0","1000"
"12","12","encoding","encoding","9","G9.jpg","3",".","37","0","704"
"12","12","encoding","encoding","10","H17.jpg","1",".","37","0","695"
"12","12","encoding","encoding","11","G74.jpg","3",".","37","0","548"
"12","12","encoding","encoding","12","G3.jpg","3",".","37","0","676"
"12","12","encoding","encoding","13","H32.jpg","1",".","37","0","694"
"12","12","encoding","encoding","14","G5.jpg","3",".","37","0","608"
"12","12","encoding","encoding","15","G72.jpg","3",".","37","0","524"
"12","12","encoding","encoding","16","H61.jpg","1",".","37","0","475"
"12","12","encoding","encoding","17","H49.jpg","1",".","36","0","712"
"12","12","encoding","encoding","18","G69.jpg","3",".","37","0","738"
"12","12","encoding","encoding","19","G16.jpg","3",".","37","0","692"
"12","12","encoding","encoding","20","H42.jpg","1",".","37","0","559"
"12","12","encoding","encoding","21","G46.jpg","3",".","37","0","656"
"12","12","encoding","encoding","22","G64.jpg","3",".","37","0","549"
"12","12","encoding","encoding","23","G70.jpg","3",".","37","0","583"
"12","12","encoding","encoding","24","G14.jpg","3",".","37","0","601"
"12","12","encoding","encoding","25","G9.jpg","3",".","37","0","901"
"12","12","encoding","encoding","26","G43.jpg","3",".","37","0","502"
"12","12","encoding","encoding","27","H67.jpg","1",".","37","0","637"
"12","12","encoding","encoding","28","G64.jpg","3",".","37","0","480"
"12","12","encoding","encoding","29","H68.jpg","1",".","37","0","577"
"12","12","encoding","encoding","30","H38.jpg","1",".","37","0","489"
"12","12","encoding","encoding","31","H27.jpg","1",".","37","0","448"
"12","12","encoding","encoding","32","G35.jpg","3",".","37","0","427"
"12","12","encoding","encoding","33","G75.jpg","3",".","36","0","598"
"12","12","encoding","encoding","34","G77.jpg","3",".","37","0","521"
"12","12","encoding","encoding","35","H30.jpg","1",".","37","0","602"
"12","12","encoding","encoding","36","G73.jpg","3",".","36","0","695"
"12","12","encoding","encoding","37","G68.jpg","3",".","37","0","645"
"12","12","encoding","encoding","38","G1.jpg","3",".","37","0","537"
"12","12","encoding","encoding","39","G65.jpg","3",".","37","0","460"
"12","12","encoding","encoding","40","G43.jpg","3",".","37","0","441"
"12","12","encoding","encoding","41","H13.jpg","1",".","37","0","414"
"12","12","encoding","encoding","42","H55.jpg","1",".","36","0","654"
"12","12","encoding","encoding","43","G36.jpg","3",".","37","0","524"
"12","12","encoding","encoding","44","H71.jpg","1",".","37","0","682"
"12","12","encoding","encoding","45","H15.jpg","1",".","37","0","504"
"12","12","encoding","encoding","46","G31.jpg","3",".","37","0","534"
"12","12","encoding","encoding","47","G15.jpg","3",".","36","0","592"
"12","12","encoding","encoding","48","G28.jpg","3",".","37","0","509"
"12","12","encoding","encoding","49","H14.jpg","1",".","37","0","644"
"12","12","encoding","encoding","50","G55.jpg","3",".","37","0","475"
"12","12","encoding","encoding","51","G25.jpg","3",".","37","0","530"
"12","12","encoding","encoding","52","G26.jpg","3",".","37","0","498"
"12","12","encoding","encoding","53","H39.jpg","1",".","37","0","483"
"12","12","encoding","encoding","54","G42.jpg","3",".","36","0","656"
"12","12","encoding","encoding","55","G60.jpg","3",".","36","0","759"
"12","12","encoding","encoding","56","G39.jpg","3",".","37","0","804"
"12","12","encoding","encoding","57","H21.jpg","1",".","37","0","568"
"12","12","encoding","encoding","58","H6.jpg","1",".","36","0","781"
"12","12","encoding","encoding","59","H5.jpg","1",".","37","0","622"
"12","12","encoding","encoding","60","H41.jpg","1",".","37","0","499"
"12","12","encoding","encoding","61","G51.jpg","3",".","37","0","562"
"12","12","encoding","encoding","62","G26.jpg","3",".","37","0","497"
"12","12","encoding","encoding","63","G64.jpg","3",".","37","0","509"
"12","12","encoding","encoding","64","G49.jpg","3",".","36","0","865"
"12","12","encoding","encoding","65","G2.jpg","3",".","37","0","672"
"12","12","encoding","encoding","67","G13.jpg","3",".","37","0","511"
"12","12","encoding","encoding","68","G19.jpg","3",".","37","0","473"
"12","12","encoding","encoding","69","G71.jpg","3",".","37","0","430"
"12","12","encoding","encoding","70","G40.jpg","3",".","37","0","393"
"12","12","encoding","encoding","71","G21.jpg","3",".","37","0","501"
"12","12","encoding","encoding","72","H44.jpg","1",".","37","0","426"
"12","12","encoding","encoding","73","H53.jpg","1",".","37","0","440"
"12","12","encoding","encoding","74","G79.jpg","3",".","37","0","405"
"12","12","encoding","encoding","75","G4.jpg","3",".","37","0","367"
"12","12","encoding","encoding","76","G43.jpg","3",".","37","0","398"
"12","12","encoding","encoding","77","G32.jpg","3",".","37","0","412"
"12","12","encoding","encoding","78","G63.jpg","3",".","36","0","726"
"12","12","encoding","encoding","79","H76.jpg","1",".","37","0","513"
"12","12","encoding","encoding","80","G33.jpg","3",".","37","0","442"
"12","12","encoding","encoding","81","G39.jpg","3",".","37","0","469"
"12","12","encoding","encoding","82","H34.jpg","1",".","37","0","427"
"12","12","encoding","encoding","83","H60.jpg","1",".","37","0","435"
"12","12","encoding","encoding","84","G15.jpg","3",".","37","0","439"
"12","12","encoding","encoding","85","G0.jpg","3",".","37","0","600"
"12","12","encoding","encoding","86","G49.jpg","3",".","36","0","705"
"12","12","encoding","encoding","87","G57.jpg","3",".","37","0","516"
"12","12","encoding","encoding","88","G23.jpg","3",".","37","0","495"
"12","12","encoding","encoding","89","H74.jpg","1",".","37","0","507"
"12","12","encoding","encoding","90","G11.jpg","3",".","36","0","763"
"12","12","encoding","encoding","91","G26.jpg","3",".","37","0","671"
"12","12","encoding","encoding","92","G58.jpg","3",".","37","0","559"
"12","12","encoding","encoding","93","G33.jpg","3",".","37","0","492"
"12","12","encoding","encoding","94","G65.jpg","3",".","37","0","426"
"12","12","encoding","encoding","95","G56.jpg","3",".","37","0","484"
"12","12","encoding","encoding","96","G7.jpg","3",".","37","0","540"
"12","12","encoding","encoding","97","G23.jpg","3",".","37","0","516"
"12","12","encoding","encoding","98","H47.jpg","1",".","37","0","493"
"12","12","encoding","encoding","99","G71.jpg","3",".","37","0","684"
"12","12","encoding","encoding","100","G17.jpg","3",".","37","0","509"
"12","12","encoding","encoding","101","G53.jpg","3",".","37","0","397"
"12","12","encoding","encoding","102","G78.jpg","3",".","37","0","788"
"12","12","encoding","encoding","103","G27.jpg","3",".","37","0","541"
"12","12","encoding","encoding","104","H43.jpg","1",".","37","0","469"
"12","12","encoding","encoding","105","G29.jpg","3",".","37","0","613"
"12","12","encoding","encoding","106","H69.jpg","1",".","37","0","695"
"12","12","encoding","encoding","107","G48.jpg","3",".","37","0","574"
"12","12","encoding","encoding","108","H23.jpg","1",".","37","0","492"
"12","12","encoding","encoding","109","G78.jpg","3",".","37","0","508"
"12","12","encoding","encoding","110","H4.jpg","1",".","0","0","1000"
"12","12","encoding","encoding","111","G52.jpg","3",".","0","0","1000"
"12","12","encoding","encoding","112","G58.jpg","3",".","37","0","79"
"12","12","encoding","encoding","113","G8.jpg","3",".","37","0","470"
"12","12","encoding","encoding","114","G52.jpg","3",".","37","0","468"
"12","12","encoding","encoding","115","G53.jpg","3",".","37","0","522"
"12","12","encoding","encoding","116","G12.jpg","3",".","37","0","409"
"12","12","encoding","encoding","117","H51.jpg","1",".","37","0","523"
"12","12","encoding","encoding","118","H12.jpg","1",".","37","0","462"
"12","12","encoding","encoding","119","G22.jpg","3",".","37","0","420"
"12","12","encoding","encoding","120","G56.jpg","3",".","37","0","480"
"12","12","encoding","encoding","121","H52.jpg","1",".","37","0","392"
"12","12","encoding","encoding","122","G25.jpg","3",".","37","0","461"
"12","12","encoding","encoding","123","G66.jpg","3",".","37","0","476"
"12","12","encoding","encoding","124","G29.jpg","3",".","37","0","475"
"12","12","encoding","encoding","125","G55.jpg","3",".","37","0","463"
"12","12","encoding","encoding","126","G31.jpg","3",".","37","0","329"
"12","12","encoding","encoding","127","H66.jpg","1",".","37","0","472"
"12","12","encoding","encoding","128","G44.jpg","3",".","37","0","764"
"12","12","encoding","encoding","129","G61.jpg","3",".","37","0","427"
"12","12","encoding","encoding","130","G12.jpg","3",".","37","0","465"
"12","12","encoding","encoding","131","G49.jpg","3",".","37","0","456"
"12","12","encoding","encoding","133","H62.jpg","1",".","37","0","431"
"12","12","encoding","encoding","134","G1.jpg","3",".","37","0","335"
"12","12","encoding","encoding","135","G10.jpg","3",".","37","0","415"
"12","12","encoding","encoding","136","G20.jpg","3",".","37","0","356"
"12","12","encoding","encoding","137","G28.jpg","3",".","37","0","406"
"12","12","encoding","encoding","138","G62.jpg","3",".","37","0","501"
"12","12","encoding","encoding","139","G20.jpg","3",".","37","0","479"
"12","12","encoding","encoding","140","G46.jpg","3",".","37","0","452"
"12","12","encoding","encoding","141","G39.jpg","3",".","37","0","381"
"12","12","encoding","encoding","142","G37.jpg","3",".","37","0","437"
"12","12","encoding","encoding","143","H26.jpg","1",".","37","0","399"
"12","12","encoding","encoding","144","G60.jpg","3",".","36","0","638"
"12","12","encoding","encoding","145","G54.jpg","3",".","37","0","504"
"12","12","encoding","encoding","146","G36.jpg","3",".","37","0","425"
"12","12","encoding","encoding","147","G32.jpg","3",".","37","0","540"
"12","12","encoding","encoding","148","G79.jpg","3",".","37","0","379"
"12","12","encoding","encoding","149","G47.jpg","3",".","37","0","420"
"12","12","encoding","encoding","150","G74.jpg","3",".","37","0","466"
"12","12","encoding","encoding","151","G35.jpg","3",".","37","0","658"
"12","12","encoding","encoding","152","G78.jpg","3",".","37","0","457"
"12","12","encoding","encoding","153","G40.jpg","3",".","37","0","390"
"12","12","encoding","encoding","154","G75.jpg","3",".","37","0","418"
"12","12","encoding","encoding","155","G45.jpg","3",".","37","0","478"
"12","12","encoding","encoding","156","G62.jpg","3",".","37","0","566"
"12","12","encoding","encoding","157","H57.jpg","1",".","37","0","493"
"12","12","encoding","encoding","158","H19.jpg","1",".","0","0","1000"
"12","12","encoding","encoding","159","G11.jpg","3",".","36","0","580"
"12","12","encoding","encoding","160","G41.jpg","3",".","37","0","574"
"12","12","encoding","encoding","161","G18.jpg","3",".","37","0","474"
"12","12","encoding","encoding","162","G19.jpg","3",".","37","0","426"
"12","12","encoding","encoding","163","H58.jpg","1",".","37","0","480"
"12","12","encoding","encoding","164","G11.jpg","3",".","37","0","687"
"12","12","encoding","encoding","165","H3.jpg","1",".","37","0","491"
"12","12","encoding","encoding","166","G34.jpg","3",".","37","0","556"
"12","12","encoding","encoding","167","G0.jpg","3",".","37","0","510"
"12","12","encoding","encoding","168","G10.jpg","3",".","37","0","505"
"12","12","encoding","encoding","169","G74.jpg","3",".","37","0","394"
"12","12","encoding","encoding","170","G47.jpg","3",".","37","0","437"
"12","12","encoding","encoding","171","G69.jpg","3",".","37","0","399"
"12","12","encoding","encoding","172","G70.jpg","3",".","37","0","433"
"12","12","encoding","encoding","173","G6.jpg","3",".","37","0","531"
"12","12","encoding","encoding","174","G73.jpg","3",".","37","0","741"
"12","12","encoding","encoding","175","H16.jpg","1",".","37","0","499"
"12","12","encoding","encoding","176","G59.jpg","3",".","37","0","503"
"12","12","encoding","encoding","177","G8.jpg","3",".","37","0","487"
"12","12","encoding","encoding","178","H10.jpg","1",".","37","0","444"
"12","12","encoding","encoding","179","G41.jpg","3",".","37","0","459"
"12","12","encoding","encoding","180","G40.jpg","3",".","37","0","439"
"12","12","encoding","encoding","181","H79.jpg","1",".","37","0","479"
"12","12","encoding","encoding","182","G24.jpg","3",".","37","0","411"
"12","12","encoding","encoding","183","H8.jpg","1",".","37","0","492"
"12","12","encoding","encoding","184","G66.jpg","3",".","37","0","587"
"12","12","encoding","encoding","185","G2.jpg","3",".","37","0","707"
"12","12","encoding","encoding","186","G38.jpg","3",".","36","0","605"
"12","12","encoding","encoding","187","G51.jpg","3",".","37","0","564"
"12","12","encoding","encoding","188","G72.jpg","3",".","37","0","528"
"12","12","encoding","encoding","189","G28.jpg","3",".","37","0","396"
"12","12","encoding","encoding","190","G77.jpg","3",".","37","0","409"
"12","12","encoding","encoding","191","G7.jpg","3",".","37","0","493"
"12","12","encoding","encoding","192","G66.jpg","3",".","37","0","397"
"12","12","encoding","encoding","193","H54.jpg","1",".","37","0","509"
"12","12","encoding","encoding","194","G72.jpg","3",".","37","0","504"
"12","12","encoding","encoding","195","G38.jpg","3",".","37","0","819"
"12","12","encoding","encoding","196","H45.jpg","1",".","37","0","784"
"12","12","encoding","encoding","197","G65.jpg","3",".","37","0","436"
"12","12","encoding","encoding","199","G9.jpg","3",".","37","0","689"
"12","12","encoding","encoding","200","G70.jpg","3",".","37","0","452"
"12","12","encoding","encoding","201","G71.jpg","3",".","37","0","556"
"12","12","encoding","encoding","202","G75.jpg","3",".","36","0","561"
"12","12","encoding","encoding","203","G50.jpg","3",".","37","0","651"
"12","12","encoding","encoding","204","H0.jpg","1",".","37","0","729"
"12","12","encoding","encoding","205","G8.jpg","3",".","37","0","674"
"12","12","encoding","encoding","206","G63.jpg","3",".","36","0","631"
"12","12","encoding","encoding","207","G5.jpg","3",".","37","0","742"
"12","12","encoding","encoding","208","G59.jpg","3",".","37","0","553"
"12","12","encoding","encoding","209","H29.jpg","1",".","37","0","407"
"12","12","encoding","encoding","210","H37.jpg","1",".","37","0","429"
"12","12","encoding","encoding","211","G31.jpg","3",".","37","0","508"
"12","12","encoding","encoding","212","H2.jpg","1",".","37","0","473"
"12","12","encoding","encoding","213","H20.jpg","1",".","37","0","553"
"12","12","encoding","encoding","214","G76.jpg","3",".","37","0","408"
"12","12","encoding","encoding","215","H77.jpg","1",".","37","0","423"
"12","12","encoding","encoding","216","G21.jpg","3",".","37","0","498"
"12","12","encoding","encoding","217","G14.jpg","3",".","37","0","304"
"12","12","encoding","encoding","218","G10.jpg","3",".","37","0","634"
"12","12","encoding","encoding","219","G50.jpg","3",".","0","0","1000"
"12","12","encoding","encoding","220","G61.jpg","3",".","37","0","314"
"12","12","encoding","encoding","221","G5.jpg","3",".","37","0","718"
"12","12","encoding","encoding","222","G1.jpg","3",".","37","0","959"
"12","12","encoding","encoding","223","G14.jpg","3",".","37","0","855"
"12","12","encoding","encoding","224","G13.jpg","3",".","37","0","527"
"12","12","encoding","encoding","225","G30.jpg","3",".","37","0","494"
"12","12","encoding","encoding","226","G41.jpg","3",".","37","0","497"
"12","12","encoding","encoding","227","G19.jpg","3",".","37","0","479"
"12","12","encoding","encoding","228","G17.jpg","3",".","37","0","526"
"12","12","encoding","encoding","229","G36.jpg","3",".","37","0","564"
"12","12","encoding","encoding","230","H35.jpg","1",".","36","0","678"
"12","12","encoding","encoding","231","G25.jpg","3",".","37","0","482"
"12","12","encoding","encoding","232","G37.jpg","3",".","37","0","526"
"12","12","encoding","encoding","233","H64.jpg","1",".","36","0","835"
"12","12","encoding","encoding","234","H11.jpg","1",".","37","0","631"
"12","12","encoding","encoding","235","G32.jpg","3",".","37","0","680"
"12","12","encoding","encoding","236","H28.jpg","1",".","36","0","566"
"12","12","encoding","encoding","237","H18.jpg","1",".","37","0","497"
"12","12","encoding","encoding","238","H59.jpg","1",".","37","0","543"
"12","12","encoding","encoding","239","G47.jpg","3",".","37","0","644"
"12","12","encoding","encoding","240","G22.jpg","3",".","37","0","832"
"12","12","encoding","encoding","241","G6.jpg","3",".","37","0","430"
"12","12","encoding","encoding","242","G27.jpg","3",".","37","0","547"
"12","12","encoding","encoding","243","G69.jpg","3",".","37","0","589"
"12","12","encoding","encoding","244","H36.jpg","1",".","37","0","423"
"12","12","encoding","encoding","245","G33.jpg","3",".","37","0","503"
"12","12","encoding","encoding","246","H56.jpg","1",".","37","0","414"
"12","12","encoding","encoding","247","G3.jpg","3",".","37","0","499"
"12","12","encoding","encoding","248","H24.jpg","1",".","37","0","470"
"12","12","encoding","encoding","249","G15.jpg","3",".","37","0","370"
"12","12","encoding","encoding","250","H50.jpg","1",".","37","0","853"
"12","12","encoding","encoding","251","G16.jpg","3",".","37","0","659"
"12","12","encoding","encoding","252","H1.jpg","1",".","0","0","1000"
"12","12","encoding","encoding","253","H73.jpg","1",".","37","0","674"
"12","12","encoding","encoding","254","G73.jpg","3",".","37","0","700"
"12","12","encoding","encoding","255","G46.jpg","3",".","37","0","631"
"12","12","encoding","encoding","256","G76.jpg","3",".","37","0","536"
"12","12","encoding","encoding","257","G12.jpg","3",".","37","0","422"
"12","12","encoding","encoding","258","G67.jpg","3",".","37","0","550"
"12","12","encoding","encoding","259","G23.jpg","3",".","37","0","804"
"12","12","encoding","encoding","260","G62.jpg","3",".","37","0","950"
"12","12","encoding","encoding","261","G45.jpg","3",".","37","0","609"
"12","12","encoding","encoding","262","G42.jpg","3",".","36","0","589"
"12","12","encoding","encoding","263","G16.jpg","3",".","37","0","548"
"12","12","encoding","encoding","265","H78.jpg","1",".","37","0","551"
"12","12","encoding","encoding","266","G79.jpg","3",".","37","0","426"
"12","12","encoding","encoding","267","H70.jpg","1",".","37","0","614"
"12","12","encoding","encoding","268","H31.jpg","1",".","37","0","850"
"12","12","encoding","encoding","269","G63.jpg","3",".","36","0","553"
"12","12","encoding","encoding","270","G44.jpg","3",".","37","0","734"
"12","12","encoding","encoding","271","H7.jpg","1",".","36","0","544"
"12","12","encoding","encoding","272","G55.jpg","3",".","37","0","526"
"12","12","encoding","encoding","273","G51.jpg","3",".","37","0","538"
"12","12","encoding","encoding","274","G4.jpg","3",".","37","0","409"
"12","12","encoding","encoding","275","G3.jpg","3",".","37","0","472"
"12","12","encoding","encoding","276","G37.jpg","3",".","37","0","397"
"12","12","encoding","encoding","277","G57.jpg","3",".","37","0","578"
"12","12","encoding","encoding","278","G18.jpg","3",".","37","0","533"
"12","12","encoding","encoding","279","H9.jpg","1",".","37","0","648"
"12","12","encoding","encoding","280","G22.jpg","3",".","37","0","568"
"12","12","encoding","encoding","281","G48.jpg","3",".","37","0","544"
"12","12","encoding","encoding","282","G17.jpg","3",".","37","0","616"
"12","12","encoding","encoding","283","G6.jpg","3",".","37","0","386"
"12","12","encoding","encoding","284","H25.jpg","1",".","37","0","524"
"12","12","encoding","encoding","285","G68.jpg","3",".","37","0","388"
"12","12","encoding","encoding","286","G27.jpg","3",".","37","0","382"
"12","12","encoding","encoding","287","G24.jpg","3",".","37","0","493"
"12","12","encoding","encoding","288","G2.jpg","3",".","37","0","407"
"12","12","encoding","encoding","289","G50.jpg","3",".","37","0","376"
"12","12","encoding","encoding","290","G30.jpg","3",".","37","0","397"
"12","12","encoding","encoding","291","G34.jpg","3",".","37","0","434"
"12","12","encoding","encoding","292","G59.jpg","3",".","37","0","438"
"12","12","encoding","encoding","293","G52.jpg","3",".","37","0","499"
"12","12","encoding","encoding","294","H40.jpg","1",".","37","0","459"
"12","12","encoding","encoding","295","G58.jpg","3",".","37","0","454"
"12","12","encoding","encoding","296","G54.jpg","3",".","37","0","512"
"12","12","encoding","encoding","297","G54.jpg","3",".","37","0","375"
"12","12","encoding","encoding","298","G56.jpg","3",".","37","0","441"
"12","12","encoding","encoding","299","H63.jpg","1",".","37","0","531"
"12","12","encoding","encoding","300","G61.jpg","3",".","37","0","537"
"12","12","encoding","encoding","301","H46.jpg","1",".","37","0","530"
"12","12","encoding","encoding","302","G13.jpg","3",".","37","0","442"
"12","12","encoding","encoding","303","G57.jpg","3",".","37","0","399"
"12","12","encoding","encoding","304","G30.jpg","3",".","37","0","553"
"12","12","encoding","encoding","305","G21.jpg","3",".","37","0","420"
"12","12","encoding","encoding","306","G20.jpg","3",".","37","0","392"
"12","12","encoding","encoding","307","G48.jpg","3",".","37","0","362"
"12","12","encoding","encoding","308","G53.jpg","3",".","37","0","420"
"12","12","encoding","encoding","309","G4.jpg","3",".","37","0","420"
"12","12","encoding","encoding","310","H22.jpg","1",".","37","0","461"
"12","12","encoding","encoding","311","G77.jpg","3",".","37","0","417"
"12","12","encoding","encoding","312","H75.jpg","1",".","37","0","348"
"12","12","encoding","encoding","313","G67.jpg","3",".","37","0","338"
"12","12","encoding","encoding","314","H48.jpg","1",".","37","0","544"
"12","12","encoding","encoding","315","G18.jpg","3",".","37","0","384"
"12","12","encoding","encoding","316","G34.jpg","3",".","37","0","340"
"12","12","encoding","encoding","317","G42.jpg","3",".","37","0","405"
"12","12","encoding","encoding","318","H65.jpg","1",".","37","0","497"
"12","12","encoding","encoding","319","G68.jpg","3",".","37","0","634"
"12","12","encoding","encoding","320","G38.jpg","3",".","37","0","499"
"12","12","encoding","encoding","321","G76.jpg","3",".","37","0","543"
"12","12","encoding","encoding","322","G29.jpg","3",".","37","0","463"
"12","12","encoding","encoding","323","G0.jpg","3",".","37","0","388"
"12","12","encoding","encoding","324","G44.jpg","3",".","37","0","442"
"12","12","encoding","encoding","325","H33.jpg","",".","37","0","453"
"12","12","retrieval","old_object","1","H6.jpg",".","1","36","1","924"
"12","12","retrieval","new_object","2","E51.jpg",".",".","36","0","940"
"12","12","retrieval","old_object","3","G2.jpg",".","3","36","1","793"
"12","12","retrieval","old_object","4","G37.jpg",".","3","36","1","897"
"12","12","retrieval","old_object","5","G6.jpg",".","3","36","1","646"
"12","12","retrieval","new_object","6","E79.jpg",".",".","37","1","700"
"12","12","retrieval","old_object","7","H23.jpg",".","1","36","1","762"
"12","12","retrieval","old_object","8","H46.jpg",".","1","36","1","666"
"12","12","retrieval","new_object","9","E49.jpg",".",".","37","1","741"
"12","12","retrieval","new_object","10","E38.jpg",".",".","37","1","879"
"12","12","retrieval","old_object","11","G38.jpg",".","3","36","1","746"
"12","12","retrieval","old_object","12","H67.jpg",".","1","36","1","1121"
"12","12","retrieval","old_object","13","G62.jpg",".","3","36","1","848"
"12","12","retrieval","old_object","14","G66.jpg",".","3","36","1","724"
"12","12","retrieval","old_object","15","G3.jpg",".","3","36","1","827"
"12","12","retrieval","old_object","16","G26.jpg",".","3","36","1","693"
"12","12","retrieval","new_object","17","E11.jpg",".",".","37","1","844"
"12","12","retrieval","new_object","18","E72.jpg",".",".","37","1","788"
"12","12","retrieval","new_object","19","F53.jpg",".",".","36","0","899"
"12","12","retrieval","new_object","20","E20.jpg",".",".","37","1","841"
"12","12","retrieval","new_object","21","F17.jpg",".",".","37","1","878"
"12","12","retrieval","new_object","22","F45.jpg",".",".","37","1","596"
"12","12","retrieval","new_object","23","E41.jpg",".",".","37","1","1050"
"12","12","retrieval","old_object","24","H47.jpg",".","1","37","0","563"
"12","12","retrieval","old_object","25","H50.jpg",".","1","37","0","687"
"12","12","retrieval","old_object","26","G13.jpg",".","3","36","1","678"
"12","12","retrieval","new_object","27","E45.jpg",".",".","37","1","752"
"12","12","retrieval","old_object","28","H28.jpg",".","1","36","1","964"
"12","12","retrieval","old_object","29","H34.jpg",".","1","36","1","814"
"12","12","retrieval","new_object","30","F30.jpg",".",".","37","1","933"
"12","12","retrieval","new_object","31","F37.jpg",".",".","36","0","826"
"12","12","retrieval","old_object","32","G17.jpg",".","3","36","1","917"
"12","12","retrieval","old_object","33","H53.jpg",".","1","36","1","934"
"12","12","retrieval","old_object","34","G63.jpg",".","3","36","1","881"
"12","12","retrieval","new_object","35","F62.jpg",".",".","37","1","1114"
"12","12","retrieval","old_object","36","H54.jpg",".","1","36","1","1006"
"12","12","retrieval","old_object","37","G76.jpg",".","3","36","1","779"
"12","12","retrieval","new_object","38","F54.jpg",".",".","37","1","754"
"12","12","retrieval","new_object","39","F15.jpg",".",".","37","1","807"
"12","12","retrieval","old_object","40","H38.jpg",".","1","37","0","981"
"12","12","retrieval","new_object","41","F63.jpg",".",".","36","0","1150"
"12","12","retrieval","old_object","42","G34.jpg",".","3","36","1","859"
"12","12","retrieval","old_object","43","H21.jpg",".","1","37","0","986"
"12","12","retrieval","new_object","44","F79.jpg",".",".","37","1","867"
"12","12","retrieval","new_object","45","E54.jpg",".",".","37","1","951"
"12","12","retrieval","new_object","46","E34.jpg",".",".","37","1","1040"
"12","12","retrieval","old_object","47","G72.jpg",".","3","37","0","997"
"12","12","retrieval","new_object","48","F51.jpg",".",".","37","1","1380"
"12","12","retrieval","new_object","49","F64.jpg",".",".","37","1","1025"
"12","12","retrieval","old_object","50","H69.jpg",".","1","37","0","1331"
"12","12","retrieval","new_object","51","F65.jpg",".",".","37","1","1331"
"12","12","retrieval","new_object","52","E3.jpg",".",".","37","1","1131"
"12","12","retrieval","old_object","53","H48.jpg",".","1","37","0","674"
"12","12","retrieval","old_object","54","H20.jpg",".","1","37","0","422"
"12","12","retrieval","old_object","55","G24.jpg",".","3","37","0","533"
"12","12","retrieval","new_object","56","F71.jpg",".",".","37","1","951"
"12","12","retrieval","old_object","57","H60.jpg",".","1","37","0","655"
"12","12","retrieval","old_object","58","H33.jpg",".","1","37","0","987"
"12","12","retrieval","new_object","59","E73.jpg",".",".","37","1","773"
"12","12","retrieval","new_object","60","E17.jpg",".",".","37","1","810"
"12","12","retrieval","new_object","61","E12.jpg",".",".","37","1","840"
"12","12","retrieval","old_object","62","G43.jpg",".","3","37","0","736"
"12","12","retrieval","old_object","63","G28.jpg",".","3","36","1","782"
"12","12","retrieval","old_object","64","H58.jpg",".","1","36","1","846"
"12","12","retrieval","new_object","65","F2.jpg",".",".","37","1","821"
"12","12","retrieval","new_object","67","E58.jpg",".",".","37","1","657"
"12","12","retrieval","old_object","68","G65.jpg",".","3","37","0","818"
"12","12","retrieval","new_object","69","E53.jpg",".",".","37","1","839"
"12","12","retrieval","new_object","70","F7.jpg",".",".","37","1","827"
"12","12","retrieval","new_object","71","E47.jpg",".",".","37","1","668"
"12","12","retrieval","old_object","72","G68.jpg",".","3","36","1","802"
"12","12","retrieval","new_object","73","E19.jpg",".",".","37","1","820"
"12","12","retrieval","new_object","74","F16.jpg",".",".","36","0","1036"
"12","12","retrieval","new_object","75","E35.jpg",".",".","37","1","728"
"12","12","retrieval","new_object","76","F20.jpg",".",".","37","1","1093"
"12","12","retrieval","new_object","77","F39.jpg",".",".","37","1","584"
"12","12","retrieval","new_object","78","F18.jpg",".",".","37","1","803"
"12","12","retrieval","new_object","79","E9.jpg",".",".","37","1","1030"
"12","12","retrieval","new_object","80","F47.jpg",".",".","37","1","606"
"12","12","retrieval","new_object","81","E46.jpg",".",".","37","1","623"
"12","12","retrieval","new_object","82","E39.jpg",".",".","37","1","753"
"12","12","retrieval","old_object","83","H76.jpg",".","1","37","0","516"
"12","12","retrieval","old_object","84","G74.jpg",".","3","36","1","792"
"12","12","retrieval","old_object","85","H37.jpg",".","1","37","0","1303"
"12","12","retrieval","old_object","86","H78.jpg",".","1","37","0","908"
"12","12","retrieval","old_object","87","G64.jpg",".","3","37","0","729"
"12","12","retrieval","new_object","88","E22.jpg",".",".","37","1","741"
"12","12","retrieval","new_object","89","E70.jpg",".",".","37","1","659"
"12","12","retrieval","new_object","90","E33.jpg",".",".","37","1","695"
"12","12","retrieval","new_object","91","E31.jpg",".",".","37","1","711"
"12","12","retrieval","new_object","92","E68.jpg",".",".","37","1","649"
"12","12","retrieval","new_object","93","F4.jpg",".",".","37","1","617"
"12","12","retrieval","new_object","94","F36.jpg",".",".","37","1","608"
"12","12","retrieval","old_object","95","H17.jpg",".","1","37","0","574"
"12","12","retrieval","new_object","96","E65.jpg",".",".","37","1","861"
"12","12","retrieval","old_object","97","H7.jpg",".","1","36","1","841"
"12","12","retrieval","old_object","98","G10.jpg",".","3","36","1","1041"
"12","12","retrieval","new_object","99","F67.jpg",".",".","37","1","761"
"12","12","retrieval","old_object","100","H61.jpg",".","1","36","1","1249"
"12","12","retrieval","new_object","101","F32.jpg",".",".","37","1","712"
"12","12","retrieval","new_object","102","F42.jpg",".",".","37","1","1021"
"12","12","retrieval","new_object","103","F77.jpg",".",".","37","1","724"
"12","12","retrieval","old_object","104","G55.jpg",".","3","36","1","917"
"12","12","retrieval","old_object","105","H45.jpg",".","1","36","1","747"
"12","12","retrieval","new_object","106","F76.jpg",".",".","37","1","814"
"12","12","retrieval","new_object","107","F23.jpg",".",".","37","1","841"
"12","12","retrieval","old_object","108","G18.jpg",".","3","36","1","791"
"12","12","retrieval","old_object","109","H73.jpg",".","1","37","0","904"
"12","12","retrieval","old_object","110","H51.jpg",".","1","36","1","741"
"12","12","retrieval","old_object","111","G21.jpg",".","3","36","1","907"
"12","12","retrieval","old_object","112","H62.jpg",".","1","36","1","917"
"12","12","retrieval","old_object","113","G48.jpg",".","3","36","1","1469"
"12","12","retrieval","new_object","114","E10.jpg",".",".","37","1","853"
"12","12","retrieval","old_object","115","G78.jpg",".","3","36","1","773"
"12","12","retrieval","new_object","116","F9.jpg",".",".","37","1","1027"
"12","12","retrieval","new_object","117","F35.jpg",".",".","37","1","838"
"12","12","retrieval","old_object","118","H42.jpg",".","1","36","1","959"
"12","12","retrieval","new_object","119","E62.jpg",".",".","36","0","805"
"12","12","retrieval","old_object","120","H27.jpg",".","1","37","0","1133"
"12","12","retrieval","new_object","121","E1.jpg",".",".","37","1","672"
"12","12","retrieval","old_object","122","G23.jpg",".","3","36","1","881"
"12","12","retrieval","new_object","123","F50.jpg",".",".","37","1","699"
"12","12","retrieval","old_object","124","G46.jpg",".","3","36","1","1233"
"12","12","retrieval","new_object","125","F25.jpg",".",".","37","1","1382"
"12","12","retrieval","old_object","126","H32.jpg",".","1","36","1","910"
"12","12","retrieval","new_object","127","E6.jpg",".",".","36","0","1076"
"12","12","retrieval","new_object","128","E61.jpg",".",".","37","1","735"
"12","12","retrieval","old_object","129","G15.jpg",".","3","37","0","834"
"12","12","retrieval","old_object","130","H77.jpg",".","1","37","0","1269"
"12","12","retrieval","old_object","131","H75.jpg",".","1","36","1","1049"
"12","12","retrieval","old_object","133","H10.jpg",".","1","36","1","1053"
"12","12","retrieval","old_object","134","H44.jpg",".","1","36","1","833"
"12","12","retrieval","new_object","135","F55.jpg",".",".","36","0","767"
"12","12","retrieval","old_object","136","H3.jpg",".","1","37","0","891"
"12","12","retrieval","old_object","137","H79.jpg",".","1","36","1","944"
"12","12","retrieval","old_object","138","H25.jpg",".","1","36","1","968"
"12","12","retrieval","new_object","139","E13.jpg",".",".","37","1","1284"
"12","12","retrieval","new_object","140","F72.jpg",".",".","37","1","1338"
"12","12","retrieval","new_object","141","F66.jpg",".",".","37","1","967"
"12","12","retrieval","old_object","142","G7.jpg",".","3","36","1","817"
"12","12","retrieval","new_object","143","E60.jpg",".",".","37","1","838"
"12","12","retrieval","old_object","144","H24.jpg",".","1","37","0","1054"
"12","12","retrieval","old_object","145","G29.jpg",".","3","37","0","883"
"12","12","retrieval","old_object","146","H14.jpg",".","1","37","0","626"
"12","12","retrieval","old_object","147","H4.jpg",".","1","37","0","1050"
"12","12","retrieval","new_object","148","E30.jpg",".",".","37","1","718"
"12","12","retrieval","new_object","149","E67.jpg",".",".","37","1","598"
"12","12","retrieval","old_object","150","H40.jpg",".","1","36","1","759"
"12","12","retrieval","old_object","151","H11.jpg",".","1","37","0","1133"
"12","12","retrieval","old_object","152","G25.jpg",".","3","36","1","859"
"12","12","retrieval","old_object","153","H71.jpg",".","1","36","1","1017"
"12","12","retrieval","new_object","154","E43.jpg",".",".","37","1","807"
"12","12","retrieval","new_object","155","E28.jpg",".",".","37","1","1014"
"12","12","retrieval","old_object","156","H52.jpg",".","1","37","0","1219"
"12","12","retrieval","new_object","157","E15.jpg",".",".","37","1","1088"
"12","12","retrieval","new_object","158","F29.jpg",".",".","37","1","825"
"12","12","retrieval","new_object","159","F52.jpg",".",".","37","1","789"
"12","12","retrieval","old_object","160","G12.jpg",".","3","36","1","746"
"12","12","retrieval","old_object","161","G54.jpg",".","3","36","1","879"
"12","12","retrieval","old_object","162","G20.jpg",".","3","36","1","850"
"12","12","retrieval","new_object","163","E21.jpg",".",".","37","1","628"
"12","12","retrieval","new_object","164","F48.jpg",".",".","37","1","852"
"12","12","retrieval","old_object","165","G30.jpg",".","3","37","0","1055"
"12","12","retrieval","new_object","166","F43.jpg",".",".","37","1","1337"
"12","12","retrieval","new_object","167","E50.jpg",".",".","37","1","1479"
"12","12","retrieval","old_object","168","G0.jpg",".","3","37","0","721"
"12","12","retrieval","new_object","169","E36.jpg",".",".","37","1","971"
"12","12","retrieval","old_object","170","H72.jpg",".","1","36","1","1284"
"12","12","retrieval","new_object","171","E24.jpg",".",".","37","1","856"
"12","12","retrieval","new_object","172","F58.jpg",".",".","37","1","804"
"12","12","retrieval","new_object","173","E57.jpg",".",".","36","0","1223"
"12","12","retrieval","new_object","174","F74.jpg",".",".","37","1","1054"
"12","12","retrieval","new_object","175","F19.jpg",".",".","37","1","914"
"12","12","retrieval","new_object","176","F12.jpg",".",".","37","1","539"
"12","12","retrieval","new_object","177","E40.jpg",".",".","37","1","779"
"12","12","retrieval","new_object","178","F24.jpg",".",".","37","1","770"
"12","12","retrieval","new_object","179","F21.jpg",".",".","37","1","660"
"12","12","retrieval","new_object","180","F68.jpg",".",".","37","1","693"
"12","12","retrieval","old_object","181","G60.jpg",".","3","36","1","832"
"12","12","retrieval","new_object","182","F10.jpg",".",".","37","1","1400"
"12","12","retrieval","new_object","183","F31.jpg",".",".","37","1","749"
"12","12","retrieval","old_object","184","G5.jpg",".","3","36","1","870"
"12","12","retrieval","new_object","185","F70.jpg",".",".","37","1","1054"
"12","12","retrieval","new_object","186","E8.jpg",".",".","37","1","808"
"12","12","retrieval","old_object","187","H63.jpg",".","1","36","1","836"
"12","12","retrieval","old_object","188","H22.jpg",".","1","36","1","1322"
"12","12","retrieval","old_object","189","G79.jpg",".","3","36","1","1488"
"12","12","retrieval","new_object","190","E27.jpg",".",".","37","1","1640"
"12","12","retrieval","old_object","191","G51.jpg",".","3","37","0","1162"
"12","12","retrieval","old_object","192","H49.jpg",".","1","36","1","1387"
"12","12","retrieval","old_object","193","H65.jpg",".","1","37","0","1067"
"12","12","retrieval","old_object","194","G35.jpg",".","3","37","0","651"
"12","12","retrieval","old_object","195","H36.jpg",".","1","37","0","1743"
"12","12","retrieval","new_object","196","E77.jpg",".",".","37","1","854"
"12","12","retrieval","new_object","197","E2.jpg",".",".","37","1","1529"
"12","12","retrieval","new_object","199","E55.jpg",".",".","37","1","926"
"12","12","retrieval","new_object","200","F38.jpg",".",".","37","1","877"
"12","12","retrieval","old_object","201","G16.jpg",".","3","36","1","774"
"12","12","retrieval","new_object","202","F44.jpg",".",".","37","1","831"
"12","12","retrieval","old_object","203","H56.jpg",".","1","36","1","927"
"12","12","retrieval","old_object","204","H59.jpg",".","1","37","0","685"
"12","12","retrieval","old_object","205","H5.jpg",".","1","37","0","902"
"12","12","retrieval","new_object","206","E4.jpg",".",".","37","1","807"
"12","12","retrieval","new_object","207","E37.jpg",".",".","37","1","1222"
"12","12","retrieval","old_object","208","H35.jpg",".","1","36","1","1246"
"12","12","retrieval","new_object","209","E7.jpg",".",".","37","1","818"
"12","12","retrieval","old_object","210","G67.jpg",".","3","36","1","756"
"12","12","retrieval","new_object","211","F3.jpg",".",".","37","1","1012"
"12","12","retrieval","old_object","212","G75.jpg",".","3","36","1","835"
"12","12","retrieval","old_object","213","H0.jpg",".","1","37","0","918"
"12","12","retrieval","new_object","214","E76.jpg",".",".","37","1","687"
"12","12","retrieval","old_object","215","G47.jpg",".","3","36","1","822"
"12","12","retrieval","new_object","216","E78.jpg",".",".","37","1","667"
"12","12","retrieval","new_object","217","E26.jpg",".",".","37","1","911"
"12","12","retrieval","old_object","218","G36.jpg",".","3","36","1","1028"
"12","12","retrieval","old_object","219","G50.jpg",".","3","36","1","897"
"12","12","retrieval","old_object","220","G45.jpg",".","3","36","1","741"
"12","12","retrieval","old_object","221","G33.jpg",".","3","37","0","885"
"12","12","retrieval","old_object","222","G77.jpg",".","3","36","1","906"
"12","12","retrieval","old_object","223","G4.jpg",".","3","36","1","806"
"12","12","retrieval","old_object","224","H74.jpg",".","1","37","0","833"
"12","12","retrieval","old_object","225","H41.jpg",".","1","37","0","1178"
"12","12","retrieval","new_object","226","F61.jpg",".",".","37","1","1000"
"12","12","retrieval","old_object","227","G53.jpg",".","3","37","0","691"
"12","12","retrieval","new_object","228","F69.jpg",".",".","37","1","886"
"12","12","retrieval","old_object","229","G73.jpg",".","3","36","1","844"
"12","12","retrieval","old_object","230","H8.jpg",".","1","37","0","670"
"12","12","retrieval","old_object","231","H16.jpg",".","1","37","0","986"
"12","12","retrieval","old_object","232","G31.jpg",".","3","37","0","1201"
"12","12","retrieval","old_object","233","G44.jpg",".","3","36","1","675"
"12","12","retrieval","old_object","234","G41.jpg",".","3","37","0","793"
"12","12","retrieval","new_object","235","F57.jpg",".",".","37","1","647"
"12","12","retrieval","new_object","236","E52.jpg",".",".","37","1","1030"
"12","12","retrieval","old_object","237","G27.jpg",".","3","36","1","949"
"12","12","retrieval","new_object","238","E66.jpg",".",".","37","1","1070"
"12","12","retrieval","old_object","239","G56.jpg",".","3","37","0","1233"
"12","12","retrieval","new_object","240","F49.jpg",".",".","37","1","746"
"12","12","retrieval","new_object","241","F6.jpg",".",".","37","1","857"
"12","12","retrieval","new_object","242","F26.jpg",".",".","37","1","742"
"12","12","retrieval","new_object","243","F33.jpg",".",".","37","1","605"
"12","12","retrieval","old_object","244","H1.jpg",".","1","36","1","840"
"12","12","retrieval","old_object","245","H9.jpg",".","1","37","0","691"
"12","12","retrieval","new_object","246","F28.jpg",".",".","37","1","705"
"12","12","retrieval","new_object","247","F1.jpg",".",".","37","1","655"
"12","12","retrieval","old_object","248","G57.jpg",".","3","36","1","678"
"12","12","retrieval","new_object","249","E18.jpg",".",".","37","1","544"
"12","12","retrieval","old_object","250","H39.jpg",".","1","36","1","667"
"12","12","retrieval","new_object","251","F73.jpg",".",".","37","1","825"
"12","12","retrieval","new_object","252","F75.jpg",".",".","37","1","679"
"12","12","retrieval","new_object","253","E14.jpg",".",".","37","1","727"
"12","12","retrieval","old_object","254","H30.jpg",".","1","37","0","632"
"12","12","retrieval","old_object","255","H2.jpg",".","1","37","0","693"
"12","12","retrieval","new_object","256","E75.jpg",".",".","37","1","878"
"12","12","retrieval","old_object","257","G14.jpg",".","3","36","1","811"
"12","12","retrieval","new_object","258","E59.jpg",".",".","37","1","699"
"12","12","retrieval","old_object","259","H19.jpg",".","1","37","0","786"
"12","12","retrieval","old_object","260","G58.jpg",".","3","36","1","821"
"12","12","retrieval","old_object","261","H26.jpg",".","1","37","0","774"
"12","12","retrieval","old_object","262","G39.jpg",".","3","37","0","532"
"12","12","retrieval","old_object","263","G19.jpg",".","3","36","1","733"
"12","12","retrieval","new_object","265","F78.jpg",".",".","37","1","1452"
"12","12","retrieval","new_object","266","F11.jpg",".",".","37","1","680"
"12","12","retrieval","old_object","267","G1.jpg",".","3","36","1","740"
"12","12","retrieval","new_object","268","E64.jpg",".",".","37","1","982"
"12","12","retrieval","new_object","269","E48.jpg",".",".","37","1","868"
"12","12","retrieval","new_object","270","F0.jpg",".",".","37","1","895"
"12","12","retrieval","new_object","271","F5.jpg",".",".","37","1","685"
"12","12","retrieval","old_object","272","G22.jpg",".","3","36","1","869"
"12","12","retrieval","old_object","273","H18.jpg",".","1","36","1","783"
"12","12","retrieval","old_object","274","H57.jpg",".","1","36","1","859"
"12","12","retrieval","old_object","275","H55.jpg",".","1","36","1","818"
"12","12","retrieval","old_object","276","G8.jpg",".","3","37","0","669"
"12","12","retrieval","new_object","277","F60.jpg",".",".","37","1","833"
"12","12","retrieval","new_object","278","F13.jpg",".",".","37","1","970"
"12","12","retrieval","new_object","279","F56.jpg",".",".","37","1","763"
"12","12","retrieval","new_object","280","F41.jpg",".",".","37","1","782"
"12","12","retrieval","old_object","281","G71.jpg",".","3","37","0","697"
"12","12","retrieval","old_object","282","G59.jpg",".","3","37","0","731"
"12","12","retrieval","new_object","283","E44.jpg",".",".","37","1","840"
"12","12","retrieval","new_object","284","E32.jpg",".",".","37","1","675"
"12","12","retrieval","old_object","285","H66.jpg",".","1","37","0","535"
"12","12","retrieval","new_object","286","F8.jpg",".",".","37","1","666"
"12","12","retrieval","new_object","287","E23.jpg",".",".","37","1","724"
"12","12","retrieval","old_object","288","H43.jpg",".","1","37","0","725"
"12","12","retrieval","old_object","289","H70.jpg",".","1","37","0","985"
"12","12","retrieval","old_object","290","G70.jpg",".","3","36","1","903"
"12","12","retrieval","new_object","291","F59.jpg",".",".","37","1","807"
"12","12","retrieval","new_object","292","F46.jpg",".",".","37","1","984"
"12","12","retrieval","old_object","293","H64.jpg",".","1","37","0","1369"
"12","12","retrieval","old_object","294","G69.jpg",".","3","36","1","742"
"12","12","retrieval","old_object","295","G61.jpg",".","3","36","1","1662"
"12","12","retrieval","new_object","296","E74.jpg",".",".","37","1","876"
"12","12","retrieval","old_object","297","H12.jpg",".","1","36","1","915"
"12","12","retrieval","new_object","298","E16.jpg",".",".","37","1","1290"
"12","12","retrieval","old_object","299","G11.jpg",".","3","36","1","868"
"12","12","retrieval","old_object","300","G42.jpg",".","3","36","1","850"
"12","12","retrieval","old_object","301","G49.jpg",".","3","36","1","742"
"12","12","retrieval","old_object","302","H13.jpg",".","1","36","1","897"
"12","12","retrieval","new_object","303","E42.jpg",".",".","36","0","1015"
"12","12","retrieval","old_object","304","G32.jpg",".","3","37","0","1807"
"12","12","retrieval","old_object","305","G52.jpg",".","3","36","1","1359"
"12","12","retrieval","old_object","306","G40.jpg",".","3","37","0","1264"
"12","12","retrieval","new_object","307","F14.jpg",".",".","37","1","1251"
"12","12","retrieval","new_object","308","F34.jpg",".",".","37","1","1643"
"12","12","retrieval","new_object","309","E5.jpg",".",".","37","1","643"
"12","12","retrieval","new_object","310","F22.jpg",".",".","37","1","814"
"12","12","retrieval","new_object","311","E63.jpg",".",".","37","1","770"
"12","12","retrieval","old_object","312","H29.jpg",".","1","37","0","695"
"12","12","retrieval","new_object","313","F27.jpg",".",".","37","1","690"
"12","12","retrieval","old_object","314","G9.jpg",".","3","36","1","912"
"12","12","retrieval","old_object","315","H68.jpg",".","1","36","1","726"
"12","12","retrieval","old_object","316","H31.jpg",".","1","37","0","1012"
"12","12","retrieval","new_object","317","E71.jpg",".",".","36","0","1636"
"12","12","retrieval","new_object","318","E0.jpg",".",".","37","1","1496"
"12","12","retrieval","new_object","319","E69.jpg",".",".","37","1","647"
"12","12","retrieval","new_object","320","E25.jpg",".",".","37","1","871"
"12","12","retrieval","new_object","321","F40.jpg",".",".","36","0","1987"
"12","12","retrieval","new_object","322","E56.jpg",".",".","37","1","548"
"12","12","retrieval","new_object","323","E29.jpg",".",".","37","1","1227"
"12","12","retrieval","new_object","324","E24.jpg",".",".","36","0","829"
"12","12","retrieval","old_object","325","H15.jpg",".","1","36","1","710"
"12","12","demographics_block","gender","1",".",".",".","Female","1","21493"
"12","12","demographics_block","age","1",".",".",".","55","1","21493"
"12","12","demographics_block","education","1",".",".",".","16","1","21493"
"12","12","demographics_block","left_right_handed","2",".",".",".","Right","1","12740"
"12","12","demographics_block","raceoption1","2",".",".",".","","1","12740"
"12","12","demographics_block","raceoption2","2",".",".",".","1","1","12740"
"12","12","demographics_block","raceoption3","2",".",".",".","","1","12740"
"12","12","demographics_block","raceoption4","2",".",".",".","","1","12740"
"12","12","demographics_block","raceoption5","2",".",".",".","","1","12740"
"12","12","demographics_block","raceoption6","2",".",".",".","","1","12740"
"12","12","demographics_block","raceoption7","2",".",".",".","","1","12740"
"12","12","demographics_block","raceoption8","2",".",".",".","","1","12740"
"12","12","demographics_block","raceoption9","2",".",".",".","","1","12740"
"12","12","demographics_block","raceother","2",".",".",".","","1","12740"
"12","12","demographics_block","raceother","2",".",".",".","","1","12740"
"12","12","demographics_block","english_language","2",".",".",".","Yes","1","12740"
"12","12","demographics_block","other","2",".",".",".","","1","12740"
"12","12","demographics_block","eyesight","3",".",".",".","Yes","1","7107"
"12","12","demographics_block","colorblind","3",".",".",".","No","1","7107"
"10","10","encoding","encoding","1","H33.jpg","1",".","0","0","1000"
"10","10","encoding","encoding","2","G67.jpg","3",".","0","0","1000"
"10","10","encoding","encoding","3","G35.jpg","3",".","0","0","1000"
"10","10","encoding","encoding","4","G7.jpg","3",".","0","0","1000"
"10","10","encoding","encoding","5","G45.jpg","3",".","0","0","1000"
"10","10","encoding","encoding","6","H72.jpg","1",".","0","0","1000"
"10","10","encoding","encoding","7","G24.jpg","3",".","0","0","1000"
"10","10","encoding","encoding","8","G60.jpg","3",".","0","0","1000"
"10","10","encoding","encoding","9","G9.jpg","3",".","0","0","1000"
"10","10","encoding","encoding","10","H17.jpg","1",".","0","0","1000"
"10","10","encoding","encoding","11","G74.jpg","3",".","0","0","1000"
"10","10","encoding","encoding","12","G3.jpg","3",".","0","0","1000"
"10","10","encoding","encoding","13","H32.jpg","1",".","0","0","1000"
"10","10","encoding","encoding","14","G5.jpg","3",".","0","0","1000"
"10","10","encoding","encoding","15","G72.jpg","3",".","0","0","1000"
"10","10","encoding","encoding","16","H61.jpg","1",".","0","0","1000"
"10","10","encoding","encoding","17","H49.jpg","1",".","0","0","1000"
"10","10","encoding","encoding","18","G69.jpg","3",".","0","0","1000"
"10","10","encoding","encoding","19","G16.jpg","3",".","0","0","1000"
"10","10","encoding","encoding","20","H42.jpg","1",".","0","0","1000"
"10","10","encoding","encoding","21","G46.jpg","3",".","0","0","1000"
"10","10","encoding","encoding","22","G64.jpg","3",".","0","0","1000"
"10","10","encoding","encoding","23","G70.jpg","3",".","0","0","1000"
"10","10","encoding","encoding","24","G14.jpg","3",".","0","0","1000"
"10","10","encoding","encoding","25","G9.jpg","3",".","0","0","1000"
"10","10","encoding","encoding","26","G43.jpg","3",".","0","0","1000"
"10","10","encoding","encoding","27","H67.jpg","1",".","0","0","1000"
"10","10","encoding","encoding","28","G64.jpg","3",".","0","0","1000"
"10","10","encoding","encoding","29","H68.jpg","1",".","0","0","1000"
"10","10","encoding","encoding","30","H38.jpg","1",".","0","0","1000"
"10","10","encoding","encoding","31","H27.jpg","1",".","0","0","1000"
"10","10","encoding","encoding","32","G35.jpg","3",".","0","0","1000"
"10","10","encoding","encoding","33","G75.jpg","3",".","0","0","1000"
"10","10","encoding","encoding","34","G77.jpg","3",".","0","0","1000"
"10","10","encoding","encoding","35","H30.jpg","1",".","0","0","1000"
"10","10","encoding","encoding","36","G73.jpg","3",".","0","0","1000"
"10","10","encoding","encoding","37","G68.jpg","3",".","0","0","1000"
"10","10","encoding","encoding","38","G1.jpg","3",".","0","0","1000"
"10","10","encoding","encoding","39","G65.jpg","3",".","0","0","1000"
"10","10","encoding","encoding","40","G43.jpg","3",".","0","0","1000"
"10","10","encoding","encoding","41","H13.jpg","1",".","0","0","1000"
"10","10","encoding","encoding","42","H55.jpg","1",".","0","0","1000"
"10","10","encoding","encoding","43","G36.jpg","3",".","0","0","1000"
"10","10","encoding","encoding","44","H71.jpg","1",".","0","0","1000"
"10","10","encoding","encoding","45","H15.jpg","1",".","0","0","1000"
"10","10","encoding","encoding","46","G31.jpg","3",".","0","0","1000"
"10","10","encoding","encoding","47","G15.jpg","3",".","0","0","1000"
"10","10","encoding","encoding","48","G28.jpg","3",".","0","0","1000"
"10","10","encoding","encoding","49","H14.jpg","1",".","0","0","1000"
"10","10","encoding","encoding","50","G55.jpg","3",".","0","0","1000"
"10","10","encoding","encoding","51","G25.jpg","3",".","0","0","1000"
"10","10","encoding","encoding","52","G26.jpg","3",".","0","0","1000"
"10","10","encoding","encoding","53","H39.jpg","1",".","0","0","1000"
"10","10","encoding","encoding","54","G42.jpg","3",".","0","0","1000"
"10","10","encoding","encoding","55","G60.jpg","3",".","0","0","1000"
"10","10","encoding","encoding","56","G39.jpg","3",".","0","0","1000"
"10","10","encoding","encoding","57","H21.jpg","1",".","0","0","1000"
"10","10","encoding","encoding","58","H6.jpg","1",".","0","0","1000"
"10","10","encoding","encoding","59","H5.jpg","1",".","0","0","1000"
"10","10","encoding","encoding","60","H41.jpg","1",".","0","0","1000"
"10","10","encoding","encoding","61","G51.jpg","3",".","0","0","1000"
"10","10","encoding","encoding","62","G26.jpg","3",".","0","0","1000"
"10","10","encoding","encoding","63","G64.jpg","3",".","0","0","1000"
"10","10","encoding","encoding","64","G49.jpg","3",".","0","0","1000"
"10","10","encoding","encoding","65","G2.jpg","3",".","0","0","1000"
"10","10","encoding","encoding","67","G13.jpg","3",".","0","0","1000"
