"group","subject","blockcode","trialcode","trialnum","stimulus","encoding_condition","old_object_condition","response","correct","latency"
"31","31","encoding","encoding","1","C51.jpg","3",".","37","0","812"
"31","31","encoding","encoding","2","C10.jpg","3",".","37","0","704"
"31","31","encoding","encoding","3","C54.jpg","3",".","37","0","725"
"31","31","encoding","encoding","4","D49.jpg","1",".","36","0","595"
"31","31","encoding","encoding","5","C60.jpg","3",".","37","0","695"
"31","31","encoding","encoding","6","C24.jpg","3",".","37","0","567"
"31","31","encoding","encoding","7","C25.jpg","3",".","37","0","688"
"31","31","encoding","encoding","8","C25.jpg","3",".","37","0","472"
"31","31","encoding","encoding","9","C63.jpg","3",".","37","0","630"
"31","31","encoding","encoding","10","C48.jpg","3",".","37","0","441"
"31","31","encoding","encoding","11","C56.jpg","3",".","37","0","764"
"31","31","encoding","encoding","12","C28.jpg","3",".","37","0","508"
"31","31","encoding","encoding","13","C73.jpg","3",".","36","0","682"
"31","31","encoding","encoding","14","C40.jpg","3",".","37","0","482"
"31","31","encoding","encoding","15","C42.jpg","3",".","37","0","508"
"31","31","encoding","encoding","16","C63.jpg","3",".","37","0","569"
"31","31","encoding","encoding","17","D17.jpg","1",".","37","0","640"
"31","31","encoding","encoding","18","C35.jpg","3",".","37","0","492"
"31","31","encoding","encoding","19","D73.jpg","1",".","37","0","414"
"31","31","encoding","encoding","20","C42.jpg","3",".","37","0","448"
"31","31","encoding","encoding","21","C36.jpg","3",".","37","0","674"
"31","31","encoding","encoding","22","C19.jpg","3",".","36","0","576"
"31","31","encoding","encoding","23","D77.jpg","1",".","37","0","513"
"31","31","encoding","encoding","24","C48.jpg","3",".","37","0","590"
"31","31","encoding","encoding","25","C28.jpg","3",".","37","0","597"
"31","31","encoding","encoding","26","C23.jpg","3",".","37","0","440"
"31","31","encoding","encoding","27","C47.jpg","3",".","37","0","439"
"31","31","encoding","encoding","28","C73.jpg","3",".","36","0","498"
"31","31","encoding","encoding","29","C46.jpg","3",".","37","0","612"
"31","31","encoding","encoding","30","C56.jpg","3",".","37","0","668"
"31","31","encoding","encoding","31","C10.jpg","3",".","37","0","467"
"31","31","encoding","encoding","32","C79.jpg","3",".","36","0","615"
"31","31","encoding","encoding","33","D13.jpg","1",".","37","0","495"
"31","31","encoding","encoding","34","D53.jpg","1",".","37","0","420"
"31","31","encoding","encoding","35","C37.jpg","3",".","37","0","448"
"31","31","encoding","encoding","36","C73.jpg","3",".","36","0","579"
"31","31","encoding","encoding","37","C59.jpg","3",".","37","0","389"
"31","31","encoding","encoding","38","C0.jpg","3",".","36","0","516"
"31","31","encoding","encoding","39","C7.jpg","3",".","36","0","568"
"31","31","encoding","encoding","40","C4.jpg","3",".","37","0","592"
"31","31","encoding","encoding","41","C62.jpg","3",".","37","0","463"
"31","31","encoding","encoding","42","C2.jpg","3",".","37","0","569"
"31","31","encoding","encoding","43","D11.jpg","1",".","37","0","496"
"31","31","encoding","encoding","44","C61.jpg","3",".","37","0","397"
"31","31","encoding","encoding","45","C53.jpg","3",".","37","0","477"
"31","31","encoding","encoding","46","C13.jpg","3",".","37","0","580"
"31","31","encoding","encoding","47","C17.jpg","3",".","37","0","439"
"31","31","encoding","encoding","48","C45.jpg","3",".","37","0","493"
"31","31","encoding","encoding","49","D21.jpg","1",".","37","0","419"
"31","31","encoding","encoding","50","C12.jpg","3",".","37","0","421"
"31","31","encoding","encoding","51","D29.jpg","1",".","36","0","524"
"31","31","encoding","encoding","52","C12.jpg","3",".","37","0","508"
"31","31","encoding","encoding","53","C20.jpg","3",".","37","0","632"
"31","31","encoding","encoding","54","C32.jpg","3",".","37","0","661"
"31","31","encoding","encoding","55","C51.jpg","3",".","37","0","663"
"31","31","encoding","encoding","56","C34.jpg","3",".","37","0","538"
"31","31","encoding","encoding","57","C8.jpg","3",".","37","0","497"
"31","31","encoding","encoding","58","C21.jpg","3",".","36","0","623"
"31","31","encoding","encoding","59","C27.jpg","3",".","37","0","463"
"31","31","encoding","encoding","60","C49.jpg","3",".","37","0","384"
"31","31","encoding","encoding","61","C4.jpg","3",".","37","0","401"
"31","31","encoding","encoding","62","C39.jpg","3",".","37","0","489"
"31","31","encoding","encoding","63","C10.jpg","3",".","37","0","456"
"31","31","encoding","encoding","64","C58.jpg","3",".","37","0","617"
"31","31","encoding","encoding","65","C0.jpg","3",".","36","0","631"
"31","31","encoding","encoding","67","C41.jpg","3",".","37","0","493"
"31","31","encoding","encoding","68","C67.jpg","3",".","36","0","702"
"31","31","encoding","encoding","69","C79.jpg","3",".","36","0","524"
"31","31","encoding","encoding","70","C78.jpg","3",".","37","0","586"
"31","31","encoding","encoding","71","C66.jpg","3",".","37","0","423"
"31","31","encoding","encoding","72","C48.jpg","3",".","37","0","377"
"31","31","encoding","encoding","73","C45.jpg","3",".","37","0","584"
"31","31","encoding","encoding","74","C43.jpg","3",".","37","0","442"
"31","31","encoding","encoding","75","C4.jpg","3",".","37","0","675"
"31","31","encoding","encoding","76","D75.jpg","1",".","36","0","619"
"31","31","encoding","encoding","77","C39.jpg","3",".","37","0","530"
"31","31","encoding","encoding","78","D67.jpg","1",".","36","0","846"
"31","31","encoding","encoding","79","C18.jpg","3",".","37","0","563"
"31","31","encoding","encoding","80","D43.jpg","1",".","37","0","419"
"31","31","encoding","encoding","81","D70.jpg","1",".","37","0","437"
"31","31","encoding","encoding","82","C65.jpg","3",".","37","0","515"
"31","31","encoding","encoding","83","C15.jpg","3",".","37","0","490"
"31","31","encoding","encoding","84","C56.jpg","3",".","37","0","480"
"31","31","encoding","encoding","85","D8.jpg","1",".","37","0","394"
"31","31","encoding","encoding","86","C41.jpg","3",".","37","0","379"
"31","31","encoding","encoding","87","C6.jpg","3",".","37","0","542"
"31","31","encoding","encoding","88","C70.jpg","3",".","37","0","495"
"31","31","encoding","encoding","89","C75.jpg","3",".","37","0","562"
"31","31","encoding","encoding","90","C55.jpg","3",".","37","0","830"
"31","31","encoding","encoding","91","C74.jpg","3",".","37","0","538"
"31","31","encoding","encoding","92","C55.jpg","3",".","37","0","525"
"31","31","encoding","encoding","93","C77.jpg","3",".","36","0","529"
"31","31","encoding","encoding","94","C16.jpg","3",".","37","0","573"
"31","31","encoding","encoding","95","D63.jpg","1",".","37","0","480"
"31","31","encoding","encoding","96","C19.jpg","3",".","37","0","779"
"31","31","encoding","encoding","97","C29.jpg","3",".","37","0","486"
"31","31","encoding","encoding","98","D39.jpg","1",".","37","0","520"
"31","31","encoding","encoding","99","D36.jpg","1",".","37","0","757"
"31","31","encoding","encoding","100","C69.jpg","3",".","37","0","435"
"31","31","encoding","encoding","101","C55.jpg","3",".","37","0","532"
"31","31","encoding","encoding","102","C11.jpg","3",".","37","0","436"
"31","31","encoding","encoding","103","C43.jpg","3",".","37","0","439"
"31","31","encoding","encoding","104","D45.jpg","1",".","36","0","679"
"31","31","encoding","encoding","105","C20.jpg","3",".","37","0","516"
"31","31","encoding","encoding","106","D68.jpg","1",".","37","0","565"
"31","31","encoding","encoding","107","C64.jpg","3",".","37","0","514"
"31","31","encoding","encoding","108","C9.jpg","3",".","37","0","589"
"31","31","encoding","encoding","109","D7.jpg","1",".","37","0","475"
"31","31","encoding","encoding","110","C21.jpg","3",".","37","0","395"
"31","31","encoding","encoding","111","C26.jpg","3",".","37","0","408"
"31","31","encoding","encoding","112","D71.jpg","1",".","37","0","441"
"31","31","encoding","encoding","113","D2.jpg","1",".","37","0","449"
"31","31","encoding","encoding","114","D3.jpg","1",".","37","0","568"
"31","31","encoding","encoding","115","C23.jpg","3",".","37","0","454"
"31","31","encoding","encoding","116","C32.jpg","3",".","37","0","380"
"31","31","encoding","encoding","117","C34.jpg","3",".","37","0","431"
"31","31","encoding","encoding","118","C72.jpg","3",".","37","0","424"
"31","31","encoding","encoding","119","C16.jpg","3",".","37","0","435"
"31","31","encoding","encoding","120","C37.jpg","3",".","37","0","414"
"31","31","encoding","encoding","121","D6.jpg","1",".","37","0","440"
"31","31","encoding","encoding","122","C36.jpg","3",".","37","0","476"
"31","31","encoding","encoding","123","C31.jpg","3",".","37","0","424"
"31","31","encoding","encoding","124","C70.jpg","3",".","37","0","390"
"31","31","encoding","encoding","125","C11.jpg","3",".","37","0","451"
"31","31","encoding","encoding","126","C18.jpg","3",".","37","0","345"
"31","31","encoding","encoding","127","D74.jpg","1",".","37","0","389"
"31","31","encoding","encoding","128","C22.jpg","3",".","37","0","402"
"31","31","encoding","encoding","129","D64.jpg","1",".","36","0","480"
"31","31","encoding","encoding","130","C27.jpg","3",".","37","0","323"
"31","31","encoding","encoding","131","C68.jpg","3",".","37","0","355"
"31","31","encoding","encoding","133","D0.jpg","1",".","37","0","439"
"31","31","encoding","encoding","134","C60.jpg","3",".","37","0","264"
"31","31","encoding","encoding","135","C74.jpg","3",".","37","0","443"
"31","31","encoding","encoding","136","C62.jpg","3",".","37","0","400"
"31","31","encoding","encoding","137","C28.jpg","3",".","37","0","422"
"31","31","encoding","encoding","138","C27.jpg","3",".","37","0","396"
"31","31","encoding","encoding","139","D35.jpg","1",".","37","0","559"
"31","31","encoding","encoding","140","D50.jpg","1",".","37","0","354"
"31","31","encoding","encoding","141","D79.jpg","1",".","37","0","339"
"31","31","encoding","encoding","142","C2.jpg","3",".","37","0","368"
"31","31","encoding","encoding","143","D10.jpg","1",".","36","0","555"
"31","31","encoding","encoding","144","C76.jpg","3",".","37","0","442"
"31","31","encoding","encoding","145","C59.jpg","3",".","37","0","370"
"31","31","encoding","encoding","146","C69.jpg","3",".","37","0","300"
"31","31","encoding","encoding","147","C1.jpg","3",".","37","0","598"
"31","31","encoding","encoding","148","C24.jpg","3",".","37","0","502"
"31","31","encoding","encoding","149","D1.jpg","1",".","37","0","415"
"31","31","encoding","encoding","150","C39.jpg","3",".","37","0","477"
"31","31","encoding","encoding","151","D57.jpg","1",".","36","0","698"
"31","31","encoding","encoding","152","C38.jpg","3",".","37","0","474"
"31","31","encoding","encoding","153","D4.jpg","1",".","37","0","676"
"31","31","encoding","encoding","154","D52.jpg","1",".","37","0","510"
"31","31","encoding","encoding","155","D16.jpg","1",".","37","0","462"
"31","31","encoding","encoding","156","C43.jpg","3",".","37","0","491"
"31","31","encoding","encoding","157","C9.jpg","3",".","37","0","473"
"31","31","encoding","encoding","158","C38.jpg","3",".","37","0","392"
"31","31","encoding","encoding","159","C52.jpg","3",".","37","0","508"
"31","31","encoding","encoding","160","C76.jpg","3",".","37","0","400"
"31","31","encoding","encoding","161","C9.jpg","3",".","37","0","330"
"31","31","encoding","encoding","162","C77.jpg","3",".","36","0","538"
"31","31","encoding","encoding","163","C15.jpg","3",".","37","0","570"
"31","31","encoding","encoding","164","C33.jpg","3",".","37","0","605"
"31","31","encoding","encoding","165","C38.jpg","3",".","37","0","377"
"31","31","encoding","encoding","166","D59.jpg","1",".","37","0","388"
"31","31","encoding","encoding","167","D40.jpg","1",".","37","0","527"
"31","31","encoding","encoding","168","C71.jpg","3",".","37","0","446"
"31","31","encoding","encoding","169","C8.jpg","3",".","37","0","462"
"31","31","encoding","encoding","170","D58.jpg","1",".","36","0","619"
"31","31","encoding","encoding","171","C75.jpg","3",".","37","0","462"
"31","31","encoding","encoding","172","C37.jpg","3",".","37","0","446"
"31","31","encoding","encoding","173","C16.jpg","3",".","0","0","1000"
"31","31","encoding","encoding","174","C13.jpg","3",".","37","0","572"
"31","31","encoding","encoding","175","C57.jpg","3",".","37","0","518"
"31","31","encoding","encoding","176","C6.jpg","3",".","37","0","536"
"31","31","encoding","encoding","177","D24.jpg","1",".","37","0","420"
"31","31","encoding","encoding","178","C67.jpg","3",".","36","0","511"
"31","31","encoding","encoding","179","D19.jpg","1",".","37","0","451"
"31","31","encoding","encoding","180","C3.jpg","3",".","37","0","385"
"31","31","encoding","encoding","181","C15.jpg","3",".","37","0","439"
"31","31","encoding","encoding","182","C50.jpg","3",".","37","0","339"
"31","31","encoding","encoding","183","C52.jpg","3",".","37","0","304"
"31","31","encoding","encoding","184","C7.jpg","3",".","36","0","527"
"31","31","encoding","encoding","185","C70.jpg","3",".","37","0","537"
"31","31","encoding","encoding","186","D37.jpg","1",".","37","0","516"
"31","31","encoding","encoding","187","C44.jpg","3",".","37","0","344"
"31","31","encoding","encoding","188","D26.jpg","1",".","36","0","528"
"31","31","encoding","encoding","189","C41.jpg","3",".","37","0","421"
"31","31","encoding","encoding","190","C7.jpg","3",".","36","0","503"
"31","31","encoding","encoding","191","C68.jpg","3",".","37","0","436"
"31","31","encoding","encoding","192","D66.jpg","1",".","37","0","609"
"31","31","encoding","encoding","193","C79.jpg","3",".","36","0","559"
"31","31","encoding","encoding","194","C46.jpg","3",".","37","0","405"
"31","31","encoding","encoding","195","D51.jpg","1",".","37","0","481"
"31","31","encoding","encoding","196","C13.jpg","3",".","37","0","384"
"31","31","encoding","encoding","197","C29.jpg","3",".","37","0","374"
"31","31","encoding","encoding","199","C19.jpg","3",".","37","0","590"
"31","31","encoding","encoding","200","D62.jpg","1",".","37","0","820"
"31","31","encoding","encoding","201","C44.jpg","3",".","37","0","405"
"31","31","encoding","encoding","202","C26.jpg","3",".","37","0","529"
"31","31","encoding","encoding","203","C64.jpg","3",".","37","0","426"
"31","31","encoding","encoding","204","D42.jpg","1",".","37","0","460"
"31","31","encoding","encoding","205","D31.jpg","1",".","37","0","395"
"31","31","encoding","encoding","206","C76.jpg","3",".","37","0","257"
"31","31","encoding","encoding","207","C30.jpg","3",".","37","0","420"
"31","31","encoding","encoding","208","C58.jpg","3",".","37","0","649"
"31","31","encoding","encoding","209","C69.jpg","3",".","37","0","320"
"31","31","encoding","encoding","210","C49.jpg","3",".","37","0","307"
"31","31","encoding","encoding","211","C50.jpg","3",".","37","0","419"
"31","31","encoding","encoding","212","C22.jpg","3",".","37","0","349"
"31","31","encoding","encoding","213","D65.jpg","1",".","37","0","265"
"31","31","encoding","encoding","214","C44.jpg","3",".","37","0","494"
"31","31","encoding","encoding","215","D20.jpg","1",".","37","0","346"
"31","31","encoding","encoding","216","C31.jpg","3",".","37","0","246"
"31","31","encoding","encoding","217","D69.jpg","1",".","37","0","268"
"31","31","encoding","encoding","218","C17.jpg","3",".","37","0","343"
"31","31","encoding","encoding","219","C14.jpg","3",".","37","0","269"
"31","31","encoding","encoding","220","D33.jpg","1",".","37","0","323"
"31","31","encoding","encoding","221","C14.jpg","3",".","37","0","242"
"31","31","encoding","encoding","222","D12.jpg","1",".","37","0","247"
"31","31","encoding","encoding","223","C57.jpg","3",".","37","0","276"
"31","31","encoding","encoding","224","C78.jpg","3",".","37","0","288"
"31","31","encoding","encoding","225","C35.jpg","3",".","37","0","254"
"31","31","encoding","encoding","226","C71.jpg","3",".","37","0","291"
"31","31","encoding","encoding","227","C54.jpg","3",".","37","0","399"
"31","31","encoding","encoding","228","C31.jpg","3",".","37","0","242"
"31","31","encoding","encoding","229","C57.jpg","3",".","37","0","387"
"31","31","encoding","encoding","230","D72.jpg","1",".","37","0","385"
"31","31","encoding","encoding","231","C1.jpg","3",".","37","0","383"
"31","31","encoding","encoding","232","C49.jpg","3",".","37","0","361"
"31","31","encoding","encoding","233","D54.jpg","1",".","36","0","594"
"31","31","encoding","encoding","234","C32.jpg","3",".","37","0","363"
"31","31","encoding","encoding","235","C78.jpg","3",".","37","0","413"
"31","31","encoding","encoding","236","D23.jpg","1",".","37","0","404"
"31","31","encoding","encoding","237","C33.jpg","3",".","37","0","572"
"31","31","encoding","encoding","238","C66.jpg","3",".","37","0","332"
"31","31","encoding","encoding","239","D32.jpg","1",".","37","0","423"
"31","31","encoding","encoding","240","C47.jpg","3",".","37","0","400"
"31","31","encoding","encoding","241","C26.jpg","3",".","37","0","479"
"31","31","encoding","encoding","242","D60.jpg","1",".","37","0","553"
"31","31","encoding","encoding","243","C12.jpg","3",".","37","0","522"
"31","31","encoding","encoding","244","C1.jpg","3",".","37","0","379"
"31","31","encoding","encoding","245","C59.jpg","3",".","37","0","483"
"31","31","encoding","encoding","246","D38.jpg","1",".","37","0","532"
"31","31","encoding","encoding","247","C61.jpg","3",".","37","0","378"
"31","31","encoding","encoding","248","D9.jpg","1",".","37","0","274"
"31","31","encoding","encoding","249","D34.jpg","1",".","37","0","231"
"31","31","encoding","encoding","250","C17.jpg","3",".","37","0","276"
"31","31","encoding","encoding","251","D18.jpg","1",".","37","0","384"
"31","31","encoding","encoding","252","C62.jpg","3",".","37","0","378"
"31","31","encoding","encoding","253","D28.jpg","1",".","37","0","290"
"31","31","encoding","encoding","254","C65.jpg","3",".","37","0","283"
"31","31","encoding","encoding","255","C52.jpg","3",".","37","0","398"
"31","31","encoding","encoding","256","C24.jpg","3",".","37","0","428"
"31","31","encoding","encoding","257","C46.jpg","3",".","37","0","427"
"31","31","encoding","encoding","258","D48.jpg","1",".","37","0","245"
"31","31","encoding","encoding","259","C34.jpg","3",".","37","0","281"
"31","31","encoding","encoding","260","C47.jpg","3",".","37","0","378"
"31","31","encoding","encoding","261","C25.jpg","3",".","37","0","405"
"31","31","encoding","encoding","262","C65.jpg","3",".","37","0","184"
"31","31","encoding","encoding","263","C20.jpg","3",".","37","0","637"
"31","31","encoding","encoding","265","C60.jpg","3",".","37","0","356"
"31","31","encoding","encoding","266","C67.jpg","3",".","36","0","565"
"31","31","encoding","encoding","267","C2.jpg","3",".","37","0","502"
"31","31","encoding","encoding","268","C77.jpg","3",".","36","0","491"
"31","31","encoding","encoding","269","C51.jpg","3",".","37","0","428"
"31","31","encoding","encoding","270","C11.jpg","3",".","37","0","447"
"31","31","encoding","encoding","271","C71.jpg","3",".","37","0","390"
"31","31","encoding","encoding","272","C6.jpg","3",".","37","0","520"
"31","31","encoding","encoding","273","C3.jpg","3",".","37","0","401"
"31","31","encoding","encoding","274","C0.jpg","3",".","36","0","507"
"31","31","encoding","encoding","275","C5.jpg","3",".","37","0","466"
"31","31","encoding","encoding","276","C61.jpg","3",".","37","0","419"
"31","31","encoding","encoding","277","C42.jpg","3",".","37","0","641"
"31","31","encoding","encoding","278","C21.jpg","3",".","37","0","568"
"31","31","encoding","encoding","279","C53.jpg","3",".","37","0","449"
"31","31","encoding","encoding","280","D61.jpg","1",".","37","0","530"
"31","31","encoding","encoding","281","C18.jpg","3",".","37","0","720"
"31","31","encoding","encoding","282","C5.jpg","3",".","37","0","672"
"31","31","encoding","encoding","283","D47.jpg","1",".","37","0","510"
"31","31","encoding","encoding","284","C64.jpg","3",".","37","0","489"
"31","31","encoding","encoding","285","C58.jpg","3",".","37","0","528"
"31","31","encoding","encoding","286","C63.jpg","3",".","37","0","287"
"31","31","encoding","encoding","287","C66.jpg","3",".","37","0","239"
"31","31","encoding","encoding","288","D5.jpg","1",".","37","0","396"
"31","31","encoding","encoding","289","C74.jpg","3",".","37","0","307"
"31","31","encoding","encoding","290","C3.jpg","3",".","37","0","234"
"31","31","encoding","encoding","291","C45.jpg","3",".","37","0","383"
"31","31","encoding","encoding","292","D78.jpg","1",".","37","0","327"
"31","31","encoding","encoding","293","C30.jpg","3",".","37","0","435"
"31","31","encoding","encoding","294","D27.jpg","1",".","37","0","406"
"31","31","encoding","encoding","295","C54.jpg","3",".","37","0","398"
"31","31","encoding","encoding","296","C33.jpg","3",".","37","0","236"
"31","31","encoding","encoding","297","D14.jpg","1",".","37","0","440"
"31","31","encoding","encoding","298","D55.jpg","1",".","37","0","368"
"31","31","encoding","encoding","299","C75.jpg","3",".","37","0","374"
"31","31","encoding","encoding","300","C40.jpg","3",".","37","0","337"
"31","31","encoding","encoding","301","C8.jpg","3",".","37","0","279"
"31","31","encoding","encoding","302","D44.jpg","1",".","37","0","662"
"31","31","encoding","encoding","303","D41.jpg","1",".","37","0","443"
"31","31","encoding","encoding","304","C53.jpg","3",".","37","0","450"
"31","31","encoding","encoding","305","D22.jpg","1",".","37","0","393"
"31","31","encoding","encoding","306","D46.jpg","1",".","37","0","416"
"31","31","encoding","encoding","307","C36.jpg","3",".","37","0","346"
"31","31","encoding","encoding","308","C30.jpg","3",".","37","0","436"
"31","31","encoding","encoding","309","C5.jpg","3",".","37","0","399"
"31","31","encoding","encoding","310","C14.jpg","3",".","37","0","378"
"31","31","encoding","encoding","311","C22.jpg","3",".","37","0","338"
"31","31","encoding","encoding","312","C23.jpg","3",".","37","0","334"
"31","31","encoding","encoding","313","D30.jpg","1",".","37","0","347"
"31","31","encoding","encoding","314","C29.jpg","3",".","37","0","441"
"31","31","encoding","encoding","315","C68.jpg","3",".","37","0","328"
"31","31","encoding","encoding","316","C72.jpg","3",".","37","0","418"
"31","31","encoding","encoding","317","D56.jpg","1",".","37","0","450"
"31","31","encoding","encoding","318","D76.jpg","1",".","37","0","393"
"31","31","encoding","encoding","319","D25.jpg","1",".","37","0","390"
"31","31","encoding","encoding","320","C35.jpg","3",".","37","0","407"
"31","31","encoding","encoding","321","C72.jpg","3",".","37","0","388"
"31","31","encoding","encoding","322","C40.jpg","3",".","37","0","417"
"31","31","encoding","encoding","323","D15.jpg","1",".","37","0","395"
"31","31","encoding","encoding","324","C50.jpg","3",".","37","0","427"
"31","31","encoding","encoding","325","C51.jpg","",".","37","0","425"
"31","31","retrieval","old_object","1","D70.jpg",".","1","36","1","1051"
"31","31","retrieval","new_object","2","A13.jpg",".",".","36","0","1119"
"31","31","retrieval","old_object","3","C25.jpg",".","3","36","1","646"
"31","31","retrieval","old_object","4","C34.jpg",".","3","36","1","599"
"31","31","retrieval","old_object","5","D75.jpg",".","1","36","1","576"
"31","31","retrieval","old_object","6","C79.jpg",".","3","36","1","569"
"31","31","retrieval","new_object","7","A10.jpg",".",".","37","1","550"
"31","31","retrieval","new_object","8","B8.jpg",".",".","37","1","730"
"31","31","retrieval","old_object","9","C33.jpg",".","3","36","1","501"
"31","31","retrieval","old_object","10","D67.jpg",".","1","36","1","613"
"31","31","retrieval","old_object","11","C50.jpg",".","3","36","1","807"
"31","31","retrieval","new_object","12","A29.jpg",".",".","37","1","848"
"31","31","retrieval","old_object","13","D46.jpg",".","1","36","1","655"
"31","31","retrieval","old_object","14","C77.jpg",".","3","36","1","604"
"31","31","retrieval","old_object","15","D33.jpg",".","1","36","1","610"
"31","31","retrieval","old_object","16","C61.jpg",".","3","36","1","435"
"31","31","retrieval","old_object","17","C36.jpg",".","3","36","1","452"
"31","31","retrieval","old_object","18","D59.jpg",".","1","36","1","594"
"31","31","retrieval","new_object","19","B36.jpg",".",".","37","1","788"
"31","31","retrieval","old_object","20","D16.jpg",".","1","36","1","814"
"31","31","retrieval","old_object","21","D12.jpg",".","1","36","1","808"
"31","31","retrieval","new_object","22","A53.jpg",".",".","37","1","827"
"31","31","retrieval","new_object","23","B48.jpg",".",".","37","1","974"
"31","31","retrieval","new_object","24","A27.jpg",".",".","37","1","808"
"31","31","retrieval","old_object","25","C52.jpg",".","3","36","1","626"
"31","31","retrieval","old_object","26","C76.jpg",".","3","36","1","602"
"31","31","retrieval","old_object","27","D78.jpg",".","1","36","1","659"
"31","31","retrieval","new_object","28","A0.jpg",".",".","37","1","647"
"31","31","retrieval","new_object","29","B52.jpg",".",".","37","1","604"
"31","31","retrieval","old_object","30","C68.jpg",".","3","36","1","572"
"31","31","retrieval","old_object","31","C42.jpg",".","3","36","1","601"
"31","31","retrieval","new_object","32","B46.jpg",".",".","37","1","812"
"31","31","retrieval","new_object","33","B42.jpg",".",".","37","1","1019"
"31","31","retrieval","new_object","34","B73.jpg",".",".","37","1","764"
"31","31","retrieval","new_object","35","B74.jpg",".",".","37","1","713"
"31","31","retrieval","new_object","36","B56.jpg",".",".","37","1","844"
"31","31","retrieval","old_object","37","C58.jpg",".","3","36","1","684"
"31","31","retrieval","new_object","38","B39.jpg",".",".","37","1","967"
"31","31","retrieval","new_object","39","B79.jpg",".",".","37","1","779"
"31","31","retrieval","old_object","40","C27.jpg",".","3","36","1","577"
"31","31","retrieval","old_object","41","D21.jpg",".","1","36","1","565"
"31","31","retrieval","old_object","42","D25.jpg",".","1","36","1","687"
"31","31","retrieval","new_object","43","A52.jpg",".",".","37","1","594"
"31","31","retrieval","new_object","44","B77.jpg",".",".","37","1","782"
"31","31","retrieval","old_object","45","C10.jpg",".","3","36","1","746"
"31","31","retrieval","new_object","46","A54.jpg",".",".","37","1","756"
"31","31","retrieval","old_object","47","D55.jpg",".","1","37","0","1020"
"31","31","retrieval","old_object","48","D15.jpg",".","1","36","1","861"
"31","31","retrieval","new_object","49","B32.jpg",".",".","37","1","717"
"31","31","retrieval","new_object","50","B41.jpg",".",".","37","1","799"
"31","31","retrieval","old_object","51","D7.jpg",".","1","37","0","694"
"31","31","retrieval","old_object","52","C72.jpg",".","3","36","1","606"
"31","31","retrieval","new_object","53","A55.jpg",".",".","37","1","803"
"31","31","retrieval","old_object","54","C30.jpg",".","3","36","1","707"
"31","31","retrieval","new_object","55","B69.jpg",".",".","37","1","743"
"31","31","retrieval","new_object","56","A15.jpg",".",".","37","1","758"
"31","31","retrieval","new_object","57","A26.jpg",".",".","37","1","639"
"31","31","retrieval","new_object","58","A49.jpg",".",".","37","1","654"
"31","31","retrieval","new_object","59","B26.jpg",".",".","37","1","576"
"31","31","retrieval","new_object","60","A69.jpg",".",".","37","1","606"
"31","31","retrieval","old_object","61","D71.jpg",".","1","37","0","474"
"31","31","retrieval","new_object","62","B9.jpg",".",".","37","1","831"
"31","31","retrieval","old_object","63","D65.jpg",".","1","37","0","769"
"31","31","retrieval","new_object","64","A41.jpg",".",".","37","1","641"
"31","31","retrieval","old_object","65","C47.jpg",".","3","36","1","481"
"31","31","retrieval","new_object","67","B61.jpg",".",".","37","1","706"
"31","31","retrieval","new_object","68","A48.jpg",".",".","37","1","829"
"31","31","retrieval","new_object","69","A30.jpg",".",".","37","1","670"
"31","31","retrieval","old_object","70","C14.jpg",".","3","36","1","801"
"31","31","retrieval","new_object","71","A34.jpg",".",".","37","1","588"
"31","31","retrieval","new_object","72","A57.jpg",".",".","37","1","624"
"31","31","retrieval","new_object","73","A32.jpg",".",".","36","0","941"
"31","31","retrieval","new_object","74","B3.jpg",".",".","37","1","1158"
"31","31","retrieval","old_object","75","C28.jpg",".","3","36","1","755"
"31","31","retrieval","new_object","76","A50.jpg",".",".","37","1","737"
"31","31","retrieval","old_object","77","C45.jpg",".","3","36","1","745"
"31","31","retrieval","old_object","78","C19.jpg",".","3","36","1","637"
"31","31","retrieval","new_object","79","A61.jpg",".",".","37","1","945"
"31","31","retrieval","new_object","80","B34.jpg",".",".","37","1","713"
"31","31","retrieval","old_object","81","C75.jpg",".","3","36","1","799"
"31","31","retrieval","old_object","82","D34.jpg",".","1","36","1","689"
"31","31","retrieval","old_object","83","C67.jpg",".","3","36","1","663"
"31","31","retrieval","new_object","84","A43.jpg",".",".","37","1","784"
"31","31","retrieval","old_object","85","C8.jpg",".","3","36","1","638"
"31","31","retrieval","old_object","86","D8.jpg",".","1","37","0","729"
"31","31","retrieval","new_object","87","B75.jpg",".",".","37","1","710"
"31","31","retrieval","old_object","88","C22.jpg",".","3","36","1","850"
"31","31","retrieval","old_object","89","C12.jpg",".","3","36","1","860"
"31","31","retrieval","old_object","90","D13.jpg",".","1","36","1","726"
"31","31","retrieval","old_object","91","C0.jpg",".","3","36","1","553"
"31","31","retrieval","old_object","92","D3.jpg",".","1","36","1","757"
"31","31","retrieval","new_object","93","B62.jpg",".",".","37","1","558"
"31","31","retrieval","new_object","94","A73.jpg",".",".","37","1","529"
"31","31","retrieval","new_object","95","B23.jpg",".",".","37","1","509"
"31","31","retrieval","new_object","96","A23.jpg",".",".","37","1","917"
"31","31","retrieval","old_object","97","D35.jpg",".","1","36","1","761"
"31","31","retrieval","old_object","98","D62.jpg",".","1","36","1","674"
"31","31","retrieval","new_object","99","B78.jpg",".",".","37","1","662"
"31","31","retrieval","new_object","100","B68.jpg",".",".","37","1","759"
"31","31","retrieval","new_object","101","B25.jpg",".",".","37","1","630"
"31","31","retrieval","old_object","102","D28.jpg",".","1","37","0","924"
"31","31","retrieval","new_object","103","B38.jpg",".",".","37","1","720"
"31","31","retrieval","new_object","104","A51.jpg",".",".","37","1","662"
"31","31","retrieval","old_object","105","D42.jpg",".","1","37","0","940"
"31","31","retrieval","new_object","106","B72.jpg",".",".","37","1","593"
"31","31","retrieval","old_object","107","C32.jpg",".","3","36","1","731"
"31","31","retrieval","old_object","108","D10.jpg",".","1","36","1","568"
"31","31","retrieval","old_object","109","C37.jpg",".","3","36","1","623"
"31","31","retrieval","new_object","110","A74.jpg",".",".","37","1","770"
"31","31","retrieval","old_object","111","D79.jpg",".","1","37","0","1130"
"31","31","retrieval","old_object","112","C3.jpg",".","3","36","1","825"
"31","31","retrieval","new_object","113","B67.jpg",".",".","37","1","1089"
"31","31","retrieval","old_object","114","C65.jpg",".","3","36","1","667"
"31","31","retrieval","new_object","115","B50.jpg",".",".","37","1","796"
"31","31","retrieval","old_object","116","C20.jpg",".","3","36","1","879"
"31","31","retrieval","new_object","117","A67.jpg",".",".","37","1","818"
"31","31","retrieval","old_object","118","D56.jpg",".","1","36","1","634"
"31","31","retrieval","new_object","119","B76.jpg",".",".","37","1","703"
"31","31","retrieval","new_object","120","A9.jpg",".",".","37","1","847"
"31","31","retrieval","old_object","121","D27.jpg",".","1","36","1","1543"
"31","31","retrieval","new_object","122","A17.jpg",".",".","37","1","1007"
"31","31","retrieval","old_object","123","C26.jpg",".","3","36","1","757"
"31","31","retrieval","old_object","124","D76.jpg",".","1","36","1","638"
"31","31","retrieval","new_object","125","B28.jpg",".",".","37","1","769"
"31","31","retrieval","old_object","126","D68.jpg",".","1","36","1","886"
"31","31","retrieval","old_object","127","C4.jpg",".","3","36","1","601"
"31","31","retrieval","old_object","128","C31.jpg",".","3","36","1","657"
"31","31","retrieval","old_object","129","D60.jpg",".","1","36","1","851"
"31","31","retrieval","new_object","130","B59.jpg",".",".","37","1","834"
"31","31","retrieval","new_object","131","A46.jpg",".",".","37","1","640"
"31","31","retrieval","new_object","133","B30.jpg",".",".","37","1","893"
"31","31","retrieval","new_object","134","A2.jpg",".",".","37","1","742"
"31","31","retrieval","new_object","135","B71.jpg",".",".","37","1","782"
"31","31","retrieval","old_object","136","D54.jpg",".","1","36","1","567"
"31","31","retrieval","new_object","137","A20.jpg",".",".","37","1","960"
"31","31","retrieval","new_object","138","B37.jpg",".",".","37","1","569"
"31","31","retrieval","old_object","139","C73.jpg",".","3","36","1","568"
"31","31","retrieval","new_object","140","B15.jpg",".",".","37","1","526"
"31","31","retrieval","new_object","141","B5.jpg",".",".","37","1","574"
"31","31","retrieval","old_object","142","C23.jpg",".","3","36","1","591"
"31","31","retrieval","new_object","143","B63.jpg",".",".","37","1","650"
"31","31","retrieval","old_object","144","D58.jpg",".","1","36","1","668"
"31","31","retrieval","old_object","145","C43.jpg",".","3","36","1","714"
"31","31","retrieval","old_object","146","D72.jpg",".","1","37","0","683"
"31","31","retrieval","new_object","147","A60.jpg",".",".","37","1","639"
"31","31","retrieval","old_object","148","C49.jpg",".","3","36","1","639"
"31","31","retrieval","new_object","149","A1.jpg",".",".","37","1","1428"
"31","31","retrieval","old_object","150","C1.jpg",".","3","36","1","747"
"31","31","retrieval","new_object","151","B40.jpg",".",".","37","1","754"
"31","31","retrieval","new_object","152","A25.jpg",".",".","37","1","734"
"31","31","retrieval","new_object","153","B4.jpg",".",".","37","1","737"
"31","31","retrieval","old_object","154","C38.jpg",".","3","37","0","734"
"31","31","retrieval","old_object","155","D37.jpg",".","1","36","1","1094"
"31","31","retrieval","old_object","156","C41.jpg",".","3","36","1","1046"
"31","31","retrieval","new_object","157","B12.jpg",".",".","37","1","715"
"31","31","retrieval","new_object","158","A39.jpg",".",".","37","1","1015"
"31","31","retrieval","new_object","159","B21.jpg",".",".","37","1","816"
"31","31","retrieval","old_object","160","D40.jpg",".","1","37","0","482"
"31","31","retrieval","old_object","161","C24.jpg",".","3","36","1","640"
"31","31","retrieval","old_object","162","D77.jpg",".","1","37","0","827"
"31","31","retrieval","new_object","163","A21.jpg",".",".","37","1","1115"
"31","31","retrieval","new_object","164","B35.jpg",".",".","37","1","798"
"31","31","retrieval","old_object","165","D63.jpg",".","1","37","0","1041"
"31","31","retrieval","new_object","166","B31.jpg",".",".","37","1","714"
"31","31","retrieval","new_object","167","B18.jpg",".",".","37","1","677"
"31","31","retrieval","old_object","168","D19.jpg",".","1","37","0","991"
"31","31","retrieval","new_object","169","A71.jpg",".",".","37","1","688"
"31","31","retrieval","old_object","170","D14.jpg",".","1","37","0","790"
"31","31","retrieval","new_object","171","A22.jpg",".",".","37","1","755"
"31","31","retrieval","old_object","172","D39.jpg",".","1","37","0","920"
"31","31","retrieval","old_object","173","D73.jpg",".","1","36","1","910"
"31","31","retrieval","old_object","174","D51.jpg",".","1","36","1","715"
"31","31","retrieval","old_object","175","C55.jpg",".","3","36","1","763"
"31","31","retrieval","new_object","176","B0.jpg",".",".","37","1","798"
"31","31","retrieval","old_object","177","C35.jpg",".","3","36","1","801"
"31","31","retrieval","old_object","178","D57.jpg",".","1","36","1","569"
"31","31","retrieval","old_object","179","D31.jpg",".","1","36","1","640"
"31","31","retrieval","old_object","180","C6.jpg",".","3","36","1","743"
"31","31","retrieval","old_object","181","C11.jpg",".","3","36","1","676"
"31","31","retrieval","old_object","182","C70.jpg",".","3","36","1","696"
"31","31","retrieval","old_object","183","D20.jpg",".","1","36","1","1186"
"31","31","retrieval","new_object","184","A36.jpg",".",".","37","1","871"
"31","31","retrieval","old_object","185","C63.jpg",".","3","36","1","659"
"31","31","retrieval","new_object","186","B14.jpg",".",".","37","1","713"
"31","31","retrieval","new_object","187","A6.jpg",".",".","37","1","758"
"31","31","retrieval","new_object","188","A44.jpg",".",".","37","1","528"
"31","31","retrieval","old_object","189","C17.jpg",".","3","36","1","572"
"31","31","retrieval","old_object","190","D74.jpg",".","1","36","1","582"
"31","31","retrieval","old_object","191","D41.jpg",".","1","36","1","641"
"31","31","retrieval","old_object","192","C39.jpg",".","3","36","1","682"
"31","31","retrieval","new_object","193","A65.jpg",".",".","37","1","868"
"31","31","retrieval","new_object","194","A78.jpg",".",".","37","1","788"
"31","31","retrieval","old_object","195","C51.jpg",".","3","36","1","722"
"31","31","retrieval","old_object","196","C71.jpg",".","3","36","1","716"
"31","31","retrieval","new_object","197","A76.jpg",".",".","37","1","623"
"31","31","retrieval","new_object","199","A24.jpg",".",".","37","1","1109"
"31","31","retrieval","new_object","200","B11.jpg",".",".","37","1","615"
"31","31","retrieval","old_object","201","D48.jpg",".","1","37","0","436"
"31","31","retrieval","old_object","202","C29.jpg",".","3","36","1","532"
"31","31","retrieval","new_object","203","B60.jpg",".",".","37","1","723"
"31","31","retrieval","new_object","204","B54.jpg",".",".","37","1","565"
"31","31","retrieval","old_object","205","D2.jpg",".","1","37","0","732"
"31","31","retrieval","new_object","206","A62.jpg",".",".","37","1","648"
"31","31","retrieval","new_object","207","B47.jpg",".",".","37","1","621"
"31","31","retrieval","new_object","208","A72.jpg",".",".","37","1","479"
"31","31","retrieval","old_object","209","D5.jpg",".","1","37","0","662"
"31","31","retrieval","old_object","210","D45.jpg",".","1","36","1","721"
"31","31","retrieval","old_object","211","C62.jpg",".","3","36","1","612"
"31","31","retrieval","old_object","212","C60.jpg",".","3","36","1","751"
"31","31","retrieval","new_object","213","B7.jpg",".",".","37","1","754"
"31","31","retrieval","new_object","214","A37.jpg",".",".","37","1","941"
"31","31","retrieval","old_object","215","D64.jpg",".","1","36","1","776"
"31","31","retrieval","old_object","216","C21.jpg",".","3","36","1","706"
"31","31","retrieval","new_object","217","A33.jpg",".",".","37","1","623"
"31","31","retrieval","old_object","218","C78.jpg",".","3","36","1","933"
"31","31","retrieval","new_object","219","A63.jpg",".",".","37","1","970"
"31","31","retrieval","old_object","220","D1.jpg",".","1","36","1","777"
"31","31","retrieval","new_object","221","B16.jpg",".",".","37","1","837"
"31","31","retrieval","old_object","222","C40.jpg",".","3","36","1","672"
"31","31","retrieval","old_object","223","C66.jpg",".","3","36","1","734"
"31","31","retrieval","new_object","224","B55.jpg",".",".","37","1","648"
"31","31","retrieval","new_object","225","B1.jpg",".",".","37","1","669"
"31","31","retrieval","new_object","226","A3.jpg",".",".","37","1","840"
"31","31","retrieval","old_object","227","D43.jpg",".","1","37","0","968"
"31","31","retrieval","new_object","228","A79.jpg",".",".","37","1","794"
"31","31","retrieval","new_object","229","A7.jpg",".",".","37","1","643"
"31","31","retrieval","new_object","230","A70.jpg",".",".","37","1","422"
"31","31","retrieval","old_object","231","D52.jpg",".","1","37","0","958"
"31","31","retrieval","new_object","232","A75.jpg",".",".","37","1","559"
"31","31","retrieval","old_object","233","D69.jpg",".","1","36","1","688"
"31","31","retrieval","new_object","234","A16.jpg",".",".","37","1","720"
"31","31","retrieval","new_object","235","B13.jpg",".",".","37","1","761"
"31","31","retrieval","new_object","236","A35.jpg",".",".","37","1","561"
"31","31","retrieval","new_object","237","A58.jpg",".",".","37","1","665"
"31","31","retrieval","new_object","238","B6.jpg",".",".","37","1","631"
"31","31","retrieval","old_object","239","D49.jpg",".","1","36","1","781"
"31","31","retrieval","new_object","240","A45.jpg",".",".","37","1","764"
"31","31","retrieval","old_object","241","D22.jpg",".","1","37","0","515"
"31","31","retrieval","new_object","242","B33.jpg",".",".","37","1","536"
"31","31","retrieval","old_object","243","D61.jpg",".","1","36","1","679"
"31","31","retrieval","old_object","244","D17.jpg",".","1","36","1","657"
"31","31","retrieval","new_object","245","B27.jpg",".",".","37","1","538"
"31","31","retrieval","old_object","246","D11.jpg",".","1","37","0","482"
"31","31","retrieval","new_object","247","A14.jpg",".",".","37","1","589"
"31","31","retrieval","new_object","248","B66.jpg",".",".","37","1","605"
"31","31","retrieval","old_object","249","C57.jpg",".","3","36","1","696"
"31","31","retrieval","new_object","250","B53.jpg",".",".","37","1","630"
"31","31","retrieval","old_object","251","D26.jpg",".","1","36","1","697"
"31","31","retrieval","new_object","252","A42.jpg",".",".","37","1","616"
"31","31","retrieval","new_object","253","A19.jpg",".",".","37","1","630"
"31","31","retrieval","old_object","254","C46.jpg",".","3","37","0","811"
"31","31","retrieval","new_object","255","A64.jpg",".",".","37","1","525"
"31","31","retrieval","new_object","256","B58.jpg",".",".","37","1","509"
"31","31","retrieval","new_object","257","A38.jpg",".",".","37","1","703"
"31","31","retrieval","old_object","258","C5.jpg",".","3","36","1","635"
"31","31","retrieval","old_object","259","D38.jpg",".","1","36","1","804"
"31","31","retrieval","old_object","260","C7.jpg",".","3","36","1","585"
"31","31","retrieval","new_object","261","B65.jpg",".",".","37","1","557"
"31","31","retrieval","new_object","262","B22.jpg",".",".","37","1","606"
"31","31","retrieval","new_object","263","B45.jpg",".",".","37","1","518"
"31","31","retrieval","old_object","265","C9.jpg",".","3","36","1","784"
"31","31","retrieval","new_object","266","A11.jpg",".",".","37","1","696"
"31","31","retrieval","old_object","267","D23.jpg",".","1","37","0","514"
"31","31","retrieval","old_object","268","D47.jpg",".","1","37","0","730"
"31","31","retrieval","old_object","269","C13.jpg",".","3","36","1","645"
"31","31","retrieval","new_object","270","B57.jpg",".",".","37","1","623"
"31","31","retrieval","old_object","271","D18.jpg",".","1","36","1","853"
"31","31","retrieval","old_object","272","C15.jpg",".","3","37","0","696"
"31","31","retrieval","old_object","273","D9.jpg",".","1","37","0","534"
"31","31","retrieval","new_object","274","A4.jpg",".",".","37","1","524"
"31","31","retrieval","new_object","275","A68.jpg",".",".","37","1","714"
"31","31","retrieval","old_object","276","D6.jpg",".","1","37","0","636"
"31","31","retrieval","new_object","277","B51.jpg",".",".","37","1","585"
"31","31","retrieval","new_object","278","A77.jpg",".",".","37","1","580"
"31","31","retrieval","old_object","279","D53.jpg",".","1","37","0","785"
"31","31","retrieval","old_object","280","C53.jpg",".","3","36","1","667"
"31","31","retrieval","new_object","281","B70.jpg",".",".","37","1","633"
"31","31","retrieval","old_object","282","D36.jpg",".","1","37","0","587"
"31","31","retrieval","old_object","283","D29.jpg",".","1","36","1","671"
"31","31","retrieval","new_object","284","A5.jpg",".",".","37","1","931"
"31","31","retrieval","new_object","285","B2.jpg",".",".","37","1","656"
"31","31","retrieval","old_object","286","C18.jpg",".","3","36","1","664"
"31","31","retrieval","old_object","287","D66.jpg",".","1","36","1","707"
"31","31","retrieval","new_object","288","B19.jpg",".",".","37","1","691"
"31","31","retrieval","new_object","289","A18.jpg",".",".","37","1","659"
"31","31","retrieval","old_object","290","D44.jpg",".","1","37","0","756"
"31","31","retrieval","old_object","291","D30.jpg",".","1","36","1","738"
"31","31","retrieval","new_object","292","B64.jpg",".",".","37","1","708"
"31","31","retrieval","new_object","293","B20.jpg",".",".","37","1","663"
"31","31","retrieval","new_object","294","B44.jpg",".",".","37","1","851"
"31","31","retrieval","new_object","295","A28.jpg",".",".","37","1","766"
"31","31","retrieval","new_object","296","B17.jpg",".",".","37","1","622"
"31","31","retrieval","old_object","297","C44.jpg",".","3","36","1","869"
"31","31","retrieval","new_object","298","A12.jpg",".",".","37","1","544"
"31","31","retrieval","old_object","299","D0.jpg",".","1","37","0","645"
"31","31","retrieval","old_object","300","C54.jpg",".","3","36","1","661"
"31","31","retrieval","old_object","301","D32.jpg",".","1","36","1","735"
"31","31","retrieval","old_object","302","C16.jpg",".","3","36","1","703"
"31","31","retrieval","new_object","303","A59.jpg",".",".","37","1","705"
"31","31","retrieval","old_object","304","C69.jpg",".","3","36","1","712"
"31","31","retrieval","old_object","305","C64.jpg",".","3","36","1","762"
"31","31","retrieval","new_object","306","B29.jpg",".",".","37","1","505"
"31","31","retrieval","old_object","307","D4.jpg",".","1","36","1","736"
"31","31","retrieval","new_object","308","A56.jpg",".",".","37","1","672"
"31","31","retrieval","new_object","309","A40.jpg",".",".","37","1","617"
"31","31","retrieval","old_object","310","C48.jpg",".","3","36","1","567"
"31","31","retrieval","old_object","311","D24.jpg",".","1","37","0","629"
"31","31","retrieval","old_object","312","C59.jpg",".","3","36","1","693"
"31","31","retrieval","new_object","313","B49.jpg",".",".","37","1","719"
"31","31","retrieval","new_object","314","A31.jpg",".",".","37","1","608"
"31","31","retrieval","new_object","315","A66.jpg",".",".","37","1","694"
"31","31","retrieval","new_object","316","B43.jpg",".",".","37","1","598"
"31","31","retrieval","old_object","317","C2.jpg",".","3","36","1","737"
"31","31","retrieval","new_object","318","A8.jpg",".",".","37","1","895"
"31","31","retrieval","new_object","319","B24.jpg",".",".","37","1","612"
"31","31","retrieval","old_object","320","C74.jpg",".","3","36","1","679"
"31","31","retrieval","old_object","321","C56.jpg",".","3","36","1","639"
"31","31","retrieval","new_object","322","B10.jpg",".",".","37","1","527"
"31","31","retrieval","new_object","323","A47.jpg",".",".","37","1","712"
"31","31","retrieval","old_object","324","D50.jpg",".","1","37","0","563"
"31","31","retrieval","old_object","325","D70.jpg",".","","36","1","586"
"31","31","demographics_block","gender","1",".",".",".","Male","1","18944"
"31","31","demographics_block","age","1",".",".",".","31","1","18944"
"31","31","demographics_block","education","1",".",".",".","12","1","18944"
"31","31","demographics_block","left_right_handed","2",".",".",".","Right","1","11436"
"31","31","demographics_block","raceoption1","2",".",".",".","0","1","11436"
"31","31","demographics_block","raceoption2","2",".",".",".","","1","11436"
"31","31","demographics_block","raceoption3","2",".",".",".","","1","11436"
"31","31","demographics_block","raceoption4","2",".",".",".","","1","11436"
"31","31","demographics_block","raceoption5","2",".",".",".","","1","11436"
"31","31","demographics_block","raceoption6","2",".",".",".","","1","11436"
"31","31","demographics_block","raceoption7","2",".",".",".","","1","11436"
"31","31","demographics_block","raceoption8","2",".",".",".","","1","11436"
"31","31","demographics_block","raceoption9","2",".",".",".","","1","11436"
"31","31","demographics_block","raceother","2",".",".",".","","1","11436"
"31","31","demographics_block","raceother","2",".",".",".","","1","11436"
"31","31","demographics_block","english_language","2",".",".",".","Yes","1","11436"
"31","31","demographics_block","other","2",".",".",".","","1","11436"
"31","31","demographics_block","eyesight","3",".",".",".","Yes","1","10412"
"31","31","demographics_block","colorblind","3",".",".",".","No","1","10412"
