"group","subject","blockcode","trialcode","trialnum","stimulus","encoding_condition","old_object_condition","response","correct","latency"
"14","14","encoding","encoding","1","G53.jpg","1",".","37","0","878"
"14","14","encoding","encoding","2","H10.jpg","3",".","0","0","1000"
"14","14","encoding","encoding","3","H22.jpg","3",".","37","0","893"
"14","14","encoding","encoding","4","G70.jpg","1",".","37","0","510"
"14","14","encoding","encoding","5","H23.jpg","3",".","37","0","472"
"14","14","encoding","encoding","6","G57.jpg","1",".","37","0","464"
"14","14","encoding","encoding","7","H67.jpg","3",".","37","0","748"
"14","14","encoding","encoding","8","H6.jpg","3",".","37","0","430"
"14","14","encoding","encoding","9","H51.jpg","3",".","37","0","500"
"14","14","encoding","encoding","10","H27.jpg","3",".","37","0","392"
"14","14","encoding","encoding","11","H29.jpg","3",".","37","0","390"
"14","14","encoding","encoding","12","H17.jpg","3",".","37","0","562"
"14","14","encoding","encoding","13","G41.jpg","1",".","37","0","403"
"14","14","encoding","encoding","14","H53.jpg","3",".","37","0","434"
"14","14","encoding","encoding","15","H69.jpg","3",".","37","0","489"
"14","14","encoding","encoding","16","H31.jpg","3",".","37","0","396"
"14","14","encoding","encoding","17","H12.jpg","3",".","37","0","309"
"14","14","encoding","encoding","18","G55.jpg","1",".","37","0","406"
"14","14","encoding","encoding","19","G6.jpg","1",".","37","0","296"
"14","14","encoding","encoding","20","H17.jpg","3",".","37","0","259"
"14","14","encoding","encoding","21","H0.jpg","3",".","37","0","319"
"14","14","encoding","encoding","22","H54.jpg","3",".","37","0","264"
"14","14","encoding","encoding","23","H24.jpg","3",".","37","0","520"
"14","14","encoding","encoding","24","H11.jpg","3",".","37","0","340"
"14","14","encoding","encoding","25","H41.jpg","3",".","37","0","309"
"14","14","encoding","encoding","26","H62.jpg","3",".","37","0","392"
"14","14","encoding","encoding","27","G47.jpg","1",".","37","0","371"
"14","14","encoding","encoding","28","H22.jpg","3",".","37","0","286"
"14","14","encoding","encoding","29","H11.jpg","3",".","37","0","293"
"14","14","encoding","encoding","30","H5.jpg","3",".","37","0","358"
"14","14","encoding","encoding","31","H1.jpg","3",".","37","0","413"
"14","14","encoding","encoding","32","H50.jpg","3",".","37","0","491"
"14","14","encoding","encoding","33","H45.jpg","3",".","37","0","404"
"14","14","encoding","encoding","34","H38.jpg","3",".","37","0","372"
"14","14","encoding","encoding","35","H24.jpg","3",".","37","0","404"
"14","14","encoding","encoding","36","H16.jpg","3",".","37","0","489"
"14","14","encoding","encoding","37","H44.jpg","3",".","37","0","433"
"14","14","encoding","encoding","38","H63.jpg","3",".","37","0","438"
"14","14","encoding","encoding","39","H8.jpg","3",".","37","0","381"
"14","14","encoding","encoding","40","G30.jpg","1",".","37","0","355"
"14","14","encoding","encoding","41","G39.jpg","1",".","37","0","481"
"14","14","encoding","encoding","42","G34.jpg","1",".","37","0","448"
"14","14","encoding","encoding","43","G4.jpg","1",".","37","0","414"
"14","14","encoding","encoding","44","H72.jpg","3",".","37","0","302"
"14","14","encoding","encoding","45","G43.jpg","1",".","37","0","374"
"14","14","encoding","encoding","46","G36.jpg","1",".","37","0","451"
"14","14","encoding","encoding","47","H19.jpg","3",".","37","0","317"
"14","14","encoding","encoding","48","H57.jpg","3",".","37","0","364"
"14","14","encoding","encoding","49","G15.jpg","1",".","36","0","684"
"14","14","encoding","encoding","50","H66.jpg","3",".","37","0","516"
"14","14","encoding","encoding","51","H7.jpg","3",".","36","0","750"
"14","14","encoding","encoding","52","G44.jpg","1",".","37","0","515"
"14","14","encoding","encoding","53","H48.jpg","3",".","37","0","448"
"14","14","encoding","encoding","54","G49.jpg","1",".","37","0","659"
"14","14","encoding","encoding","55","H43.jpg","3",".","37","0","595"
"14","14","encoding","encoding","56","H21.jpg","3",".","37","0","468"
"14","14","encoding","encoding","57","H47.jpg","3",".","37","0","387"
"14","14","encoding","encoding","58","H54.jpg","3",".","36","0","438"
"14","14","encoding","encoding","59","H13.jpg","3",".","37","0","588"
"14","14","encoding","encoding","60","H75.jpg","3",".","37","0","444"
"14","14","encoding","encoding","61","H79.jpg","3",".","37","0","337"
"14","14","encoding","encoding","62","H39.jpg","3",".","37","0","419"
"14","14","encoding","encoding","63","G11.jpg","1",".","37","0","623"
"14","14","encoding","encoding","64","H51.jpg","3",".","37","0","367"
"14","14","encoding","encoding","65","H66.jpg","3",".","37","0","385"
"14","14","encoding","encoding","67","H48.jpg","3",".","0","0","1000"
"14","14","encoding","encoding","68","H59.jpg","3",".","0","0","1000"
"14","14","encoding","encoding","69","H13.jpg","3",".","0","0","1000"
"14","14","encoding","encoding","70","H37.jpg","3",".","0","0","1000"
"14","14","encoding","encoding","71","H13.jpg","3",".","37","0","252"
"14","14","encoding","encoding","72","H71.jpg","3",".","37","0","359"
"14","14","encoding","encoding","73","H55.jpg","3",".","37","0","432"
"14","14","encoding","encoding","74","G42.jpg","1",".","36","0","534"
"14","14","encoding","encoding","75","H62.jpg","3",".","37","0","376"
"14","14","encoding","encoding","76","H70.jpg","3",".","37","0","574"
"14","14","encoding","encoding","77","G72.jpg","1",".","37","0","389"
"14","14","encoding","encoding","78","H68.jpg","3",".","37","0","363"
"14","14","encoding","encoding","79","G60.jpg","1",".","37","0","336"
"14","14","encoding","encoding","80","G48.jpg","1",".","37","0","503"
"14","14","encoding","encoding","81","H30.jpg","3",".","37","0","448"
"14","14","encoding","encoding","82","H9.jpg","3",".","37","0","466"
"14","14","encoding","encoding","83","H40.jpg","3",".","37","0","402"
"14","14","encoding","encoding","84","H15.jpg","3",".","37","0","485"
"14","14","encoding","encoding","85","H49.jpg","3",".","37","0","548"
"14","14","encoding","encoding","86","H43.jpg","3",".","37","0","504"
"14","14","encoding","encoding","87","H71.jpg","3",".","37","0","426"
"14","14","encoding","encoding","88","H28.jpg","3",".","36","0","520"
"14","14","encoding","encoding","89","H41.jpg","3",".","37","0","571"
"14","14","encoding","encoding","90","H65.jpg","3",".","37","0","785"
"14","14","encoding","encoding","91","H3.jpg","3",".","37","0","400"
"14","14","encoding","encoding","92","H32.jpg","3",".","37","0","467"
"14","14","encoding","encoding","93","H60.jpg","3",".","37","0","452"
"14","14","encoding","encoding","94","H30.jpg","3",".","37","0","440"
"14","14","encoding","encoding","95","G1.jpg","1",".","37","0","504"
"14","14","encoding","encoding","96","H4.jpg","3",".","0","0","1000"
"14","14","encoding","encoding","97","G35.jpg","1",".","37","0","544"
"14","14","encoding","encoding","98","H16.jpg","3",".","37","0","587"
"14","14","encoding","encoding","99","G17.jpg","1",".","37","0","697"
"14","14","encoding","encoding","100","H44.jpg","3",".","37","0","637"
"14","14","encoding","encoding","101","H25.jpg","3",".","37","0","527"
"14","14","encoding","encoding","102","H79.jpg","3",".","37","0","383"
"14","14","encoding","encoding","103","G38.jpg","1",".","37","0","646"
"14","14","encoding","encoding","104","H39.jpg","3",".","37","0","354"
"14","14","encoding","encoding","105","H31.jpg","3",".","37","0","492"
"14","14","encoding","encoding","106","G75.jpg","1",".","36","0","650"
"14","14","encoding","encoding","107","H55.jpg","3",".","36","0","598"
"14","14","encoding","encoding","108","H26.jpg","3",".","37","0","783"
"14","14","encoding","encoding","109","H61.jpg","3",".","37","0","654"
"14","14","encoding","encoding","110","H72.jpg","3",".","37","0","425"
"14","14","encoding","encoding","111","G77.jpg","1",".","37","0","447"
"14","14","encoding","encoding","112","H54.jpg","3",".","36","0","536"
"14","14","encoding","encoding","113","H14.jpg","3",".","37","0","521"
"14","14","encoding","encoding","114","H78.jpg","3",".","37","0","542"
"14","14","encoding","encoding","115","H28.jpg","3",".","36","0","556"
"14","14","encoding","encoding","116","G21.jpg","1",".","37","0","560"
"14","14","encoding","encoding","117","H20.jpg","3",".","37","0","604"
"14","14","encoding","encoding","118","H30.jpg","3",".","37","0","573"
"14","14","encoding","encoding","119","G51.jpg","1",".","37","0","327"
"14","14","encoding","encoding","120","H64.jpg","3",".","36","0","746"
"14","14","encoding","encoding","121","H15.jpg","3",".","37","0","444"
"14","14","encoding","encoding","122","H1.jpg","3",".","36","0","705"
"14","14","encoding","encoding","123","H19.jpg","3",".","37","0","779"
"14","14","encoding","encoding","124","H12.jpg","3",".","37","0","464"
"14","14","encoding","encoding","125","G45.jpg","1",".","37","0","502"
"14","14","encoding","encoding","126","H45.jpg","3",".","37","0","534"
"14","14","encoding","encoding","127","H68.jpg","3",".","37","0","523"
"14","14","encoding","encoding","128","H78.jpg","3",".","37","0","545"
"14","14","encoding","encoding","129","H29.jpg","3",".","37","0","572"
"14","14","encoding","encoding","130","H26.jpg","3",".","37","0","465"
"14","14","encoding","encoding","131","H9.jpg","3",".","37","0","461"
"14","14","encoding","encoding","133","H15.jpg","3",".","37","0","692"
"14","14","encoding","encoding","134","H25.jpg","3",".","37","0","423"
"14","14","encoding","encoding","135","H4.jpg","3",".","37","0","500"
"14","14","encoding","encoding","136","H6.jpg","3",".","37","0","659"
"14","14","encoding","encoding","137","H33.jpg","3",".","37","0","416"
"14","14","encoding","encoding","138","H37.jpg","3",".","37","0","533"
"14","14","encoding","encoding","139","H53.jpg","3",".","37","0","743"
"14","14","encoding","encoding","140","G16.jpg","1",".","37","0","692"
"14","14","encoding","encoding","141","H56.jpg","3",".","37","0","476"
"14","14","encoding","encoding","142","G13.jpg","1",".","37","0","710"
"14","14","encoding","encoding","143","G62.jpg","1",".","37","0","558"
"14","14","encoding","encoding","144","H19.jpg","3",".","37","0","626"
"14","14","encoding","encoding","145","G0.jpg","1",".","37","0","509"
"14","14","encoding","encoding","146","H74.jpg","3",".","37","0","609"
"14","14","encoding","encoding","147","H40.jpg","3",".","37","0","482"
"14","14","encoding","encoding","148","H64.jpg","3",".","37","0","462"
"14","14","encoding","encoding","149","H62.jpg","3",".","36","0","889"
"14","14","encoding","encoding","150","G52.jpg","1",".","37","0","589"
"14","14","encoding","encoding","151","G24.jpg","1",".","37","0","523"
"14","14","encoding","encoding","152","G56.jpg","1",".","37","0","524"
"14","14","encoding","encoding","153","G40.jpg","1",".","37","0","415"
"14","14","encoding","encoding","154","G28.jpg","1",".","37","0","440"
"14","14","encoding","encoding","155","G64.jpg","1",".","37","0","472"
"14","14","encoding","encoding","156","H31.jpg","3",".","37","0","503"
"14","14","encoding","encoding","157","H18.jpg","3",".","37","0","441"
"14","14","encoding","encoding","158","H52.jpg","3",".","37","0","483"
"14","14","encoding","encoding","159","H47.jpg","3",".","37","0","437"
"14","14","encoding","encoding","160","H2.jpg","3",".","37","0","424"
"14","14","encoding","encoding","161","G46.jpg","1",".","37","0","561"
"14","14","encoding","encoding","162","H50.jpg","3",".","37","0","520"
"14","14","encoding","encoding","163","H68.jpg","3",".","37","0","507"
"14","14","encoding","encoding","164","G61.jpg","1",".","37","0","525"
"14","14","encoding","encoding","165","H33.jpg","3",".","37","0","425"
"14","14","encoding","encoding","166","H4.jpg","3",".","37","0","464"
"14","14","encoding","encoding","167","H34.jpg","3",".","37","0","826"
"14","14","encoding","encoding","168","H42.jpg","3",".","37","0","559"
"14","14","encoding","encoding","169","H65.jpg","3",".","37","0","425"
"14","14","encoding","encoding","170","H73.jpg","3",".","37","0","388"
"14","14","encoding","encoding","171","H2.jpg","3",".","37","0","436"
"14","14","encoding","encoding","172","G68.jpg","1",".","37","0","445"
"14","14","encoding","encoding","173","H36.jpg","3",".","37","0","542"
"14","14","encoding","encoding","174","H60.jpg","3",".","37","0","478"
"14","14","encoding","encoding","175","H66.jpg","3",".","37","0","453"
"14","14","encoding","encoding","176","H70.jpg","3",".","37","0","662"
"14","14","encoding","encoding","177","H0.jpg","3",".","37","0","425"
"14","14","encoding","encoding","178","H38.jpg","3",".","37","0","477"
"14","14","encoding","encoding","179","H17.jpg","3",".","37","0","366"
"14","14","encoding","encoding","180","H34.jpg","3",".","37","0","500"
"14","14","encoding","encoding","181","G66.jpg","1",".","37","0","424"
"14","14","encoding","encoding","182","G8.jpg","1",".","37","0","451"
"14","14","encoding","encoding","183","H8.jpg","3",".","37","0","387"
"14","14","encoding","encoding","184","G33.jpg","1",".","37","0","394"
"14","14","encoding","encoding","185","G78.jpg","1",".","37","0","509"
"14","14","encoding","encoding","186","H42.jpg","3",".","37","0","435"
"14","14","encoding","encoding","187","G23.jpg","1",".","37","0","341"
"14","14","encoding","encoding","188","H46.jpg","3",".","37","0","426"
"14","14","encoding","encoding","189","H5.jpg","3",".","37","0","390"
"14","14","encoding","encoding","190","G73.jpg","1",".","37","0","425"
"14","14","encoding","encoding","191","H73.jpg","3",".","37","0","418"
"14","14","encoding","encoding","192","H14.jpg","3",".","37","0","331"
"14","14","encoding","encoding","193","H53.jpg","3",".","37","0","360"
"14","14","encoding","encoding","194","H56.jpg","3",".","37","0","260"
"14","14","encoding","encoding","195","H1.jpg","3",".","37","0","499"
"14","14","encoding","encoding","196","G63.jpg","1",".","0","0","1000"
"14","14","encoding","encoding","197","H2.jpg","3",".","37","0","531"
"14","14","encoding","encoding","199","H9.jpg","3",".","0","0","1000"
"14","14","encoding","encoding","200","H63.jpg","3",".","37","0","768"
"14","14","encoding","encoding","201","H3.jpg","3",".","37","0","473"
"14","14","encoding","encoding","202","G37.jpg","1",".","37","0","480"
"14","14","encoding","encoding","203","H34.jpg","3",".","37","0","496"
"14","14","encoding","encoding","204","H39.jpg","3",".","37","0","750"
"14","14","encoding","encoding","205","H69.jpg","3",".","37","0","324"
"14","14","encoding","encoding","206","H77.jpg","3",".","37","0","625"
"14","14","encoding","encoding","207","G27.jpg","1",".","37","0","604"
"14","14","encoding","encoding","208","H79.jpg","3",".","37","0","501"
"14","14","encoding","encoding","209","G3.jpg","1",".","37","0","448"
"14","14","encoding","encoding","210","G5.jpg","1",".","37","0","451"
"14","14","encoding","encoding","211","H22.jpg","3",".","37","0","556"
"14","14","encoding","encoding","212","H43.jpg","3",".","37","0","495"
"14","14","encoding","encoding","213","H47.jpg","3",".","37","0","953"
"14","14","encoding","encoding","214","G26.jpg","1",".","37","0","458"
"14","14","encoding","encoding","215","H46.jpg","3",".","37","0","368"
"14","14","encoding","encoding","216","H61.jpg","3",".","37","0","446"
"14","14","encoding","encoding","217","H20.jpg","3",".","37","0","443"
"14","14","encoding","encoding","218","H10.jpg","3",".","37","0","435"
"14","14","encoding","encoding","219","H7.jpg","3",".","37","0","474"
"14","14","encoding","encoding","220","G50.jpg","1",".","37","0","470"
"14","14","encoding","encoding","221","H25.jpg","3",".","37","0","827"
"14","14","encoding","encoding","222","H72.jpg","3",".","37","0","434"
"14","14","encoding","encoding","223","H56.jpg","3",".","37","0","471"
"14","14","encoding","encoding","224","H20.jpg","3",".","37","0","375"
"14","14","encoding","encoding","225","G58.jpg","1",".","37","0","319"
"14","14","encoding","encoding","226","G2.jpg","1",".","37","0","535"
"14","14","encoding","encoding","227","G74.jpg","1",".","37","0","531"
"14","14","encoding","encoding","228","H16.jpg","3",".","37","0","470"
"14","14","encoding","encoding","229","H18.jpg","3",".","37","0","377"
"14","14","encoding","encoding","230","H8.jpg","3",".","0","0","1000"
"14","14","encoding","encoding","231","H40.jpg","3",".","37","0","350"
"14","14","encoding","encoding","232","H26.jpg","3",".","37","0","216"
"14","14","encoding","encoding","233","H77.jpg","3",".","37","0","480"
"14","14","encoding","encoding","234","H35.jpg","3",".","37","0","314"
"14","14","encoding","encoding","235","G29.jpg","1",".","37","0","387"
"14","14","encoding","encoding","236","H5.jpg","3",".","37","0","350"
"14","14","encoding","encoding","237","H36.jpg","3",".","37","0","353"
"14","14","encoding","encoding","238","H74.jpg","3",".","37","0","671"
"14","14","encoding","encoding","239","H50.jpg","3",".","37","0","393"
"14","14","encoding","encoding","240","H33.jpg","3",".","37","0","385"
"14","14","encoding","encoding","241","H71.jpg","3",".","37","0","510"
"14","14","encoding","encoding","242","H27.jpg","3",".","37","0","244"
"14","14","encoding","encoding","243","H67.jpg","3",".","37","0","550"
"14","14","encoding","encoding","244","H27.jpg","3",".","37","0","370"
"14","14","encoding","encoding","245","H48.jpg","3",".","37","0","331"
"14","14","encoding","encoding","246","H61.jpg","3",".","37","0","309"
"14","14","encoding","encoding","247","G18.jpg","1",".","37","0","403"
"14","14","encoding","encoding","248","G54.jpg","1",".","37","0","457"
"14","14","encoding","encoding","249","H63.jpg","3",".","37","0","640"
"14","14","encoding","encoding","250","G67.jpg","1",".","37","0","376"
"14","14","encoding","encoding","251","G22.jpg","1",".","37","0","397"
"14","14","encoding","encoding","252","G79.jpg","1",".","37","0","387"
"14","14","encoding","encoding","253","G69.jpg","1",".","37","0","342"
"14","14","encoding","encoding","254","G20.jpg","1",".","37","0","358"
"14","14","encoding","encoding","255","H12.jpg","3",".","37","0","271"
"14","14","encoding","encoding","256","H78.jpg","3",".","37","0","374"
"14","14","encoding","encoding","257","H23.jpg","3",".","37","0","361"
"14","14","encoding","encoding","258","H58.jpg","3",".","37","0","424"
"14","14","encoding","encoding","259","H76.jpg","3",".","37","0","404"
"14","14","encoding","encoding","260","H52.jpg","3",".","37","0","447"
"14","14","encoding","encoding","261","G76.jpg","1",".","37","0","444"
"14","14","encoding","encoding","262","H29.jpg","3",".","37","0","402"
"14","14","encoding","encoding","263","H24.jpg","3",".","37","0","486"
"14","14","encoding","encoding","265","H64.jpg","3",".","0","0","1000"
"14","14","encoding","encoding","266","H32.jpg","3",".","0","0","1000"
"14","14","encoding","encoding","267","H42.jpg","3",".","0","0","1000"
"14","14","encoding","encoding","268","G7.jpg","1",".","37","0","366"
"14","14","encoding","encoding","269","G9.jpg","1",".","37","0","474"
"14","14","encoding","encoding","270","H59.jpg","3",".","37","0","444"
"14","14","encoding","encoding","271","H76.jpg","3",".","37","0","442"
"14","14","encoding","encoding","272","H32.jpg","3",".","37","0","429"
"14","14","encoding","encoding","273","H57.jpg","3",".","37","0","355"
"14","14","encoding","encoding","274","H44.jpg","3",".","37","0","490"
"14","14","encoding","encoding","275","H10.jpg","3",".","37","0","518"
"14","14","encoding","encoding","276","H21.jpg","3",".","37","0","428"
"14","14","encoding","encoding","277","H58.jpg","3",".","37","0","635"
"14","14","encoding","encoding","278","H37.jpg","3",".","37","0","405"
"14","14","encoding","encoding","279","H18.jpg","3",".","37","0","435"
"14","14","encoding","encoding","280","H41.jpg","3",".","37","0","632"
"14","14","encoding","encoding","281","G10.jpg","1",".","37","0","535"
"14","14","encoding","encoding","282","H74.jpg","3",".","37","0","369"
"14","14","encoding","encoding","283","G65.jpg","1",".","37","0","390"
"14","14","encoding","encoding","284","H65.jpg","3",".","37","0","359"
"14","14","encoding","encoding","285","H35.jpg","3",".","37","0","647"
"14","14","encoding","encoding","286","H55.jpg","3",".","37","0","412"
"14","14","encoding","encoding","287","H57.jpg","3",".","37","0","372"
"14","14","encoding","encoding","288","H3.jpg","3",".","37","0","370"
"14","14","encoding","encoding","289","H49.jpg","3",".","37","0","458"
"14","14","encoding","encoding","290","H21.jpg","3",".","37","0","360"
"14","14","encoding","encoding","291","H59.jpg","3",".","37","0","397"
"14","14","encoding","encoding","292","H36.jpg","3",".","37","0","547"
"14","14","encoding","encoding","293","H77.jpg","3",".","37","0","384"
"14","14","encoding","encoding","294","G14.jpg","1",".","37","0","926"
"14","14","encoding","encoding","295","H23.jpg","3",".","37","0","296"
"14","14","encoding","encoding","296","G25.jpg","1",".","37","0","369"
"14","14","encoding","encoding","297","H67.jpg","3",".","37","0","294"
"14","14","encoding","encoding","298","H58.jpg","3",".","37","0","324"
"14","14","encoding","encoding","299","G12.jpg","1",".","0","0","1000"
"14","14","encoding","encoding","300","G71.jpg","1",".","37","0","398"
"14","14","encoding","encoding","301","H46.jpg","3",".","37","0","494"
"14","14","encoding","encoding","302","H49.jpg","3",".","37","0","377"
"14","14","encoding","encoding","303","H73.jpg","3",".","37","0","362"
"14","14","encoding","encoding","304","H69.jpg","3",".","37","0","410"
"14","14","encoding","encoding","305","H75.jpg","3",".","37","0","267"
"14","14","encoding","encoding","306","H11.jpg","3",".","37","0","437"
"14","14","encoding","encoding","307","H52.jpg","3",".","37","0","452"
"14","14","encoding","encoding","308","G31.jpg","1",".","37","0","296"
"14","14","encoding","encoding","309","H7.jpg","3",".","37","0","405"
"14","14","encoding","encoding","310","H76.jpg","3",".","37","0","387"
"14","14","encoding","encoding","311","G19.jpg","1",".","37","0","386"
"14","14","encoding","encoding","312","G32.jpg","1",".","37","0","416"
"14","14","encoding","encoding","313","H60.jpg","3",".","37","0","491"
"14","14","encoding","encoding","314","H45.jpg","3",".","37","0","270"
"14","14","encoding","encoding","315","H75.jpg","3",".","37","0","345"
"14","14","encoding","encoding","316","H6.jpg","3",".","37","0","552"
"14","14","encoding","encoding","317","H28.jpg","3",".","37","0","336"
"14","14","encoding","encoding","318","H51.jpg","3",".","37","0","584"
"14","14","encoding","encoding","319","H70.jpg","3",".","37","0","991"
"14","14","encoding","encoding","320","G59.jpg","1",".","37","0","789"
"14","14","encoding","encoding","321","H0.jpg","3",".","37","0","711"
"14","14","encoding","encoding","322","H35.jpg","3",".","0","0","1000"
"14","14","encoding","encoding","323","H38.jpg","3",".","37","0","414"
"14","14","encoding","encoding","324","H14.jpg","3",".","37","0","454"
"14","14","encoding","encoding","325","G53.jpg","",".","37","0","344"
"14","14","retrieval","new_object","1","E15.jpg",".",".","36","0","1121"
"14","14","retrieval","new_object","2","F69.jpg",".",".","37","1","804"
"14","14","retrieval","new_object","3","E40.jpg",".",".","36","0","670"
"14","14","retrieval","old_object","4","G44.jpg",".","1","36","1","1019"
"14","14","retrieval","new_object","5","F11.jpg",".",".","36","0","972"
"14","14","retrieval","old_object","6","H55.jpg",".","3","36","1","763"
"14","14","retrieval","old_object","7","G26.jpg",".","1","36","1","780"
"14","14","retrieval","old_object","8","H16.jpg",".","3","36","1","798"
"14","14","retrieval","new_object","9","E64.jpg",".",".","37","1","716"
"14","14","retrieval","old_object","10","H31.jpg",".","3","36","1","823"
"14","14","retrieval","new_object","11","F33.jpg",".",".","37","1","609"
"14","14","retrieval","new_object","12","E75.jpg",".",".","37","1","640"
"14","14","retrieval","old_object","13","G37.jpg",".","1","37","0","862"
"14","14","retrieval","new_object","14","E18.jpg",".",".","37","1","637"
"14","14","retrieval","old_object","15","G22.jpg",".","1","37","0","493"
"14","14","retrieval","old_object","16","G36.jpg",".","1","36","1","1070"
"14","14","retrieval","new_object","17","E43.jpg",".",".","37","1","811"
"14","14","retrieval","new_object","18","F17.jpg",".",".","37","1","798"
"14","14","retrieval","old_object","19","G3.jpg",".","1","37","0","730"
"14","14","retrieval","new_object","20","F16.jpg",".",".","37","1","982"
"14","14","retrieval","new_object","21","F22.jpg",".",".","37","1","768"
"14","14","retrieval","new_object","22","F57.jpg",".",".","37","1","651"
"14","14","retrieval","new_object","23","F44.jpg",".",".","37","1","885"
"14","14","retrieval","old_object","24","G23.jpg",".","1","36","1","833"
"14","14","retrieval","old_object","25","G30.jpg",".","1","36","1","699"
"14","14","retrieval","new_object","26","E77.jpg",".",".","37","1","983"
"14","14","retrieval","old_object","27","H74.jpg",".","3","36","1","732"
"14","14","retrieval","old_object","28","G56.jpg",".","1","36","1","684"
"14","14","retrieval","new_object","29","F10.jpg",".",".","37","1","722"
"14","14","retrieval","new_object","30","F79.jpg",".",".","37","1","852"
"14","14","retrieval","new_object","31","F34.jpg",".",".","37","1","756"
"14","14","retrieval","new_object","32","E4.jpg",".",".","37","1","878"
"14","14","retrieval","new_object","33","F73.jpg",".",".","37","1","654"
"14","14","retrieval","old_object","34","G68.jpg",".","1","36","1","994"
"14","14","retrieval","new_object","35","E2.jpg",".",".","37","1","789"
"14","14","retrieval","old_object","36","H22.jpg",".","3","37","0","860"
"14","14","retrieval","old_object","37","H20.jpg",".","3","36","1","902"
"14","14","retrieval","new_object","38","F24.jpg",".",".","37","1","729"
"14","14","retrieval","old_object","39","H34.jpg",".","3","36","1","771"
"14","14","retrieval","old_object","40","G21.jpg",".","1","36","1","864"
"14","14","retrieval","new_object","41","E53.jpg",".",".","37","1","727"
"14","14","retrieval","new_object","42","E30.jpg",".",".","36","0","1041"
"14","14","retrieval","new_object","43","F72.jpg",".",".","37","1","751"
"14","14","retrieval","new_object","44","E74.jpg",".",".","37","1","791"
"14","14","retrieval","new_object","45","F77.jpg",".",".","37","1","779"
"14","14","retrieval","old_object","46","H67.jpg",".","3","37","0","864"
"14","14","retrieval","new_object","47","E10.jpg",".",".","37","1","838"
"14","14","retrieval","new_object","48","E20.jpg",".",".","37","1","689"
"14","14","retrieval","new_object","49","F26.jpg",".",".","37","1","810"
"14","14","retrieval","old_object","50","G17.jpg",".","1","37","0","891"
"14","14","retrieval","new_object","51","E47.jpg",".",".","37","1","795"
"14","14","retrieval","new_object","52","F67.jpg",".",".","37","1","791"
"14","14","retrieval","old_object","53","G60.jpg",".","1","36","1","977"
"14","14","retrieval","old_object","54","H52.jpg",".","3","37","0","678"
"14","14","retrieval","old_object","55","H60.jpg",".","3","36","1","941"
"14","14","retrieval","new_object","56","E56.jpg",".",".","37","1","767"
"14","14","retrieval","old_object","57","G51.jpg",".","1","36","1","858"
"14","14","retrieval","old_object","58","H33.jpg",".","3","36","1","641"
"14","14","retrieval","old_object","59","G74.jpg",".","1","36","1","819"
"14","14","retrieval","old_object","60","H14.jpg",".","3","36","1","577"
"14","14","retrieval","old_object","61","G35.jpg",".","1","37","0","716"
"14","14","retrieval","old_object","62","H37.jpg",".","3","36","1","750"
"14","14","retrieval","old_object","63","G54.jpg",".","1","36","1","731"
"14","14","retrieval","old_object","64","G41.jpg",".","1","36","1","823"
"14","14","retrieval","old_object","65","G11.jpg",".","1","36","1","1076"
"14","14","retrieval","new_object","67","E21.jpg",".",".","0","0","2000"
"14","14","retrieval","new_object","68","E22.jpg",".",".","0","0","2000"
"14","14","retrieval","old_object","69","G5.jpg",".","1","0","0","2000"
"14","14","retrieval","new_object","70","E55.jpg",".",".","0","0","2000"
"14","14","retrieval","new_object","71","F5.jpg",".",".","0","0","2000"
"14","14","retrieval","new_object","72","E31.jpg",".",".","0","0","2000"
"14","14","retrieval","new_object","73","E73.jpg",".",".","0","0","2000"
"14","14","retrieval","old_object","74","G46.jpg",".","1","0","0","2000"
"14","14","retrieval","old_object","75","H6.jpg",".","3","36","1","779"
"14","14","retrieval","old_object","76","G6.jpg",".","1","36","1","824"
"14","14","retrieval","new_object","77","F68.jpg",".",".","37","1","726"
"14","14","retrieval","new_object","78","F6.jpg",".",".","37","1","722"
"14","14","retrieval","old_object","79","H17.jpg",".","3","36","1","712"
"14","14","retrieval","old_object","80","G42.jpg",".","1","36","1","710"
"14","14","retrieval","new_object","81","E29.jpg",".",".","37","1","1274"
"14","14","retrieval","old_object","82","H56.jpg",".","3","36","1","886"
"14","14","retrieval","old_object","83","G49.jpg",".","1","37","0","854"
"14","14","retrieval","old_object","84","H51.jpg",".","3","36","1","713"
"14","14","retrieval","new_object","85","F8.jpg",".",".","37","1","793"
"14","14","retrieval","new_object","86","E58.jpg",".",".","37","1","652"
"14","14","retrieval","old_object","87","H78.jpg",".","3","36","1","753"
"14","14","retrieval","old_object","88","G50.jpg",".","1","36","1","675"
"14","14","retrieval","old_object","89","G65.jpg",".","1","36","1","696"
"14","14","retrieval","new_object","90","E27.jpg",".",".","37","1","828"
"14","14","retrieval","old_object","91","H64.jpg",".","3","36","1","685"
"14","14","retrieval","new_object","92","E26.jpg",".",".","37","1","839"
"14","14","retrieval","new_object","93","F36.jpg",".",".","37","1","998"
"14","14","retrieval","old_object","94","G0.jpg",".","1","36","1","924"
"14","14","retrieval","old_object","95","H4.jpg",".","3","36","1","641"
"14","14","retrieval","old_object","96","G63.jpg",".","1","36","1","1226"
"14","14","retrieval","new_object","97","E68.jpg",".",".","37","1","790"
"14","14","retrieval","old_object","98","G69.jpg",".","1","36","1","714"
"14","14","retrieval","new_object","99","F59.jpg",".",".","37","1","747"
"14","14","retrieval","old_object","100","G19.jpg",".","1","36","1","922"
"14","14","retrieval","old_object","101","H70.jpg",".","3","36","1","869"
"14","14","retrieval","new_object","102","E49.jpg",".",".","37","1","945"
"14","14","retrieval","new_object","103","E13.jpg",".",".","37","1","708"
"14","14","retrieval","old_object","104","H43.jpg",".","3","36","1","784"
"14","14","retrieval","old_object","105","G28.jpg",".","1","36","1","998"
"14","14","retrieval","new_object","106","E24.jpg",".",".","37","1","895"
"14","14","retrieval","old_object","107","H71.jpg",".","3","36","1","1302"
"14","14","retrieval","new_object","108","F28.jpg",".",".","37","1","635"
"14","14","retrieval","old_object","109","H58.jpg",".","3","36","1","877"
"14","14","retrieval","old_object","110","H5.jpg",".","3","36","1","836"
"14","14","retrieval","old_object","111","H13.jpg",".","3","36","1","865"
"14","14","retrieval","new_object","112","F47.jpg",".",".","37","1","979"
"14","14","retrieval","new_object","113","E41.jpg",".",".","37","1","743"
"14","14","retrieval","old_object","114","G61.jpg",".","1","36","1","692"
"14","14","retrieval","old_object","115","H32.jpg",".","3","36","1","711"
"14","14","retrieval","old_object","116","G15.jpg",".","1","36","1","771"
"14","14","retrieval","new_object","117","E59.jpg",".",".","37","1","1082"
"14","14","retrieval","new_object","118","E70.jpg",".",".","37","1","881"
"14","14","retrieval","old_object","119","H21.jpg",".","3","36","1","929"
"14","14","retrieval","old_object","120","H42.jpg",".","3","36","1","1060"
"14","14","retrieval","old_object","121","G52.jpg",".","1","37","0","607"
"14","14","retrieval","new_object","122","E54.jpg",".",".","37","1","873"
"14","14","retrieval","old_object","123","H57.jpg",".","3","36","1","1035"
"14","14","retrieval","new_object","124","E51.jpg",".",".","37","1","877"
"14","14","retrieval","new_object","125","E7.jpg",".",".","37","1","804"
"14","14","retrieval","old_object","126","H29.jpg",".","3","36","1","857"
"14","14","retrieval","new_object","127","F9.jpg",".",".","37","1","801"
"14","14","retrieval","old_object","128","H35.jpg",".","3","36","1","797"
"14","14","retrieval","new_object","129","E42.jpg",".",".","37","1","813"
"14","14","retrieval","new_object","130","E44.jpg",".",".","37","1","767"
"14","14","retrieval","old_object","131","H75.jpg",".","3","36","1","680"
"14","14","retrieval","old_object","133","H23.jpg",".","3","0","0","2000"
"14","14","retrieval","new_object","134","F18.jpg",".",".","37","1","664"
"14","14","retrieval","new_object","135","F1.jpg",".",".","37","1","639"
"14","14","retrieval","old_object","136","H18.jpg",".","3","36","1","801"
"14","14","retrieval","old_object","137","G14.jpg",".","1","36","1","811"
"14","14","retrieval","new_object","138","F31.jpg",".",".","36","0","718"
"14","14","retrieval","old_object","139","H77.jpg",".","3","37","0","887"
"14","14","retrieval","old_object","140","H27.jpg",".","3","36","1","604"
"14","14","retrieval","old_object","141","G72.jpg",".","1","37","0","966"
"14","14","retrieval","new_object","142","E33.jpg",".",".","37","1","860"
"14","14","retrieval","old_object","143","G77.jpg",".","1","37","0","953"
"14","14","retrieval","new_object","144","F71.jpg",".",".","37","1","892"
"14","14","retrieval","old_object","145","G18.jpg",".","1","36","1","1085"
"14","14","retrieval","old_object","146","H53.jpg",".","3","36","1","803"
"14","14","retrieval","old_object","147","G7.jpg",".","1","36","1","1034"
"14","14","retrieval","old_object","148","G66.jpg",".","1","37","0","1158"
"14","14","retrieval","new_object","149","F23.jpg",".",".","37","1","919"
"14","14","retrieval","old_object","150","H47.jpg",".","3","36","1","733"
"14","14","retrieval","old_object","151","H11.jpg",".","3","36","1","686"
"14","14","retrieval","old_object","152","G24.jpg",".","1","36","1","1042"
"14","14","retrieval","old_object","153","G39.jpg",".","1","37","0","892"
"14","14","retrieval","new_object","154","E62.jpg",".",".","37","1","721"
"14","14","retrieval","old_object","155","H40.jpg",".","3","37","0","1393"
"14","14","retrieval","new_object","156","E28.jpg",".",".","37","1","718"
"14","14","retrieval","old_object","157","H30.jpg",".","3","36","1","752"
"14","14","retrieval","old_object","158","G27.jpg",".","1","37","0","852"
"14","14","retrieval","new_object","159","E34.jpg",".",".","37","1","797"
"14","14","retrieval","new_object","160","E61.jpg",".",".","37","1","813"
"14","14","retrieval","new_object","161","F62.jpg",".",".","37","1","858"
"14","14","retrieval","new_object","162","F75.jpg",".",".","37","1","1042"
"14","14","retrieval","old_object","163","H0.jpg",".","3","36","1","824"
"14","14","retrieval","new_object","164","F19.jpg",".",".","37","1","646"
"14","14","retrieval","new_object","165","F61.jpg",".",".","37","1","1077"
"14","14","retrieval","new_object","166","E1.jpg",".",".","37","1","593"
"14","14","retrieval","new_object","167","E78.jpg",".",".","37","1","703"
"14","14","retrieval","old_object","168","G20.jpg",".","1","37","0","778"
"14","14","retrieval","new_object","169","E8.jpg",".",".","37","1","734"
"14","14","retrieval","old_object","170","G33.jpg",".","1","37","0","745"
"14","14","retrieval","old_object","171","H25.jpg",".","3","37","0","740"
"14","14","retrieval","new_object","172","F48.jpg",".",".","37","1","664"
"14","14","retrieval","old_object","173","H19.jpg",".","3","36","1","880"
"14","14","retrieval","new_object","174","F60.jpg",".",".","37","1","761"
"14","14","retrieval","new_object","175","E11.jpg",".",".","37","1","1133"
"14","14","retrieval","old_object","176","G38.jpg",".","1","37","0","988"
"14","14","retrieval","old_object","177","G32.jpg",".","1","37","0","930"
"14","14","retrieval","new_object","178","F63.jpg",".",".","37","1","743"
"14","14","retrieval","old_object","179","H61.jpg",".","3","36","1","767"
"14","14","retrieval","old_object","180","G4.jpg",".","1","37","0","761"
"14","14","retrieval","old_object","181","H63.jpg",".","3","36","1","769"
"14","14","retrieval","old_object","182","H76.jpg",".","3","36","1","689"
"14","14","retrieval","old_object","183","H69.jpg",".","3","36","1","820"
"14","14","retrieval","old_object","184","G16.jpg",".","1","37","0","606"
"14","14","retrieval","new_object","185","F76.jpg",".",".","36","0","801"
"14","14","retrieval","new_object","186","F42.jpg",".",".","37","1","1276"
"14","14","retrieval","new_object","187","F14.jpg",".",".","37","1","847"
"14","14","retrieval","old_object","188","H8.jpg",".","3","36","1","1103"
"14","14","retrieval","new_object","189","E50.jpg",".",".","36","0","119"
"14","14","retrieval","old_object","190","H49.jpg",".","3","37","0","1236"
"14","14","retrieval","old_object","191","H24.jpg",".","3","36","1","941"
"14","14","retrieval","old_object","192","G2.jpg",".","1","37","0","953"
"14","14","retrieval","old_object","193","H46.jpg",".","3","36","1","757"
"14","14","retrieval","new_object","194","E66.jpg",".",".","37","1","660"
"14","14","retrieval","old_object","195","H73.jpg",".","3","36","1","322"
"14","14","retrieval","new_object","196","E65.jpg",".",".","37","1","986"
"14","14","retrieval","new_object","197","F37.jpg",".",".","37","1","1012"
"14","14","retrieval","new_object","199","E23.jpg",".",".","0","0","2000"
"14","14","retrieval","old_object","200","G31.jpg",".","1","37","0","1395"
"14","14","retrieval","new_object","201","F15.jpg",".",".","37","1","1005"
"14","14","retrieval","old_object","202","H28.jpg",".","3","36","1","822"
"14","14","retrieval","new_object","203","F70.jpg",".",".","37","1","849"
"14","14","retrieval","new_object","204","F51.jpg",".",".","37","1","1039"
"14","14","retrieval","old_object","205","H68.jpg",".","3","36","1","1135"
"14","14","retrieval","new_object","206","F7.jpg",".",".","37","1","1131"
"14","14","retrieval","old_object","207","H1.jpg",".","3","36","1","705"
"14","14","retrieval","new_object","208","E57.jpg",".",".","37","1","691"
"14","14","retrieval","old_object","209","G53.jpg",".","1","37","0","854"
"14","14","retrieval","old_object","210","G79.jpg",".","1","36","1","897"
"14","14","retrieval","old_object","211","H41.jpg",".","3","36","1","888"
"14","14","retrieval","new_object","212","F55.jpg",".",".","37","1","650"
"14","14","retrieval","old_object","213","G58.jpg",".","1","37","0","835"
"14","14","retrieval","new_object","214","F52.jpg",".",".","37","1","775"
"14","14","retrieval","new_object","215","F41.jpg",".",".","37","1","674"
"14","14","retrieval","old_object","216","H12.jpg",".","3","36","1","621"
"14","14","retrieval","old_object","217","H79.jpg",".","3","36","1","695"
"14","14","retrieval","new_object","218","E63.jpg",".",".","37","1","721"
"14","14","retrieval","old_object","219","H44.jpg",".","3","36","1","687"
"14","14","retrieval","old_object","220","G12.jpg",".","1","37","0","600"
"14","14","retrieval","new_object","221","E52.jpg",".",".","37","1","832"
"14","14","retrieval","old_object","222","H3.jpg",".","3","36","1","774"
"14","14","retrieval","new_object","223","E6.jpg",".",".","37","1","858"
"14","14","retrieval","new_object","224","F53.jpg",".",".","37","1","764"
"14","14","retrieval","old_object","225","H36.jpg",".","3","36","1","652"
"14","14","retrieval","old_object","226","H66.jpg",".","3","36","1","744"
"14","14","retrieval","old_object","227","G13.jpg",".","1","36","1","839"
"14","14","retrieval","new_object","228","E38.jpg",".",".","37","1","649"
"14","14","retrieval","old_object","229","H59.jpg",".","3","37","0","533"
"14","14","retrieval","new_object","230","F21.jpg",".",".","37","1","807"
"14","14","retrieval","new_object","231","F66.jpg",".",".","37","1","853"
"14","14","retrieval","old_object","232","H38.jpg",".","3","37","0","1068"
"14","14","retrieval","new_object","233","F50.jpg",".",".","37","1","1089"
"14","14","retrieval","new_object","234","E3.jpg",".",".","37","1","971"
"14","14","retrieval","new_object","235","E25.jpg",".",".","37","1","935"
"14","14","retrieval","new_object","236","F29.jpg",".",".","37","1","1136"
"14","14","retrieval","new_object","237","E45.jpg",".",".","37","1","918"
"14","14","retrieval","old_object","238","G48.jpg",".","1","37","0","657"
"14","14","retrieval","new_object","239","F39.jpg",".",".","37","1","734"
"14","14","retrieval","new_object","240","E32.jpg",".",".","37","1","765"
"14","14","retrieval","new_object","241","E69.jpg",".",".","37","1","516"
"14","14","retrieval","old_object","242","G10.jpg",".","1","36","1","730"
"14","14","retrieval","new_object","243","E9.jpg",".",".","37","1","673"
"14","14","retrieval","old_object","244","H65.jpg",".","3","36","1","916"
"14","14","retrieval","old_object","245","G62.jpg",".","1","37","0","838"
"14","14","retrieval","new_object","246","E72.jpg",".",".","37","1","667"
"14","14","retrieval","new_object","247","F4.jpg",".",".","37","1","609"
"14","14","retrieval","new_object","248","F58.jpg",".",".","37","1","646"
"14","14","retrieval","new_object","249","F78.jpg",".",".","37","1","777"
"14","14","retrieval","new_object","250","E12.jpg",".",".","37","1","947"
"14","14","retrieval","new_object","251","E19.jpg",".",".","37","1","1027"
"14","14","retrieval","new_object","252","E60.jpg",".",".","37","1","772"
"14","14","retrieval","old_object","253","G55.jpg",".","1","36","1","732"
"14","14","retrieval","new_object","254","E17.jpg",".",".","37","1","582"
"14","14","retrieval","old_object","255","G43.jpg",".","1","37","0","773"
"14","14","retrieval","old_object","256","G57.jpg",".","1","36","1","923"
"14","14","retrieval","new_object","257","E67.jpg",".",".","37","1","1056"
"14","14","retrieval","new_object","258","F54.jpg",".",".","37","1","708"
"14","14","retrieval","new_object","259","F20.jpg",".",".","37","1","637"
"14","14","retrieval","new_object","260","F74.jpg",".",".","37","1","754"
"14","14","retrieval","old_object","261","H62.jpg",".","3","36","1","898"
"14","14","retrieval","old_object","262","G78.jpg",".","1","36","1","992"
"14","14","retrieval","old_object","263","H54.jpg",".","3","36","1","632"
"14","14","retrieval","new_object","265","E0.jpg",".",".","0","0","2000"
"14","14","retrieval","new_object","266","E48.jpg",".",".","0","0","2000"
"14","14","retrieval","new_object","267","F13.jpg",".",".","0","0","2000"
"14","14","retrieval","new_object","268","F0.jpg",".",".","0","0","2000"
"14","14","retrieval","new_object","269","F32.jpg",".",".","0","0","2000"
"14","14","retrieval","old_object","270","H50.jpg",".","3","0","0","2000"
"14","14","retrieval","old_object","271","G45.jpg",".","1","37","0","613"
"14","14","retrieval","new_object","272","F46.jpg",".",".","37","1","1881"
"14","14","retrieval","new_object","273","E35.jpg",".",".","37","1","866"
"14","14","retrieval","new_object","274","F40.jpg",".",".","37","1","600"
"14","14","retrieval","old_object","275","G47.jpg",".","1","37","0","593"
"14","14","retrieval","new_object","276","E76.jpg",".",".","37","1","796"
"14","14","retrieval","old_object","277","H15.jpg",".","3","37","0","268"
"14","14","retrieval","new_object","278","F56.jpg",".",".","37","1","651"
"14","14","retrieval","new_object","279","E5.jpg",".",".","37","1","1016"
"14","14","retrieval","old_object","280","G76.jpg",".","1","36","1","1006"
"14","14","retrieval","old_object","281","H2.jpg",".","3","36","1","958"
"14","14","retrieval","new_object","282","E46.jpg",".",".","37","1","766"
"14","14","retrieval","old_object","283","H9.jpg",".","3","36","1","838"
"14","14","retrieval","old_object","284","G25.jpg",".","1","37","0","623"
"14","14","retrieval","old_object","285","G67.jpg",".","1","37","0","928"
"14","14","retrieval","new_object","286","F3.jpg",".",".","37","1","835"
"14","14","retrieval","new_object","287","F35.jpg",".",".","37","1","587"
"14","14","retrieval","old_object","288","H39.jpg",".","3","37","0","872"
"14","14","retrieval","new_object","289","F43.jpg",".",".","37","1","1156"
"14","14","retrieval","new_object","290","F2.jpg",".",".","37","1","708"
"14","14","retrieval","old_object","291","H7.jpg",".","3","0","0","2000"
"14","14","retrieval","old_object","292","G9.jpg",".","1","37","0","1083"
"14","14","retrieval","new_object","293","F45.jpg",".",".","37","1","585"
"14","14","retrieval","new_object","294","F38.jpg",".",".","37","1","623"
"14","14","retrieval","new_object","295","F12.jpg",".",".","37","1","792"
"14","14","retrieval","new_object","296","E14.jpg",".",".","37","1","577"
"14","14","retrieval","old_object","297","G29.jpg",".","1","37","0","1197"
"14","14","retrieval","new_object","298","F65.jpg",".",".","37","1","568"
"14","14","retrieval","old_object","299","H72.jpg",".","3","36","1","795"
"14","14","retrieval","new_object","300","F30.jpg",".",".","37","1","904"
"14","14","retrieval","old_object","301","H48.jpg",".","3","36","1","870"
"14","14","retrieval","old_object","302","G1.jpg",".","1","36","1","966"
"14","14","retrieval","old_object","303","G8.jpg",".","1","37","0","955"
"14","14","retrieval","old_object","304","H10.jpg",".","3","36","1","788"
"14","14","retrieval","old_object","305","G73.jpg",".","1","36","1","747"
"14","14","retrieval","old_object","306","G59.jpg",".","1","37","0","827"
"14","14","retrieval","old_object","307","G64.jpg",".","1","36","1","770"
"14","14","retrieval","new_object","308","E36.jpg",".",".","37","1","918"
"14","14","retrieval","new_object","309","E39.jpg",".",".","37","1","623"
"14","14","retrieval","old_object","310","G34.jpg",".","1","37","0","752"
"14","14","retrieval","new_object","311","F64.jpg",".",".","37","1","875"
"14","14","retrieval","old_object","312","G40.jpg",".","1","37","0","615"
"14","14","retrieval","old_object","313","H26.jpg",".","3","37","0","576"
"14","14","retrieval","old_object","314","G70.jpg",".","1","36","1","785"
"14","14","retrieval","old_object","315","G71.jpg",".","1","37","0","642"
"14","14","retrieval","old_object","316","H45.jpg",".","3","36","1","691"
"14","14","retrieval","new_object","317","E16.jpg",".",".","37","1","960"
"14","14","retrieval","old_object","318","G75.jpg",".","1","36","1","850"
"14","14","retrieval","new_object","319","E79.jpg",".",".","37","1","1889"
"14","14","retrieval","new_object","320","F25.jpg",".",".","37","1","1469"
"14","14","retrieval","new_object","321","E37.jpg",".",".","37","1","668"
"14","14","retrieval","new_object","322","E71.jpg",".",".","37","1","972"
"14","14","retrieval","new_object","323","F49.jpg",".",".","37","1","1112"
"14","14","retrieval","new_object","324","F27.jpg",".",".","37","1","879"
"14","14","retrieval","old_object","325","G44.jpg",".","","37","0","1326"
"14","14","demographics_block","gender","1",".",".",".","Female","1","18368"
"14","14","demographics_block","age","1",".",".",".","29","1","18368"
"14","14","demographics_block","education","1",".",".",".","14","1","18368"
"14","14","demographics_block","left_right_handed","2",".",".",".","Left","1","7906"
"14","14","demographics_block","raceoption1","2",".",".",".","0","1","7906"
"14","14","demographics_block","raceoption2","2",".",".",".","","1","7906"
"14","14","demographics_block","raceoption3","2",".",".",".","","1","7906"
"14","14","demographics_block","raceoption4","2",".",".",".","","1","7906"
"14","14","demographics_block","raceoption5","2",".",".",".","","1","7906"
"14","14","demographics_block","raceoption6","2",".",".",".","","1","7906"
"14","14","demographics_block","raceoption7","2",".",".",".","","1","7906"
"14","14","demographics_block","raceoption8","2",".",".",".","","1","7906"
"14","14","demographics_block","raceoption9","2",".",".",".","","1","7906"
"14","14","demographics_block","raceother","2",".",".",".","","1","7906"
"14","14","demographics_block","raceother","2",".",".",".","","1","7906"
"14","14","demographics_block","english_language","2",".",".",".","Yes","1","7906"
"14","14","demographics_block","other","2",".",".",".","","1","7906"
"14","14","demographics_block","eyesight","3",".",".",".","Yes","1","4610"
"14","14","demographics_block","colorblind","3",".",".",".","No","1","4610"
