"group","subject","blockcode","trialcode","trialnum","stimulus","encoding_condition","old_object_condition","response","correct","latency"
"17","17","encoding","encoding","1","H33.jpg","1",".","0","0","1000"
"17","17","encoding","encoding","2","G67.jpg","3",".","37","0","993"
"17","17","encoding","encoding","3","G35.jpg","3",".","37","0","899"
"17","17","encoding","encoding","4","G7.jpg","3",".","0","0","1000"
"17","17","encoding","encoding","5","G45.jpg","3",".","37","0","844"
"17","17","encoding","encoding","6","H72.jpg","1",".","37","0","951"
"17","17","encoding","encoding","7","G24.jpg","3",".","37","0","915"
"17","17","encoding","encoding","8","G60.jpg","3",".","36","0","901"
"17","17","encoding","encoding","9","G9.jpg","3",".","37","0","831"
"17","17","encoding","encoding","10","H17.jpg","1",".","37","0","851"
"17","17","encoding","encoding","11","G74.jpg","3",".","37","0","775"
"17","17","encoding","encoding","12","G3.jpg","3",".","37","0","710"
"17","17","encoding","encoding","13","H32.jpg","1",".","37","0","807"
"17","17","encoding","encoding","14","G5.jpg","3",".","37","0","706"
"17","17","encoding","encoding","15","G72.jpg","3",".","37","0","779"
"17","17","encoding","encoding","16","H61.jpg","1",".","37","0","600"
"17","17","encoding","encoding","17","H49.jpg","1",".","36","0","731"
"17","17","encoding","encoding","18","G69.jpg","3",".","37","0","759"
"17","17","encoding","encoding","19","G16.jpg","3",".","37","0","785"
"17","17","encoding","encoding","20","H42.jpg","1",".","37","0","542"
"17","17","encoding","encoding","21","G46.jpg","3",".","0","0","1000"
"17","17","encoding","encoding","22","G64.jpg","3",".","37","0","650"
"17","17","encoding","encoding","23","G70.jpg","3",".","37","0","597"
"17","17","encoding","encoding","24","G14.jpg","3",".","37","0","569"
"17","17","encoding","encoding","25","G9.jpg","3",".","37","0","489"
"17","17","encoding","encoding","26","G43.jpg","3",".","37","0","572"
"17","17","encoding","encoding","27","H67.jpg","1",".","37","0","721"
"17","17","encoding","encoding","28","G64.jpg","3",".","37","0","504"
"17","17","encoding","encoding","29","H68.jpg","1",".","37","0","584"
"17","17","encoding","encoding","30","H38.jpg","1",".","37","0","619"
"17","17","encoding","encoding","31","H27.jpg","1",".","37","0","447"
"17","17","encoding","encoding","32","G35.jpg","3",".","37","0","545"
"17","17","encoding","encoding","33","G75.jpg","3",".","36","0","525"
"17","17","encoding","encoding","34","G77.jpg","3",".","37","0","570"
"17","17","encoding","encoding","35","H30.jpg","1",".","37","0","550"
"17","17","encoding","encoding","36","G73.jpg","3",".","37","0","496"
"17","17","encoding","encoding","37","G68.jpg","3",".","37","0","625"
"17","17","encoding","encoding","38","G1.jpg","3",".","37","0","613"
"17","17","encoding","encoding","39","G65.jpg","3",".","37","0","505"
"17","17","encoding","encoding","40","G43.jpg","3",".","37","0","440"
"17","17","encoding","encoding","41","H13.jpg","1",".","37","0","410"
"17","17","encoding","encoding","42","H55.jpg","1",".","36","0","632"
"17","17","encoding","encoding","43","G36.jpg","3",".","36","0","720"
"17","17","encoding","encoding","44","H71.jpg","1",".","37","0","622"
"17","17","encoding","encoding","45","H15.jpg","1",".","37","0","561"
"17","17","encoding","encoding","46","G31.jpg","3",".","37","0","523"
"17","17","encoding","encoding","47","G15.jpg","3",".","36","0","559"
"17","17","encoding","encoding","48","G28.jpg","3",".","37","0","386"
"17","17","encoding","encoding","49","H14.jpg","1",".","37","0","414"
"17","17","encoding","encoding","50","G55.jpg","3",".","36","0","730"
"17","17","encoding","encoding","51","G25.jpg","3",".","37","0","513"
"17","17","encoding","encoding","52","G26.jpg","3",".","37","0","556"
"17","17","encoding","encoding","53","H39.jpg","1",".","37","0","544"
"17","17","encoding","encoding","54","G42.jpg","3",".","37","0","499"
"17","17","encoding","encoding","55","G60.jpg","3",".","36","0","717"
"17","17","encoding","encoding","56","G39.jpg","3",".","37","0","760"
"17","17","encoding","encoding","57","H21.jpg","1",".","37","0","696"
"17","17","encoding","encoding","58","H6.jpg","1",".","37","0","980"
"17","17","encoding","encoding","59","H5.jpg","1",".","37","0","622"
"17","17","encoding","encoding","60","H41.jpg","1",".","37","0","586"
"17","17","encoding","encoding","61","G51.jpg","3",".","37","0","573"
"17","17","encoding","encoding","62","G26.jpg","3",".","36","0","543"
"17","17","encoding","encoding","63","G64.jpg","3",".","37","0","491"
"17","17","encoding","encoding","64","G49.jpg","3",".","37","0","838"
"17","17","encoding","encoding","65","G2.jpg","3",".","37","0","908"
"17","17","encoding","encoding","67","G13.jpg","3",".","37","0","643"
"17","17","encoding","encoding","68","G19.jpg","3",".","37","0","556"
"17","17","encoding","encoding","69","G71.jpg","3",".","37","0","578"
"17","17","encoding","encoding","70","G40.jpg","3",".","37","0","472"
"17","17","encoding","encoding","71","G21.jpg","3",".","37","0","704"
"17","17","encoding","encoding","72","H44.jpg","1",".","37","0","622"
"17","17","encoding","encoding","73","H53.jpg","1",".","37","0","510"
"17","17","encoding","encoding","74","G79.jpg","3",".","37","0","602"
"17","17","encoding","encoding","75","G4.jpg","3",".","37","0","540"
"17","17","encoding","encoding","76","G43.jpg","3",".","37","0","598"
"17","17","encoding","encoding","77","G32.jpg","3",".","37","0","551"
"17","17","encoding","encoding","78","G63.jpg","3",".","36","0","839"
"17","17","encoding","encoding","79","H76.jpg","1",".","37","0","550"
"17","17","encoding","encoding","80","G33.jpg","3",".","37","0","472"
"17","17","encoding","encoding","81","G39.jpg","3",".","37","0","615"
"17","17","encoding","encoding","82","H34.jpg","1",".","36","0","629"
"17","17","encoding","encoding","83","H60.jpg","1",".","37","0","343"
"17","17","encoding","encoding","84","G15.jpg","3",".","36","0","581"
"17","17","encoding","encoding","85","G0.jpg","3",".","37","0","670"
"17","17","encoding","encoding","86","G49.jpg","3",".","37","0","815"
"17","17","encoding","encoding","87","G57.jpg","3",".","37","0","596"
"17","17","encoding","encoding","88","G23.jpg","3",".","37","0","524"
"17","17","encoding","encoding","89","H74.jpg","1",".","37","0","589"
"17","17","encoding","encoding","90","G11.jpg","3",".","36","0","696"
"17","17","encoding","encoding","91","G26.jpg","3",".","37","0","515"
"17","17","encoding","encoding","92","G58.jpg","3",".","37","0","878"
"17","17","encoding","encoding","93","G33.jpg","3",".","37","0","548"
"17","17","encoding","encoding","94","G65.jpg","3",".","37","0","538"
"17","17","encoding","encoding","95","G56.jpg","3",".","37","0","495"
"17","17","encoding","encoding","96","G7.jpg","3",".","37","0","733"
"17","17","encoding","encoding","97","G23.jpg","3",".","37","0","497"
"17","17","encoding","encoding","98","H47.jpg","1",".","37","0","505"
"17","17","encoding","encoding","99","G71.jpg","3",".","37","0","500"
"17","17","encoding","encoding","100","G17.jpg","3",".","37","0","580"
"17","17","encoding","encoding","101","G53.jpg","3",".","37","0","513"
"17","17","encoding","encoding","102","G78.jpg","3",".","37","0","452"
"17","17","encoding","encoding","103","G27.jpg","3",".","37","0","499"
"17","17","encoding","encoding","104","H43.jpg","1",".","37","0","521"
"17","17","encoding","encoding","105","G29.jpg","3",".","37","0","491"
"17","17","encoding","encoding","106","H69.jpg","1",".","37","0","489"
"17","17","encoding","encoding","107","G48.jpg","3",".","37","0","809"
"17","17","encoding","encoding","108","H23.jpg","1",".","37","0","471"
"17","17","encoding","encoding","109","G78.jpg","3",".","37","0","405"
"17","17","encoding","encoding","110","H4.jpg","1",".","37","0","338"
"17","17","encoding","encoding","111","G52.jpg","3",".","37","0","390"
"17","17","encoding","encoding","112","G58.jpg","3",".","37","0","504"
"17","17","encoding","encoding","113","G8.jpg","3",".","37","0","596"
"17","17","encoding","encoding","114","G52.jpg","3",".","37","0","444"
"17","17","encoding","encoding","115","G53.jpg","3",".","37","0","407"
"17","17","encoding","encoding","116","G12.jpg","3",".","37","0","499"
"17","17","encoding","encoding","117","H51.jpg","1",".","37","0","319"
"17","17","encoding","encoding","118","H12.jpg","1",".","37","0","239"
"17","17","encoding","encoding","119","G22.jpg","3",".","37","0","388"
"17","17","encoding","encoding","120","G56.jpg","3",".","37","0","409"
"17","17","encoding","encoding","121","H52.jpg","1",".","37","0","459"
"17","17","encoding","encoding","122","G25.jpg","3",".","37","0","504"
"17","17","encoding","encoding","123","G66.jpg","3",".","37","0","553"
"17","17","encoding","encoding","124","G29.jpg","3",".","37","0","583"
"17","17","encoding","encoding","125","G55.jpg","3",".","37","0","614"
"17","17","encoding","encoding","126","G31.jpg","3",".","37","0","649"
"17","17","encoding","encoding","127","H66.jpg","1",".","37","0","596"
"17","17","encoding","encoding","128","G44.jpg","3",".","37","0","680"
"17","17","encoding","encoding","129","G61.jpg","3",".","37","0","515"
"17","17","encoding","encoding","130","G12.jpg","3",".","37","0","425"
"17","17","encoding","encoding","131","G49.jpg","3",".","37","0","511"
"17","17","encoding","encoding","133","H62.jpg","1",".","0","0","1000"
"17","17","encoding","encoding","134","G1.jpg","3",".","37","0","592"
"17","17","encoding","encoding","135","G10.jpg","3",".","37","0","706"
"17","17","encoding","encoding","136","G20.jpg","3",".","37","0","618"
"17","17","encoding","encoding","137","G28.jpg","3",".","37","0","434"
"17","17","encoding","encoding","138","G62.jpg","3",".","37","0","508"
"17","17","encoding","encoding","139","G20.jpg","3",".","37","0","516"
"17","17","encoding","encoding","140","G46.jpg","3",".","37","0","480"
"17","17","encoding","encoding","141","G39.jpg","3",".","37","0","408"
"17","17","encoding","encoding","142","G37.jpg","3",".","37","0","507"
"17","17","encoding","encoding","143","H26.jpg","1",".","37","0","658"
"17","17","encoding","encoding","144","G60.jpg","3",".","36","0","640"
"17","17","encoding","encoding","145","G54.jpg","3",".","37","0","487"
"17","17","encoding","encoding","146","G36.jpg","3",".","36","0","719"
"17","17","encoding","encoding","147","G32.jpg","3",".","37","0","572"
"17","17","encoding","encoding","148","G79.jpg","3",".","37","0","504"
"17","17","encoding","encoding","149","G47.jpg","3",".","37","0","564"
"17","17","encoding","encoding","150","G74.jpg","3",".","37","0","470"
"17","17","encoding","encoding","151","G35.jpg","3",".","37","0","544"
"17","17","encoding","encoding","152","G78.jpg","3",".","37","0","518"
"17","17","encoding","encoding","153","G40.jpg","3",".","37","0","429"
"17","17","encoding","encoding","154","G75.jpg","3",".","37","0","439"
"17","17","encoding","encoding","155","G45.jpg","3",".","37","0","744"
"17","17","encoding","encoding","156","G62.jpg","3",".","37","0","661"
"17","17","encoding","encoding","157","H57.jpg","1",".","37","0","886"
"17","17","encoding","encoding","158","H19.jpg","1",".","37","0","553"
"17","17","encoding","encoding","159","G11.jpg","3",".","37","0","709"
"17","17","encoding","encoding","160","G41.jpg","3",".","37","0","761"
"17","17","encoding","encoding","161","G18.jpg","3",".","37","0","537"
"17","17","encoding","encoding","162","G19.jpg","3",".","37","0","461"
"17","17","encoding","encoding","163","H58.jpg","1",".","37","0","803"
"17","17","encoding","encoding","164","G11.jpg","3",".","37","0","573"
"17","17","encoding","encoding","165","H3.jpg","1",".","37","0","532"
"17","17","encoding","encoding","166","G34.jpg","3",".","37","0","685"
"17","17","encoding","encoding","167","G0.jpg","3",".","37","0","646"
"17","17","encoding","encoding","168","G10.jpg","3",".","37","0","533"
"17","17","encoding","encoding","169","G74.jpg","3",".","37","0","471"
"17","17","encoding","encoding","170","G47.jpg","3",".","37","0","497"
"17","17","encoding","encoding","171","G69.jpg","3",".","37","0","480"
"17","17","encoding","encoding","172","G70.jpg","3",".","37","0","546"
"17","17","encoding","encoding","173","G6.jpg","3",".","37","0","523"
"17","17","encoding","encoding","174","G73.jpg","3",".","36","0","640"
"17","17","encoding","encoding","175","H16.jpg","1",".","37","0","435"
"17","17","encoding","encoding","176","G59.jpg","3",".","37","0","507"
"17","17","encoding","encoding","177","G8.jpg","3",".","37","0","588"
"17","17","encoding","encoding","178","H10.jpg","1",".","37","0","745"
"17","17","encoding","encoding","179","G41.jpg","3",".","37","0","583"
"17","17","encoding","encoding","180","G40.jpg","3",".","37","0","448"
"17","17","encoding","encoding","181","H79.jpg","1",".","37","0","535"
"17","17","encoding","encoding","182","G24.jpg","3",".","37","0","517"
"17","17","encoding","encoding","183","H8.jpg","1",".","37","0","683"
"17","17","encoding","encoding","184","G66.jpg","3",".","37","0","632"
"17","17","encoding","encoding","185","G2.jpg","3",".","37","0","589"
"17","17","encoding","encoding","186","G38.jpg","3",".","37","0","909"
"17","17","encoding","encoding","187","G51.jpg","3",".","37","0","499"
"17","17","encoding","encoding","188","G72.jpg","3",".","37","0","481"
"17","17","encoding","encoding","189","G28.jpg","3",".","37","0","355"
"17","17","encoding","encoding","190","G77.jpg","3",".","37","0","441"
"17","17","encoding","encoding","191","G7.jpg","3",".","37","0","342"
"17","17","encoding","encoding","192","G66.jpg","3",".","37","0","402"
"17","17","encoding","encoding","193","H54.jpg","1",".","37","0","452"
"17","17","encoding","encoding","194","G72.jpg","3",".","37","0","467"
"17","17","encoding","encoding","195","G38.jpg","3",".","37","0","451"
"17","17","encoding","encoding","196","H45.jpg","1",".","37","0","649"
"17","17","encoding","encoding","197","G65.jpg","3",".","37","0","488"
"17","17","encoding","encoding","199","G9.jpg","3",".","37","0","725"
"17","17","encoding","encoding","200","G70.jpg","3",".","37","0","499"
"17","17","encoding","encoding","201","G71.jpg","3",".","37","0","545"
"17","17","encoding","encoding","202","G75.jpg","3",".","36","0","584"
"17","17","encoding","encoding","203","G50.jpg","3",".","37","0","379"
"17","17","encoding","encoding","204","H0.jpg","1",".","37","0","388"
"17","17","encoding","encoding","205","G8.jpg","3",".","37","0","470"
"17","17","encoding","encoding","206","G63.jpg","3",".","36","0","653"
"17","17","encoding","encoding","207","G5.jpg","3",".","37","0","370"
"17","17","encoding","encoding","208","G59.jpg","3",".","37","0","454"
"17","17","encoding","encoding","209","H29.jpg","1",".","37","0","395"
"17","17","encoding","encoding","210","H37.jpg","1",".","37","0","542"
"17","17","encoding","encoding","211","G31.jpg","3",".","37","0","617"
"17","17","encoding","encoding","212","H2.jpg","1",".","37","0","574"
"17","17","encoding","encoding","213","H20.jpg","1",".","37","0","445"
"17","17","encoding","encoding","214","G76.jpg","3",".","37","0","594"
"17","17","encoding","encoding","215","H77.jpg","1",".","37","0","600"
"17","17","encoding","encoding","216","G21.jpg","3",".","37","0","495"
"17","17","encoding","encoding","217","G14.jpg","3",".","37","0","539"
"17","17","encoding","encoding","218","G10.jpg","3",".","37","0","563"
"17","17","encoding","encoding","219","G50.jpg","3",".","37","0","588"
"17","17","encoding","encoding","220","G61.jpg","3",".","37","0","570"
"17","17","encoding","encoding","221","G5.jpg","3",".","37","0","552"
"17","17","encoding","encoding","222","G1.jpg","3",".","37","0","500"
"17","17","encoding","encoding","223","G14.jpg","3",".","37","0","622"
"17","17","encoding","encoding","224","G13.jpg","3",".","37","0","490"
"17","17","encoding","encoding","225","G30.jpg","3",".","37","0","720"
"17","17","encoding","encoding","226","G41.jpg","3",".","37","0","554"
"17","17","encoding","encoding","227","G19.jpg","3",".","37","0","459"
"17","17","encoding","encoding","228","G17.jpg","3",".","37","0","514"
"17","17","encoding","encoding","229","G36.jpg","3",".","36","0","632"
"17","17","encoding","encoding","230","H35.jpg","1",".","36","0","600"
"17","17","encoding","encoding","231","G25.jpg","3",".","37","0","509"
"17","17","encoding","encoding","232","G37.jpg","3",".","37","0","647"
"17","17","encoding","encoding","233","H64.jpg","1",".","37","0","723"
"17","17","encoding","encoding","234","H11.jpg","1",".","37","0","890"
"17","17","encoding","encoding","235","G32.jpg","3",".","37","0","604"
"17","17","encoding","encoding","236","H28.jpg","1",".","36","0","705"
"17","17","encoding","encoding","237","H18.jpg","1",".","37","0","520"
"17","17","encoding","encoding","238","H59.jpg","1",".","37","0","567"
"17","17","encoding","encoding","239","G47.jpg","3",".","37","0","580"
"17","17","encoding","encoding","240","G22.jpg","3",".","37","0","581"
"17","17","encoding","encoding","241","G6.jpg","3",".","37","0","551"
"17","17","encoding","encoding","242","G27.jpg","3",".","37","0","638"
"17","17","encoding","encoding","243","G69.jpg","3",".","37","0","608"
"17","17","encoding","encoding","244","H36.jpg","1",".","37","0","597"
"17","17","encoding","encoding","245","G33.jpg","3",".","37","0","461"
"17","17","encoding","encoding","246","H56.jpg","1",".","37","0","604"
"17","17","encoding","encoding","247","G3.jpg","3",".","37","0","391"
"17","17","encoding","encoding","248","H24.jpg","1",".","37","0","487"
"17","17","encoding","encoding","249","G15.jpg","3",".","36","0","598"
"17","17","encoding","encoding","250","H50.jpg","1",".","37","0","418"
"17","17","encoding","encoding","251","G16.jpg","3",".","37","0","512"
"17","17","encoding","encoding","252","H1.jpg","1",".","36","0","792"
"17","17","encoding","encoding","253","H73.jpg","1",".","37","0","797"
"17","17","encoding","encoding","254","G73.jpg","3",".","36","0","797"
"17","17","encoding","encoding","255","G46.jpg","3",".","37","0","496"
"17","17","encoding","encoding","256","G76.jpg","3",".","37","0","596"
"17","17","encoding","encoding","257","G12.jpg","3",".","37","0","555"
"17","17","encoding","encoding","258","G67.jpg","3",".","37","0","653"
"17","17","encoding","encoding","259","G23.jpg","3",".","37","0","543"
"17","17","encoding","encoding","260","G62.jpg","3",".","37","0","471"
"17","17","encoding","encoding","261","G45.jpg","3",".","37","0","620"
"17","17","encoding","encoding","262","G42.jpg","3",".","36","0","613"
"17","17","encoding","encoding","263","G16.jpg","3",".","37","0","442"
"17","17","encoding","encoding","265","H78.jpg","1",".","37","0","518"
"17","17","encoding","encoding","266","G79.jpg","3",".","37","0","463"
"17","17","encoding","encoding","267","H70.jpg","1",".","36","0","794"
"17","17","encoding","encoding","268","H31.jpg","1",".","37","0","688"
"17","17","encoding","encoding","269","G63.jpg","3",".","36","0","665"
"17","17","encoding","encoding","270","G44.jpg","3",".","37","0","615"
"17","17","encoding","encoding","271","H7.jpg","1",".","36","0","577"
"17","17","encoding","encoding","272","G55.jpg","3",".","37","0","647"
"17","17","encoding","encoding","273","G51.jpg","3",".","37","0","884"
"17","17","encoding","encoding","274","G4.jpg","3",".","37","0","523"
"17","17","encoding","encoding","275","G3.jpg","3",".","37","0","428"
"17","17","encoding","encoding","276","G37.jpg","3",".","37","0","451"
"17","17","encoding","encoding","277","G57.jpg","3",".","37","0","426"
"17","17","encoding","encoding","278","G18.jpg","3",".","37","0","478"
"17","17","encoding","encoding","279","H9.jpg","1",".","37","0","567"
"17","17","encoding","encoding","280","G22.jpg","3",".","37","0","600"
"17","17","encoding","encoding","281","G48.jpg","3",".","37","0","566"
"17","17","encoding","encoding","282","G17.jpg","3",".","37","0","422"
"17","17","encoding","encoding","283","G6.jpg","3",".","37","0","444"
"17","17","encoding","encoding","284","H25.jpg","1",".","37","0","308"
"17","17","encoding","encoding","285","G68.jpg","3",".","37","0","258"
"17","17","encoding","encoding","286","G27.jpg","3",".","37","0","267"
"17","17","encoding","encoding","287","G24.jpg","3",".","37","0","365"
"17","17","encoding","encoding","288","G2.jpg","3",".","37","0","360"
"17","17","encoding","encoding","289","G50.jpg","3",".","37","0","454"
"17","17","encoding","encoding","290","G30.jpg","3",".","37","0","556"
"17","17","encoding","encoding","291","G34.jpg","3",".","37","0","518"
"17","17","encoding","encoding","292","G59.jpg","3",".","37","0","480"
"17","17","encoding","encoding","293","G52.jpg","3",".","37","0","443"
"17","17","encoding","encoding","294","H40.jpg","1",".","37","0","538"
"17","17","encoding","encoding","295","G58.jpg","3",".","37","0","584"
"17","17","encoding","encoding","296","G54.jpg","3",".","37","0","620"
"17","17","encoding","encoding","297","G54.jpg","3",".","37","0","550"
"17","17","encoding","encoding","298","G56.jpg","3",".","37","0","496"
"17","17","encoding","encoding","299","H63.jpg","1",".","36","0","701"
"17","17","encoding","encoding","300","G61.jpg","3",".","37","0","585"
"17","17","encoding","encoding","301","H46.jpg","1",".","37","0","724"
"17","17","encoding","encoding","302","G13.jpg","3",".","37","0","577"
"17","17","encoding","encoding","303","G57.jpg","3",".","37","0","564"
"17","17","encoding","encoding","304","G30.jpg","3",".","37","0","540"
"17","17","encoding","encoding","305","G21.jpg","3",".","37","0","482"
"17","17","encoding","encoding","306","G20.jpg","3",".","37","0","437"
"17","17","encoding","encoding","307","G48.jpg","3",".","37","0","398"
"17","17","encoding","encoding","308","G53.jpg","3",".","37","0","476"
"17","17","encoding","encoding","309","G4.jpg","3",".","37","0","486"
"17","17","encoding","encoding","310","H22.jpg","1",".","37","0","467"
"17","17","encoding","encoding","311","G77.jpg","3",".","37","0","517"
"17","17","encoding","encoding","312","H75.jpg","1",".","37","0","350"
"17","17","encoding","encoding","313","G67.jpg","3",".","37","0","407"
"17","17","encoding","encoding","314","H48.jpg","1",".","37","0","438"
"17","17","encoding","encoding","315","G18.jpg","3",".","37","0","452"
"17","17","encoding","encoding","316","G34.jpg","3",".","37","0","506"
"17","17","encoding","encoding","317","G42.jpg","3",".","37","0","401"
"17","17","encoding","encoding","318","H65.jpg","1",".","37","0","803"
"17","17","encoding","encoding","319","G68.jpg","3",".","37","0","677"
"17","17","encoding","encoding","320","G38.jpg","3",".","37","0","538"
"17","17","encoding","encoding","321","G76.jpg","3",".","37","0","515"
"17","17","encoding","encoding","322","G29.jpg","3",".","37","0","573"
"17","17","encoding","encoding","323","G0.jpg","3",".","37","0","533"
"17","17","encoding","encoding","324","G44.jpg","3",".","37","0","767"
"17","17","encoding","encoding","325","H33.jpg","",".","37","0","516"
"17","17","retrieval","new_object","1","E38.jpg",".",".","37","1","1581"
"17","17","retrieval","old_object","2","H6.jpg",".","1","36","1","1721"
"17","17","retrieval","new_object","3","E65.jpg",".",".","37","1","1013"
"17","17","retrieval","new_object","4","F2.jpg",".",".","37","1","1145"
"17","17","retrieval","old_object","5","G2.jpg",".","3","36","1","823"
"17","17","retrieval","old_object","6","G37.jpg",".","3","36","1","760"
"17","17","retrieval","old_object","7","G6.jpg",".","3","36","1","656"
"17","17","retrieval","new_object","8","F12.jpg",".",".","37","1","722"
"17","17","retrieval","new_object","9","F7.jpg",".",".","37","1","1475"
"17","17","retrieval","old_object","10","H23.jpg",".","1","36","1","989"
"17","17","retrieval","new_object","11","F1.jpg",".",".","37","1","687"
"17","17","retrieval","old_object","12","H46.jpg",".","1","37","0","771"
"17","17","retrieval","new_object","13","F40.jpg",".",".","37","1","1075"
"17","17","retrieval","old_object","14","G38.jpg",".","3","36","1","737"
"17","17","retrieval","old_object","15","H67.jpg",".","1","37","0","1231"
"17","17","retrieval","old_object","16","G62.jpg",".","3","36","1","922"
"17","17","retrieval","old_object","17","G66.jpg",".","3","37","0","744"
"17","17","retrieval","new_object","18","E75.jpg",".",".","37","1","680"
"17","17","retrieval","new_object","19","E32.jpg",".",".","37","1","838"
"17","17","retrieval","new_object","20","F57.jpg",".",".","37","1","843"
"17","17","retrieval","new_object","21","F35.jpg",".",".","37","1","968"
"17","17","retrieval","old_object","22","G3.jpg",".","3","36","1","724"
"17","17","retrieval","old_object","23","G26.jpg",".","3","36","1","1141"
"17","17","retrieval","new_object","24","E57.jpg",".",".","37","1","754"
"17","17","retrieval","new_object","25","F13.jpg",".",".","37","1","538"
"17","17","retrieval","old_object","26","H47.jpg",".","1","36","1","799"
"17","17","retrieval","old_object","27","H50.jpg",".","1","37","0","725"
"17","17","retrieval","old_object","28","G13.jpg",".","3","36","1","723"
"17","17","retrieval","new_object","29","F58.jpg",".",".","37","1","739"
"17","17","retrieval","old_object","30","H28.jpg",".","1","36","1","1063"
"17","17","retrieval","old_object","31","H34.jpg",".","1","36","1","872"
"17","17","retrieval","new_object","32","F6.jpg",".",".","37","1","594"
"17","17","retrieval","new_object","33","F49.jpg",".",".","37","1","525"
"17","17","retrieval","old_object","34","G17.jpg",".","3","36","1","752"
"17","17","retrieval","new_object","35","E16.jpg",".",".","36","0","1043"
"17","17","retrieval","new_object","36","F20.jpg",".",".","37","1","1347"
"17","17","retrieval","new_object","37","E49.jpg",".",".","37","1","937"
"17","17","retrieval","new_object","38","F56.jpg",".",".","37","1","921"
"17","17","retrieval","old_object","39","H53.jpg",".","1","36","1","836"
"17","17","retrieval","new_object","40","E64.jpg",".",".","37","1","887"
"17","17","retrieval","old_object","41","G63.jpg",".","3","36","1","1021"
"17","17","retrieval","old_object","42","H54.jpg",".","1","36","1","998"
"17","17","retrieval","old_object","43","G76.jpg",".","3","36","1","989"
"17","17","retrieval","old_object","44","H38.jpg",".","1","36","1","817"
"17","17","retrieval","old_object","45","G34.jpg",".","3","36","1","675"
"17","17","retrieval","new_object","46","F36.jpg",".",".","37","1","911"
"17","17","retrieval","new_object","47","E3.jpg",".",".","37","1","927"
"17","17","retrieval","new_object","48","E2.jpg",".",".","37","1","876"
"17","17","retrieval","old_object","49","H21.jpg",".","1","37","0","918"
"17","17","retrieval","old_object","50","G72.jpg",".","3","36","1","1103"
"17","17","retrieval","old_object","51","H69.jpg",".","1","37","0","940"
"17","17","retrieval","old_object","52","H48.jpg",".","1","36","1","921"
"17","17","retrieval","new_object","53","E29.jpg",".",".","37","1","676"
"17","17","retrieval","new_object","54","F71.jpg",".",".","37","1","1386"
"17","17","retrieval","old_object","55","H20.jpg",".","1","36","1","838"
"17","17","retrieval","new_object","56","E15.jpg",".",".","37","1","893"
"17","17","retrieval","old_object","57","G24.jpg",".","3","36","1","1038"
"17","17","retrieval","old_object","58","H60.jpg",".","1","37","0","1601"
"17","17","retrieval","new_object","59","F34.jpg",".",".","37","1","881"
"17","17","retrieval","new_object","60","F74.jpg",".",".","37","1","1100"
"17","17","retrieval","old_object","61","H33.jpg",".","1","36","1","806"
"17","17","retrieval","new_object","62","F55.jpg",".",".","37","1","843"
"17","17","retrieval","old_object","63","G43.jpg",".","3","36","1","824"
"17","17","retrieval","old_object","64","G28.jpg",".","3","36","1","828"
"17","17","retrieval","old_object","65","H58.jpg",".","1","36","1","1023"
"17","17","retrieval","new_object","67","E56.jpg",".",".","37","1","872"
"17","17","retrieval","new_object","68","E37.jpg",".",".","37","1","838"
"17","17","retrieval","old_object","69","G65.jpg",".","3","36","1","726"
"17","17","retrieval","old_object","70","G68.jpg",".","3","36","1","822"
"17","17","retrieval","old_object","71","H76.jpg",".","1","36","1","781"
"17","17","retrieval","old_object","72","G74.jpg",".","3","36","1","652"
"17","17","retrieval","old_object","73","H37.jpg",".","1","36","1","691"
"17","17","retrieval","old_object","74","H78.jpg",".","1","36","1","1037"
"17","17","retrieval","new_object","75","F11.jpg",".",".","37","1","875"
"17","17","retrieval","new_object","76","F26.jpg",".",".","37","1","758"
"17","17","retrieval","new_object","77","E66.jpg",".",".","37","1","864"
"17","17","retrieval","new_object","78","F50.jpg",".",".","37","1","886"
"17","17","retrieval","old_object","79","G64.jpg",".","3","37","0","989"
"17","17","retrieval","old_object","80","H17.jpg",".","1","36","1","944"
"17","17","retrieval","old_object","81","H7.jpg",".","1","37","0","1165"
"17","17","retrieval","old_object","82","G10.jpg",".","3","36","1","939"
"17","17","retrieval","new_object","83","F0.jpg",".",".","37","1","882"
"17","17","retrieval","new_object","84","E48.jpg",".",".","37","1","769"
"17","17","retrieval","old_object","85","H61.jpg",".","1","36","1","1002"
"17","17","retrieval","old_object","86","G55.jpg",".","3","36","1","897"
"17","17","retrieval","new_object","87","F37.jpg",".",".","37","1","897"
"17","17","retrieval","old_object","88","H45.jpg",".","1","36","1","1016"
"17","17","retrieval","new_object","89","F38.jpg",".",".","37","1","806"
"17","17","retrieval","new_object","90","E7.jpg",".",".","37","1","873"
"17","17","retrieval","old_object","91","G18.jpg",".","3","36","1","720"
"17","17","retrieval","new_object","92","E63.jpg",".",".","37","1","663"
"17","17","retrieval","new_object","93","F14.jpg",".",".","36","0","889"
"17","17","retrieval","old_object","94","H73.jpg",".","1","37","0","786"
"17","17","retrieval","new_object","95","F64.jpg",".",".","37","1","625"
"17","17","retrieval","new_object","96","F17.jpg",".",".","37","1","594"
"17","17","retrieval","old_object","97","H51.jpg",".","1","36","1","882"
"17","17","retrieval","old_object","98","G21.jpg",".","3","37","0","573"
"17","17","retrieval","old_object","99","H62.jpg",".","1","37","0","794"
"17","17","retrieval","new_object","100","E71.jpg",".",".","37","1","836"
"17","17","retrieval","old_object","101","G48.jpg",".","3","36","1","826"
"17","17","retrieval","new_object","102","F5.jpg",".",".","37","1","695"
"17","17","retrieval","old_object","103","G78.jpg",".","3","36","1","1019"
"17","17","retrieval","old_object","104","H42.jpg",".","1","36","1","765"
"17","17","retrieval","new_object","105","E10.jpg",".",".","37","1","1464"
"17","17","retrieval","old_object","106","H27.jpg",".","1","37","0","1719"
"17","17","retrieval","new_object","107","E26.jpg",".",".","37","1","928"
"17","17","retrieval","old_object","108","G23.jpg",".","3","36","1","841"
"17","17","retrieval","new_object","109","E34.jpg",".",".","37","1","803"
"17","17","retrieval","old_object","110","G46.jpg",".","3","36","1","1024"
"17","17","retrieval","old_object","111","H32.jpg",".","1","37","0","1221"
"17","17","retrieval","new_object","112","E67.jpg",".",".","37","1","942"
"17","17","retrieval","old_object","113","G15.jpg",".","3","36","1","1102"
"17","17","retrieval","old_object","114","H77.jpg",".","1","36","1","968"
"17","17","retrieval","new_object","115","E22.jpg",".",".","37","1","798"
"17","17","retrieval","new_object","116","F70.jpg",".",".","37","1","784"
"17","17","retrieval","old_object","117","H75.jpg",".","1","36","1","915"
"17","17","retrieval","new_object","118","F29.jpg",".",".","37","1","937"
"17","17","retrieval","new_object","119","F31.jpg",".",".","37","1","947"
"17","17","retrieval","old_object","120","H10.jpg",".","1","36","1","869"
"17","17","retrieval","old_object","121","H44.jpg",".","1","37","0","877"
"17","17","retrieval","old_object","122","H3.jpg",".","1","37","0","838"
"17","17","retrieval","old_object","123","H79.jpg",".","1","36","1","836"
"17","17","retrieval","old_object","124","H25.jpg",".","1","37","0","639"
"17","17","retrieval","new_object","125","F61.jpg",".",".","37","1","760"
"17","17","retrieval","old_object","126","G7.jpg",".","3","36","1","834"
"17","17","retrieval","old_object","127","H24.jpg",".","1","36","1","738"
"17","17","retrieval","new_object","128","F48.jpg",".",".","37","1","793"
"17","17","retrieval","old_object","129","G29.jpg",".","3","36","1","844"
"17","17","retrieval","old_object","130","H14.jpg",".","1","36","1","1024"
"17","17","retrieval","old_object","131","H4.jpg",".","1","37","0","714"
"17","17","retrieval","new_object","133","F33.jpg",".",".","37","1","806"
"17","17","retrieval","new_object","134","E62.jpg",".",".","37","1","713"
"17","17","retrieval","old_object","135","H40.jpg",".","1","36","1","985"
"17","17","retrieval","new_object","136","F62.jpg",".",".","37","1","748"
"17","17","retrieval","new_object","137","F51.jpg",".",".","37","1","646"
"17","17","retrieval","old_object","138","H11.jpg",".","1","37","0","1203"
"17","17","retrieval","old_object","139","G25.jpg",".","3","36","1","913"
"17","17","retrieval","new_object","140","F3.jpg",".",".","37","1","929"
"17","17","retrieval","old_object","141","H71.jpg",".","1","37","0","790"
"17","17","retrieval","new_object","142","E30.jpg",".",".","37","1","774"
"17","17","retrieval","old_object","143","H52.jpg",".","1","36","1","751"
"17","17","retrieval","new_object","144","E68.jpg",".",".","37","1","615"
"17","17","retrieval","new_object","145","E13.jpg",".",".","37","1","1244"
"17","17","retrieval","new_object","146","E51.jpg",".",".","37","1","983"
"17","17","retrieval","new_object","147","E74.jpg",".",".","37","1","655"
"17","17","retrieval","new_object","148","E58.jpg",".",".","37","1","698"
"17","17","retrieval","old_object","149","G12.jpg",".","3","36","1","785"
"17","17","retrieval","old_object","150","G54.jpg",".","3","36","1","751"
"17","17","retrieval","new_object","151","F39.jpg",".",".","37","1","892"
"17","17","retrieval","new_object","152","E42.jpg",".",".","37","1","1047"
"17","17","retrieval","old_object","153","G20.jpg",".","3","36","1","1009"
"17","17","retrieval","new_object","154","E78.jpg",".",".","37","1","913"
"17","17","retrieval","new_object","155","F53.jpg",".",".","37","1","1014"
"17","17","retrieval","new_object","156","E72.jpg",".",".","37","1","876"
"17","17","retrieval","new_object","157","E9.jpg",".",".","37","1","759"
"17","17","retrieval","new_object","158","F27.jpg",".",".","37","1","907"
"17","17","retrieval","old_object","159","G30.jpg",".","3","36","1","792"
"17","17","retrieval","old_object","160","G0.jpg",".","3","36","1","833"
"17","17","retrieval","new_object","161","E73.jpg",".",".","36","0","669"
"17","17","retrieval","new_object","162","E24.jpg",".",".","37","1","682"
"17","17","retrieval","old_object","163","H72.jpg",".","1","37","0","886"
"17","17","retrieval","old_object","164","G60.jpg",".","3","36","1","883"
"17","17","retrieval","old_object","165","G5.jpg",".","3","36","1","798"
"17","17","retrieval","new_object","166","E46.jpg",".",".","37","1","816"
"17","17","retrieval","new_object","167","E28.jpg",".",".","37","1","776"
"17","17","retrieval","new_object","168","E47.jpg",".",".","37","1","741"
"17","17","retrieval","old_object","169","H63.jpg",".","1","36","1","973"
"17","17","retrieval","old_object","170","H22.jpg",".","1","36","1","924"
"17","17","retrieval","old_object","171","G79.jpg",".","3","36","1","838"
"17","17","retrieval","old_object","172","G51.jpg",".","3","36","1","964"
"17","17","retrieval","old_object","173","H49.jpg",".","1","37","0","1095"
"17","17","retrieval","new_object","174","F65.jpg",".",".","37","1","1227"
"17","17","retrieval","new_object","175","F30.jpg",".",".","37","1","968"
"17","17","retrieval","old_object","176","H65.jpg",".","1","36","1","953"
"17","17","retrieval","old_object","177","G35.jpg",".","3","36","1","897"
"17","17","retrieval","old_object","178","H36.jpg",".","1","36","1","847"
"17","17","retrieval","old_object","179","G16.jpg",".","3","36","1","727"
"17","17","retrieval","new_object","180","E52.jpg",".",".","37","1","755"
"17","17","retrieval","old_object","181","H56.jpg",".","1","36","1","819"
"17","17","retrieval","old_object","182","H59.jpg",".","1","36","1","728"
"17","17","retrieval","old_object","183","H5.jpg",".","1","36","1","1226"
"17","17","retrieval","old_object","184","H35.jpg",".","1","36","1","902"
"17","17","retrieval","new_object","185","F54.jpg",".",".","37","1","876"
"17","17","retrieval","new_object","186","F28.jpg",".",".","37","1","634"
"17","17","retrieval","old_object","187","G67.jpg",".","3","36","1","673"
"17","17","retrieval","new_object","188","E25.jpg",".",".","37","1","845"
"17","17","retrieval","new_object","189","E39.jpg",".",".","37","1","720"
"17","17","retrieval","old_object","190","G75.jpg",".","3","36","1","889"
"17","17","retrieval","old_object","191","H0.jpg",".","1","36","1","693"
"17","17","retrieval","old_object","192","G47.jpg",".","3","36","1","719"
"17","17","retrieval","new_object","193","E45.jpg",".",".","37","1","711"
"17","17","retrieval","new_object","194","F4.jpg",".",".","37","1","809"
"17","17","retrieval","old_object","195","G36.jpg",".","3","36","1","777"
"17","17","retrieval","old_object","196","G50.jpg",".","3","37","0","1282"
"17","17","retrieval","new_object","197","E61.jpg",".",".","37","1","1112"
"17","17","retrieval","new_object","199","E53.jpg",".",".","37","1","696"
"17","17","retrieval","old_object","200","G45.jpg",".","3","36","1","874"
"17","17","retrieval","new_object","201","F41.jpg",".",".","37","1","664"
"17","17","retrieval","new_object","202","F42.jpg",".",".","37","1","891"
"17","17","retrieval","old_object","203","G33.jpg",".","3","36","1","719"
"17","17","retrieval","new_object","204","F10.jpg",".",".","37","1","616"
"17","17","retrieval","new_object","205","E31.jpg",".",".","37","1","633"
"17","17","retrieval","new_object","206","F22.jpg",".",".","37","1","542"
"17","17","retrieval","new_object","207","E41.jpg",".",".","37","1","691"
"17","17","retrieval","new_object","208","E36.jpg",".",".","37","1","727"
"17","17","retrieval","new_object","209","F73.jpg",".",".","37","1","674"
"17","17","retrieval","old_object","210","G77.jpg",".","3","37","0","560"
"17","17","retrieval","new_object","211","E0.jpg",".",".","37","1","908"
"17","17","retrieval","old_object","212","G4.jpg",".","3","36","1","745"
"17","17","retrieval","new_object","213","F72.jpg",".",".","37","1","962"
"17","17","retrieval","old_object","214","H74.jpg",".","1","36","1","1778"
"17","17","retrieval","old_object","215","H41.jpg",".","1","37","0","979"
"17","17","retrieval","new_object","216","F67.jpg",".",".","37","1","886"
"17","17","retrieval","old_object","217","G53.jpg",".","3","36","1","1035"
"17","17","retrieval","old_object","218","G73.jpg",".","3","36","1","707"
"17","17","retrieval","old_object","219","H8.jpg",".","1","37","0","723"
"17","17","retrieval","old_object","220","H16.jpg",".","1","36","1","777"
"17","17","retrieval","new_object","221","F19.jpg",".",".","37","1","789"
"17","17","retrieval","old_object","222","G31.jpg",".","3","37","0","1024"
"17","17","retrieval","old_object","223","G44.jpg",".","3","36","1","729"
"17","17","retrieval","old_object","224","G41.jpg",".","3","37","0","897"
"17","17","retrieval","new_object","225","E8.jpg",".",".","37","1","808"
"17","17","retrieval","old_object","226","G27.jpg",".","3","36","1","752"
"17","17","retrieval","new_object","227","F15.jpg",".",".","37","1","683"
"17","17","retrieval","old_object","228","G56.jpg",".","3","37","0","641"
"17","17","retrieval","new_object","229","F8.jpg",".",".","37","1","682"
"17","17","retrieval","old_object","230","H1.jpg",".","1","36","1","771"
"17","17","retrieval","new_object","231","F32.jpg",".",".","37","1","732"
"17","17","retrieval","new_object","232","F63.jpg",".",".","37","1","653"
"17","17","retrieval","new_object","233","F43.jpg",".",".","37","1","810"
"17","17","retrieval","old_object","234","H9.jpg",".","1","37","0","633"
"17","17","retrieval","new_object","235","F46.jpg",".",".","37","1","606"
"17","17","retrieval","new_object","236","F18.jpg",".",".","37","1","1125"
"17","17","retrieval","new_object","237","F69.jpg",".",".","37","1","781"
"17","17","retrieval","old_object","238","G57.jpg",".","3","36","1","810"
"17","17","retrieval","new_object","239","E1.jpg",".",".","37","1","666"
"17","17","retrieval","new_object","240","F60.jpg",".",".","37","1","981"
"17","17","retrieval","new_object","241","E77.jpg",".",".","37","1","647"
"17","17","retrieval","new_object","242","E19.jpg",".",".","37","1","660"
"17","17","retrieval","old_object","243","H39.jpg",".","1","37","0","754"
"17","17","retrieval","new_object","244","F21.jpg",".",".","37","1","934"
"17","17","retrieval","old_object","245","H30.jpg",".","1","36","1","879"
"17","17","retrieval","old_object","246","H2.jpg",".","1","36","1","926"
"17","17","retrieval","new_object","247","E79.jpg",".",".","37","1","839"
"17","17","retrieval","old_object","248","G14.jpg",".","3","36","1","671"
"17","17","retrieval","new_object","249","F75.jpg",".",".","37","1","1027"
"17","17","retrieval","new_object","250","F59.jpg",".",".","37","1","1029"
"17","17","retrieval","old_object","251","H19.jpg",".","1","36","1","854"
"17","17","retrieval","new_object","252","F76.jpg",".",".","37","1","808"
"17","17","retrieval","new_object","253","F16.jpg",".",".","37","1","982"
"17","17","retrieval","new_object","254","E35.jpg",".",".","37","1","732"
"17","17","retrieval","new_object","255","E20.jpg",".",".","37","1","714"
"17","17","retrieval","new_object","256","E12.jpg",".",".","37","1","829"
"17","17","retrieval","old_object","257","G58.jpg",".","3","36","1","900"
"17","17","retrieval","new_object","258","E59.jpg",".",".","37","1","607"
"17","17","retrieval","old_object","259","H26.jpg",".","1","36","1","926"
"17","17","retrieval","new_object","260","E50.jpg",".",".","37","1","779"
"17","17","retrieval","old_object","261","G39.jpg",".","3","36","1","876"
"17","17","retrieval","new_object","262","F47.jpg",".",".","37","1","660"
"17","17","retrieval","old_object","263","G19.jpg",".","3","36","1","1025"
"17","17","retrieval","new_object","265","E14.jpg",".",".","0","0","2000"
"17","17","retrieval","old_object","266","G1.jpg",".","3","37","0","1263"
"17","17","retrieval","old_object","267","G22.jpg",".","3","37","0","1232"
"17","17","retrieval","new_object","268","E60.jpg",".",".","37","1","1204"
"17","17","retrieval","old_object","269","H18.jpg",".","1","37","0","1087"
"17","17","retrieval","old_object","270","H57.jpg",".","1","37","0","971"
"17","17","retrieval","new_object","271","E11.jpg",".",".","37","1","776"
"17","17","retrieval","new_object","272","E33.jpg",".",".","37","1","635"
"17","17","retrieval","old_object","273","H55.jpg",".","1","36","1","794"
"17","17","retrieval","new_object","274","E69.jpg",".",".","37","1","1631"
"17","17","retrieval","new_object","275","E40.jpg",".",".","37","1","597"
"17","17","retrieval","new_object","276","E4.jpg",".",".","37","1","782"
"17","17","retrieval","old_object","277","G8.jpg",".","3","37","0","513"
"17","17","retrieval","new_object","278","F77.jpg",".",".","37","1","706"
"17","17","retrieval","old_object","279","G71.jpg",".","3","36","1","722"
"17","17","retrieval","new_object","280","E21.jpg",".",".","37","1","718"
"17","17","retrieval","new_object","281","E70.jpg",".",".","37","1","664"
"17","17","retrieval","new_object","282","F79.jpg",".",".","37","1","546"
"17","17","retrieval","old_object","283","G59.jpg",".","3","36","1","731"
"17","17","retrieval","new_object","284","E17.jpg",".",".","37","1","807"
"17","17","retrieval","new_object","285","F25.jpg",".",".","37","1","558"
"17","17","retrieval","old_object","286","H66.jpg",".","1","36","1","745"
"17","17","retrieval","old_object","287","H43.jpg",".","1","37","0","1093"
"17","17","retrieval","old_object","288","H70.jpg",".","1","36","1","1159"
"17","17","retrieval","new_object","289","F78.jpg",".",".","37","1","1283"
"17","17","retrieval","new_object","290","E76.jpg",".",".","37","1","1267"
"17","17","retrieval","new_object","291","F68.jpg",".",".","37","1","1058"
"17","17","retrieval","old_object","292","G70.jpg",".","3","36","1","619"
"17","17","retrieval","new_object","293","F24.jpg",".",".","37","1","802"
"17","17","retrieval","new_object","294","F52.jpg",".",".","37","1","983"
"17","17","retrieval","new_object","295","F23.jpg",".",".","37","1","609"
"17","17","retrieval","old_object","296","H64.jpg",".","1","36","1","640"
"17","17","retrieval","old_object","297","G69.jpg",".","3","36","1","705"
"17","17","retrieval","old_object","298","G61.jpg",".","3","37","0","761"
"17","17","retrieval","old_object","299","H12.jpg",".","1","37","0","615"
"17","17","retrieval","old_object","300","G11.jpg",".","3","36","1","576"
"17","17","retrieval","new_object","301","F66.jpg",".",".","37","1","679"
"17","17","retrieval","old_object","302","G42.jpg",".","3","36","1","778"
"17","17","retrieval","old_object","303","G49.jpg",".","3","36","1","644"
"17","17","retrieval","new_object","304","E27.jpg",".",".","37","1","640"
"17","17","retrieval","old_object","305","H13.jpg",".","1","37","0","858"
"17","17","retrieval","old_object","306","G32.jpg",".","3","37","0","608"
"17","17","retrieval","new_object","307","F44.jpg",".",".","37","1","624"
"17","17","retrieval","new_object","308","E54.jpg",".",".","37","1","816"
"17","17","retrieval","new_object","309","E43.jpg",".",".","37","1","539"
"17","17","retrieval","new_object","310","E5.jpg",".",".","37","1","604"
"17","17","retrieval","old_object","311","G52.jpg",".","3","36","1","966"
"17","17","retrieval","new_object","312","F45.jpg",".",".","37","1","588"
"17","17","retrieval","new_object","313","E44.jpg",".",".","37","1","535"
"17","17","retrieval","new_object","314","E18.jpg",".",".","37","1","593"
"17","17","retrieval","new_object","315","E55.jpg",".",".","37","1","546"
"17","17","retrieval","new_object","316","E6.jpg",".",".","37","1","667"
"17","17","retrieval","old_object","317","G40.jpg",".","3","37","0","1014"
"17","17","retrieval","old_object","318","H29.jpg",".","1","37","0","815"
"17","17","retrieval","new_object","319","F9.jpg",".",".","37","1","521"
"17","17","retrieval","old_object","320","G9.jpg",".","3","36","1","621"
"17","17","retrieval","new_object","321","E23.jpg",".",".","37","1","664"
"17","17","retrieval","old_object","322","H68.jpg",".","1","37","0","636"
"17","17","retrieval","new_object","323","E70.jpg",".",".","37","1","700"
"17","17","retrieval","old_object","324","H31.jpg",".","1","37","0","1197"
"17","17","retrieval","old_object","325","H15.jpg",".","1","36","1","932"
"17","17","demographics_block","gender","1",".",".",".","male","1","37816"
"17","17","demographics_block","age","1",".",".",".","22","1","37816"
"17","17","demographics_block","education","1",".",".",".","15","1","37816"
"17","17","demographics_block","left_right_handed","2",".",".",".","Left","1","29602"
"17","17","demographics_block","raceoption1","2",".",".",".","","1","29602"
"17","17","demographics_block","raceoption2","2",".",".",".","","1","29602"
"17","17","demographics_block","raceoption3","2",".",".",".","","1","29602"
"17","17","demographics_block","raceoption4","2",".",".",".","","1","29602"
"17","17","demographics_block","raceoption5","2",".",".",".","","1","29602"
"17","17","demographics_block","raceoption6","2",".",".",".","5","1","29602"
"17","17","demographics_block","raceoption7","2",".",".",".","","1","29602"
"17","17","demographics_block","raceoption8","2",".",".",".","","1","29602"
"17","17","demographics_block","raceoption9","2",".",".",".","","1","29602"
"17","17","demographics_block","raceother","2",".",".",".","","1","29602"
"17","17","demographics_block","raceother","2",".",".",".","","1","29602"
"17","17","demographics_block","english_language","2",".",".",".","Yes","1","29602"
"17","17","demographics_block","other","2",".",".",".","","1","29602"
"17","17","demographics_block","eyesight","3",".",".",".","Yes","1","7911"
"17","17","demographics_block","colorblind","3",".",".",".","No","1","7911"
