"group","subject","blockcode","trialcode","trialnum","stimulus","encoding_condition","old_object_condition","response","correct","latency"
"20","20","encoding","encoding","1","Lens_Camera.jpg","3",".","37","0","783"
"20","20","encoding","encoding","2","Taco.jpg","3",".","36","0","632"
"20","20","encoding","encoding","3","DartBoard.jpg","3",".","37","0","761"
"20","20","encoding","encoding","4","Ladybug.jpg","3",".","36","0","721"
"20","20","encoding","encoding","5","Desk_White.jpg","3",".","37","0","698"
"20","20","encoding","encoding","6","Cart_Janitor.jpg","1",".","37","0","769"
"20","20","encoding","encoding","7","PencilCase.jpg","1",".","37","0","566"
"20","20","encoding","encoding","8","SewingPin_Cushion.jpg","3",".","37","0","537"
"20","20","encoding","encoding","9","Cannon.jpg","3",".","37","0","705"
"20","20","encoding","encoding","10","MemoPaperSpike.jpg","1",".","37","0","631"
"20","20","encoding","encoding","11","Cup_Bathroom.jpg","1",".","37","0","591"
"20","20","encoding","encoding","12","ProjectorScreen.jpg","1",".","37","0","679"
"20","20","encoding","encoding","13","Wire_ElectricalSingle.jpg","3",".","37","0","635"
"20","20","encoding","encoding","14","Bible.jpg","3",".","37","0","618"
"20","20","encoding","encoding","15","Microwave.jpg","1",".","37","0","471"
"20","20","encoding","encoding","16","Tree_Fir.jpg","3",".","0","0","1000"
"20","20","encoding","encoding","17","PumiceStone.jpg","1",".","36","0","696"
"20","20","encoding","encoding","18","Hanger.jpg","1",".","37","0","536"
"20","20","encoding","encoding","19","Binder.jpg","3",".","37","0","547"
"20","20","encoding","encoding","20","Barometer.jpg","1",".","37","0","527"
"20","20","encoding","encoding","21","Branch.jpg","3",".","36","0","690"
"20","20","encoding","encoding","22","LicensePlate.jpg","1",".","37","0","627"
"20","20","encoding","encoding","23","Bat_Cricket.jpg","1",".","37","0","732"
"20","20","encoding","encoding","24","Binder.jpg","3",".","37","0","476"
"20","20","encoding","encoding","25","Mailbox_Community.jpg","3",".","37","0","424"
"20","20","encoding","encoding","26","Candy_Lozenge.jpg","1",".","37","0","633"
"20","20","encoding","encoding","27","Oars.jpg","3",".","37","0","673"
"20","20","encoding","encoding","28","CodeDoorLock.jpg","3",".","37","0","472"
"20","20","encoding","encoding","29","Mask_HockeyGoalie.jpg","3",".","37","0","471"
"20","20","encoding","encoding","30","Mask_HockeyGoalie.jpg","3",".","37","0","393"
"20","20","encoding","encoding","31","Trash_Medical.jpg","1",".","37","0","550"
"20","20","encoding","encoding","32","Lighter_Black.jpg","1",".","37","0","448"
"20","20","encoding","encoding","33","SelfieStick.jpg","3",".","37","0","452"
"20","20","encoding","encoding","34","Castle_Sand.jpg","3",".","37","0","588"
"20","20","encoding","encoding","35","Nuts_Pecan.jpg","3",".","37","0","935"
"20","20","encoding","encoding","36","Bottle_Beer.jpg","1",".","37","0","689"
"20","20","encoding","encoding","37","Statue_Man.jpg","3",".","37","0","663"
"20","20","encoding","encoding","38","DartBoard.jpg","3",".","37","0","461"
"20","20","encoding","encoding","39","RAMchip.jpg","3",".","37","0","580"
"20","20","encoding","encoding","40","GasStation.jpg","1",".","37","0","458"
"20","20","encoding","encoding","41","Toy_Truck.jpg","3",".","37","0","442"
"20","20","encoding","encoding","42","Arch_Triomphe.jpg","3",".","37","0","433"
"20","20","encoding","encoding","43","Binder.jpg","3",".","37","0","419"
"20","20","encoding","encoding","44","ManholeCover.jpg","3",".","37","0","488"
"20","20","encoding","encoding","45","Stove_WithOven.jpg","3",".","37","0","497"
"20","20","encoding","encoding","46","Mask_HockeyGoalie.jpg","3",".","37","0","497"
"20","20","encoding","encoding","47","RAMchip.jpg","3",".","37","0","471"
"20","20","encoding","encoding","48","Bowl_Glass.jpg","3",".","37","0","467"
"20","20","encoding","encoding","49","SolderingIron.jpg","3",".","37","0","518"
"20","20","encoding","encoding","50","PocketKnife.jpg","1",".","37","0","549"
"20","20","encoding","encoding","51","Toy_PandaPlushie.jpg","1",".","37","0","657"
"20","20","encoding","encoding","52","Weathervane.jpg","3",".","37","0","445"
"20","20","encoding","encoding","53","Mask_Ski.jpg","1",".","37","0","484"
"20","20","encoding","encoding","54","Tree_Fir.jpg","3",".","36","0","592"
"20","20","encoding","encoding","55","Corkboard.jpg","3",".","37","0","424"
"20","20","encoding","encoding","56","Desk_White.jpg","3",".","37","0","424"
"20","20","encoding","encoding","57","Stove_WithOven.jpg","3",".","37","0","402"
"20","20","encoding","encoding","58","Mug_Travel.jpg","3",".","37","0","377"
"20","20","encoding","encoding","59","Garlic_Whole.jpg","3",".","36","0","702"
"20","20","encoding","encoding","60","PulleyWooden.jpg","1",".","37","0","509"
"20","20","encoding","encoding","61","Bandage_Adhesive.jpg","3",".","37","0","518"
"20","20","encoding","encoding","62","SolderingIron.jpg","3",".","37","0","443"
"20","20","encoding","encoding","63","Light_Halogen.jpg","3",".","37","0","479"
"20","20","encoding","encoding","64","House_Wooden.jpg","3",".","37","0","586"
"20","20","encoding","encoding","65","Lollipop_Rainbow.jpg","3",".","37","0","555"
"20","20","encoding","encoding","67","Walker_Blue.jpg","3",".","37","0","690"
"20","20","encoding","encoding","68","Thermometer_Room.jpg","3",".","37","0","477"
"20","20","encoding","encoding","69","TailLight.jpg","1",".","37","0","484"
"20","20","encoding","encoding","70","Oars.jpg","3",".","37","0","471"
"20","20","encoding","encoding","71","Gecko.jpg","3",".","36","0","606"
"20","20","encoding","encoding","72","Aquarium.jpg","3",".","37","0","703"
"20","20","encoding","encoding","73","Toy_Truck.jpg","3",".","37","0","385"
"20","20","encoding","encoding","74","LifeJacket_Orangejpg.jpg","3",".","37","0","434"
"20","20","encoding","encoding","75","Bag_Diaper.jpg","3",".","37","0","518"
"20","20","encoding","encoding","76","Bark.jpg","3",".","36","0","687"
"20","20","encoding","encoding","77","Clock_Interior.jpg","3",".","37","0","424"
"20","20","encoding","encoding","78","Bread_Carrot.jpg","3",".","36","0","599"
"20","20","encoding","encoding","79","Desk_White.jpg","3",".","37","0","400"
"20","20","encoding","encoding","80","Scythe.jpg","3",".","37","0","512"
"20","20","encoding","encoding","81","Bible.jpg","3",".","37","0","486"
"20","20","encoding","encoding","82","DogSled.jpg","1",".","37","0","962"
"20","20","encoding","encoding","83","RAMchip.jpg","3",".","37","0","464"
"20","20","encoding","encoding","84","Light_Fixtures.jpg","3",".","37","0","474"
"20","20","encoding","encoding","85","Stool_Metal.jpg","3",".","37","0","512"
"20","20","encoding","encoding","86","Mug_Travel.jpg","3",".","37","0","407"
"20","20","encoding","encoding","87","Stool_Metal.jpg","3",".","37","0","357"
"20","20","encoding","encoding","88","Brush_Light.jpg","1",".","37","0","434"
"20","20","encoding","encoding","89","Van.jpg","3",".","37","0","480"
"20","20","encoding","encoding","90","Backpack_Suitcase.jpg","3",".","37","0","451"
"20","20","encoding","encoding","91","Toy_LambPlushie.jpg","3",".","37","0","475"
"20","20","encoding","encoding","92","Lens_Camera.jpg","3",".","37","0","471"
"20","20","encoding","encoding","93","Umbrella_Classic.jpg","3",".","37","0","459"
"20","20","encoding","encoding","94","Hockey_Puck.jpg","1",".","37","0","505"
"20","20","encoding","encoding","95","BumperCar.jpg","3",".","37","0","482"
"20","20","encoding","encoding","96","Aquarium.jpg","3",".","37","0","512"
"20","20","encoding","encoding","97","Bleachers.jpg","3",".","37","0","395"
"20","20","encoding","encoding","98","Bleachers.jpg","3",".","37","0","332"
"20","20","encoding","encoding","99","WateringCan_Antique.jpg","3",".","37","0","402"
"20","20","encoding","encoding","100","Bus_School.jpg","1",".","37","0","393"
"20","20","encoding","encoding","101","Box_FirstAid.jpg","1",".","37","0","408"
"20","20","encoding","encoding","102","sign_traffic.jpg","3",".","37","0","376"
"20","20","encoding","encoding","103","Compact_Mirror.jpg","1",".","37","0","467"
"20","20","encoding","encoding","104","Cannon.jpg","3",".","37","0","402"
"20","20","encoding","encoding","105","Bag_Diaper.jpg","3",".","37","0","407"
"20","20","encoding","encoding","106","Bucket_Halloween.jpg","1",".","37","0","384"
"20","20","encoding","encoding","107","Lollipop_Rainbow.jpg","3",".","37","0","467"
"20","20","encoding","encoding","108","Walker_Blue.jpg","3",".","37","0","420"
"20","20","encoding","encoding","109","SelfieStick.jpg","3",".","37","0","415"
"20","20","encoding","encoding","110","House_Wooden.jpg","3",".","37","0","581"
"20","20","encoding","encoding","111","Helmet_Football.jpg","3",".","37","0","431"
"20","20","encoding","encoding","112","AirCompressor.jpg","3",".","37","0","391"
"20","20","encoding","encoding","113","Van.jpg","3",".","37","0","386"
"20","20","encoding","encoding","114","Bowl_Glass.jpg","3",".","37","0","450"
"20","20","encoding","encoding","115","Walker_Blue.jpg","3",".","37","0","418"
"20","20","encoding","encoding","116","Toy_LambPlushie.jpg","3",".","37","0","495"
"20","20","encoding","encoding","117","Weathervane.jpg","3",".","37","0","478"
"20","20","encoding","encoding","118","ManholeCover.jpg","3",".","37","0","551"
"20","20","encoding","encoding","119","Television.jpg","3",".","37","0","451"
"20","20","encoding","encoding","120","WaterWell.jpg","3",".","37","0","392"
"20","20","encoding","encoding","121","HairCurler.jpg","1",".","37","0","481"
"20","20","encoding","encoding","122","Barometer_Wood.jpg","3",".","37","0","414"
"20","20","encoding","encoding","123","SelfieStick.jpg","3",".","37","0","411"
"20","20","encoding","encoding","124","Bread_Carrot.jpg","3",".","0","0","1000"
"20","20","encoding","encoding","125","Envelope_Manila.jpg","3",".","37","0","884"
"20","20","encoding","encoding","126","Bandage_Adhesive.jpg","3",".","37","0","550"
"20","20","encoding","encoding","127","Tube_Glue.jpg","1",".","37","0","545"
"20","20","encoding","encoding","128","Thermometer_Room.jpg","3",".","37","0","426"
"20","20","encoding","encoding","129","Toolbox_BlackOpen.jpg","3",".","37","0","402"
"20","20","encoding","encoding","130","Milkshake_Strawberry.jpg","1",".","37","0","765"
"20","20","encoding","encoding","131","CodeDoorLock.jpg","3",".","37","0","538"
"20","20","encoding","encoding","133","Stove_WithOven.jpg","3",".","37","0","509"
"20","20","encoding","encoding","134","Carabiner_Orange.jpg","3",".","37","0","502"
"20","20","encoding","encoding","135","AirPump.jpg","1",".","37","0","377"
"20","20","encoding","encoding","136","SewingPin_Cushion.jpg","3",".","37","0","498"
"20","20","encoding","encoding","137","Bark.jpg","3",".","36","0","593"
"20","20","encoding","encoding","138","DoubleBass.jpg","1",".","37","0","402"
"20","20","encoding","encoding","139","WaterWell.jpg","3",".","37","0","545"
"20","20","encoding","encoding","140","Umbrella_Classic.jpg","3",".","37","0","453"
"20","20","encoding","encoding","141","Tube_Paint.jpg","1",".","37","0","438"
"20","20","encoding","encoding","142","Cinnamonroll.jpg","1",".","37","0","635"
"20","20","encoding","encoding","143","Taco.jpg","3",".","37","0","659"
"20","20","encoding","encoding","144","ManholeCover.jpg","3",".","37","0","572"
"20","20","encoding","encoding","145","Light_Fixtures.jpg","3",".","37","0","467"
"20","20","encoding","encoding","146","WateringCan_Antique.jpg","3",".","37","0","429"
"20","20","encoding","encoding","147","Chair_Office.jpg","3",".","37","0","396"
"20","20","encoding","encoding","148","Television.jpg","3",".","37","0","410"
"20","20","encoding","encoding","149","Chair_Office.jpg","3",".","37","0","415"
"20","20","encoding","encoding","150","Barometer_Wood.jpg","3",".","37","0","400"
"20","20","encoding","encoding","151","House_Wooden.jpg","3",".","37","0","437"
"20","20","encoding","encoding","152","PyramidWooden.jpg","3",".","37","0","493"
"20","20","encoding","encoding","153","Bread_Melon.jpg","1",".","37","0","565"
"20","20","encoding","encoding","154","WaterWell.jpg","3",".","37","0","432"
"20","20","encoding","encoding","155","MetalDetector.jpg","1",".","37","0","436"
"20","20","encoding","encoding","156","Lens_Camera.jpg","3",".","37","0","364"
"20","20","encoding","encoding","157","Spear.jpg","3",".","37","0","484"
"20","20","encoding","encoding","158","Makeup_Compact.jpg","3",".","37","0","415"
"20","20","encoding","encoding","159","HoseNozzle.jpg","1",".","37","0","465"
"20","20","encoding","encoding","160","Clave.jpg","1",".","37","0","449"
"20","20","encoding","encoding","161","Helmet_Football.jpg","3",".","37","0","356"
"20","20","encoding","encoding","162","Mug_Travel.jpg","3",".","37","0","284"
"20","20","encoding","encoding","163","CodeDoorLock.jpg","3",".","37","0","227"
"20","20","encoding","encoding","164","Hedgehog.jpg","3",".","37","0","253"
"20","20","encoding","encoding","165","Branch.jpg","3",".","36","0","648"
"20","20","encoding","encoding","166","Ship_Cruise.jpg","1",".","37","0","527"
"20","20","encoding","encoding","167","BumperCar.jpg","3",".","37","0","693"
"20","20","encoding","encoding","168","Hat_Colonial.jpg","1",".","37","0","415"
"20","20","encoding","encoding","169","Hubcap.jpg","1",".","37","0","356"
"20","20","encoding","encoding","170","AirCompressor.jpg","3",".","37","0","430"
"20","20","encoding","encoding","171","Scythe.jpg","3",".","37","0","486"
"20","20","encoding","encoding","172","Can_Oblong.jpg","1",".","37","0","594"
"20","20","encoding","encoding","173","FireAlarm.jpg","3",".","37","0","430"
"20","20","encoding","encoding","174","Statue_Horse.jpg","1",".","37","0","546"
"20","20","encoding","encoding","175","Amp.jpg","1",".","37","0","505"
"20","20","encoding","encoding","176","SofaAntique.jpg","3",".","37","0","497"
"20","20","encoding","encoding","177","Oars.jpg","3",".","37","0","426"
"20","20","encoding","encoding","178","Cable_JumpStart.jpg","3",".","37","0","557"
"20","20","encoding","encoding","179","Mailbox_Community.jpg","3",".","37","0","435"
"20","20","encoding","encoding","180","TortillaChip.jpg","3",".","36","0","713"
"20","20","encoding","encoding","181","Makeup_Compact.jpg","3",".","37","0","408"
"20","20","encoding","encoding","182","LifeJacket_Orangejpg.jpg","3",".","37","0","436"
"20","20","encoding","encoding","183","Platter_Vegetables.jpg","1",".","37","0","858"
"20","20","encoding","encoding","184","Arch_Triomphe.jpg","3",".","37","0","501"
"20","20","encoding","encoding","185","Light_Studio.jpg","1",".","37","0","454"
"20","20","encoding","encoding","186","Bread_Carrot.jpg","3",".","37","0","684"
"20","20","encoding","encoding","187","Cassette_Video.jpg","3",".","37","0","471"
"20","20","encoding","encoding","188","Bleachers.jpg","3",".","37","0","368"
"20","20","encoding","encoding","189","SofaAntique.jpg","3",".","37","0","445"
"20","20","encoding","encoding","190","Cake_Cheese.jpg","1",".","37","0","768"
"20","20","encoding","encoding","191","Mailbox_Community.jpg","3",".","37","0","428"
"20","20","encoding","encoding","192","Wire_ElectricalSingle.jpg","3",".","37","0","435"
"20","20","encoding","encoding","193","Corkboard.jpg","3",".","37","0","531"
"20","20","encoding","encoding","194","Fork_Regular.jpg","1",".","37","0","415"
"20","20","encoding","encoding","195","Nuts_Pecan.jpg","3",".","37","0","621"
"20","20","encoding","encoding","196","SofaAntique.jpg","3",".","37","0","492"
"20","20","encoding","encoding","197","FireAlarm.jpg","3",".","37","0","458"
"20","20","encoding","encoding","199","BumperCar.jpg","3",".","37","0","556"
"20","20","encoding","encoding","200","Cymbals.jpg","3",".","37","0","466"
"20","20","encoding","encoding","201","Mailbox_Antique.jpg","3",".","37","0","408"
"20","20","encoding","encoding","202","Cannon.jpg","3",".","37","0","382"
"20","20","encoding","encoding","203","Wire_ElectricalSingle.jpg","3",".","37","0","441"
"20","20","encoding","encoding","204","TortillaChip.jpg","3",".","37","0","776"
"20","20","encoding","encoding","205","Carabiner_Orange.jpg","3",".","37","0","506"
"20","20","encoding","encoding","206","Stool_Metal.jpg","3",".","37","0","399"
"20","20","encoding","encoding","207","Backpack_Suitcase.jpg","3",".","37","0","404"
"20","20","encoding","encoding","208","Garlic_Whole.jpg","3",".","36","0","587"
"20","20","encoding","encoding","209","Envelope_Manila.jpg","3",".","37","0","395"
"20","20","encoding","encoding","210","PyramidWooden.jpg","3",".","37","0","499"
"20","20","encoding","encoding","211","Weathervane.jpg","3",".","37","0","433"
"20","20","encoding","encoding","212","Chair_Office.jpg","3",".","37","0","444"
"20","20","encoding","encoding","213","Gecko.jpg","3",".","36","0","594"
"20","20","encoding","encoding","214","LifeJacket_Orangejpg.jpg","3",".","37","0","377"
"20","20","encoding","encoding","215","Gecko.jpg","3",".","36","0","540"
"20","20","encoding","encoding","216","Handbag.jpg","1",".","37","0","316"
"20","20","encoding","encoding","217","Sign_Construction.jpg","1",".","37","0","408"
"20","20","encoding","encoding","218","Backpack_Suitcase.jpg","3",".","37","0","445"
"20","20","encoding","encoding","219","Spatula.jpg","3",".","37","0","438"
"20","20","encoding","encoding","220","Bone.jpg","1",".","36","0","642"
"20","20","encoding","encoding","221","Cable_JumpStart.jpg","3",".","37","0","294"
"20","20","encoding","encoding","222","Bark.jpg","3",".","36","0","584"
"20","20","encoding","encoding","223","Bowl_Glass.jpg","3",".","37","0","378"
"20","20","encoding","encoding","224","Table_Saw.jpg","1",".","37","0","389"
"20","20","encoding","encoding","225","Nuts_Pecan.jpg","3",".","36","0","567"
"20","20","encoding","encoding","226","Bible.jpg","3",".","37","0","437"
"20","20","encoding","encoding","227","sign_traffic.jpg","3",".","37","0","412"
"20","20","encoding","encoding","228","Bread_Roll.jpg","1",".","37","0","739"
"20","20","encoding","encoding","229","CoffeeLid.jpg","1",".","37","0","554"
"20","20","encoding","encoding","230","Cymbals.jpg","3",".","37","0","419"
"20","20","encoding","encoding","231","MechanicalSpring.jpg","3",".","37","0","435"
"20","20","encoding","encoding","232","Carabiner_Orange.jpg","3",".","37","0","422"
"20","20","encoding","encoding","233","Mailbox_Antique.jpg","3",".","37","0","442"
"20","20","encoding","encoding","234","Garlic_Whole.jpg","3",".","37","0","374"
"20","20","encoding","encoding","235","Corkboard.jpg","3",".","37","0","471"
"20","20","encoding","encoding","236","Scythe.jpg","3",".","37","0","461"
"20","20","encoding","encoding","237","Briefcase_Silver.jpg","1",".","37","0","480"
"20","20","encoding","encoding","238","SatelliteDish.jpg","1",".","37","0","516"
"20","20","encoding","encoding","239","Toy_MerryGoRound.jpg","3",".","37","0","633"
"20","20","encoding","encoding","240","MechanicalSpring.jpg","3",".","37","0","414"
"20","20","encoding","encoding","241","PyramidWooden.jpg","3",".","37","0","459"
"20","20","encoding","encoding","242","Cymbals.jpg","3",".","37","0","461"
"20","20","encoding","encoding","243","AirCompressor.jpg","3",".","37","0","479"
"20","20","encoding","encoding","244","Crab.jpg","1",".","36","0","673"
"20","20","encoding","encoding","245","Television.jpg","3",".","37","0","419"
"20","20","encoding","encoding","246","Mailbox_Antique.jpg","3",".","37","0","464"
"20","20","encoding","encoding","247","Toy_Truck.jpg","3",".","37","0","484"
"20","20","encoding","encoding","248","Bread_Loaf.jpg","1",".","37","0","631"
"20","20","encoding","encoding","249","Toy_Lizard.jpg","3",".","36","0","599"
"20","20","encoding","encoding","250","Light_Fixtures.jpg","3",".","37","0","460"
"20","20","encoding","encoding","251","DartBoard.jpg","3",".","37","0","381"
"20","20","encoding","encoding","252","Barbecue_Charcoal.jpg","1",".","37","0","542"
"20","20","encoding","encoding","253","Toy_MerryGoRound.jpg","3",".","37","0","462"
"20","20","encoding","encoding","254","Cable_JumpStart.jpg","3",".","37","0","395"
"20","20","encoding","encoding","255","Bird_Duck.jpg","3",".","36","0","546"
"20","20","encoding","encoding","256","Spear.jpg","3",".","37","0","578"
"20","20","encoding","encoding","257","Light_Halogen.jpg","3",".","37","0","373"
"20","20","encoding","encoding","258","Canister_Oil.jpg","1",".","37","0","492"
"20","20","encoding","encoding","259","Aquarium.jpg","3",".","37","0","652"
"20","20","encoding","encoding","260","Toy_MerryGoRound.jpg","3",".","37","0","404"
"20","20","encoding","encoding","261","Toolbox_BlackOpen.jpg","3",".","37","0","392"
"20","20","encoding","encoding","262","Statue_Man.jpg","3",".","37","0","436"
"20","20","encoding","encoding","263","FireAlarm.jpg","3",".","37","0","412"
"20","20","encoding","encoding","265","Lollipop_Rainbow.jpg","3",".","37","0","468"
"20","20","encoding","encoding","266","SolderingWire.jpg","1",".","37","0","475"
"20","20","encoding","encoding","267","Heelpad.jpg","1",".","37","0","572"
"20","20","encoding","encoding","268","Taco.jpg","3",".","37","0","632"
"20","20","encoding","encoding","269","Toy_LambPlushie.jpg","3",".","37","0","526"
"20","20","encoding","encoding","270","Earring_Hoop.jpg","1",".","37","0","407"
"20","20","encoding","encoding","271","Castle_Sand.jpg","3",".","37","0","515"
"20","20","encoding","encoding","272","Arch_Triomphe.jpg","3",".","37","0","381"
"20","20","encoding","encoding","273","Envelope_Manila.jpg","3",".","37","0","418"
"20","20","encoding","encoding","274","Clock_Interior.jpg","3",".","37","0","384"
"20","20","encoding","encoding","275","Thermometer_Room.jpg","3",".","37","0","509"
"20","20","encoding","encoding","276","MousepadAndMouse.jpg","1",".","37","0","736"
"20","20","encoding","encoding","277","Radish.jpg","1",".","36","0","683"
"20","20","encoding","encoding","278","Acorn.jpg","1",".","36","0","608"
"20","20","encoding","encoding","279","Bandage_Adhesive.jpg","3",".","37","0","402"
"20","20","encoding","encoding","280","Toolbox_BlackOpen.jpg","3",".","37","0","237"
"20","20","encoding","encoding","281","Clock_Interior.jpg","3",".","37","0","383"
"20","20","encoding","encoding","282","Cassette_Video.jpg","3",".","37","0","433"
"20","20","encoding","encoding","283","WateringCan_Antique.jpg","3",".","37","0","452"
"20","20","encoding","encoding","284","Case_Pencil.jpg","1",".","37","0","527"
"20","20","encoding","encoding","285","Lantern_Chinese.jpg","1",".","37","0","435"
"20","20","encoding","encoding","286","Ladybug.jpg","3",".","37","0","348"
"20","20","encoding","encoding","287","Bird_Duck.jpg","3",".","36","0","572"
"20","20","encoding","encoding","288","IceCream_Popsicle.jpg","1",".","37","0","581"
"20","20","encoding","encoding","289","Van.jpg","3",".","37","0","385"
"20","20","encoding","encoding","290","Castle_Sand.jpg","3",".","37","0","452"
"20","20","encoding","encoding","291","SolderingIron.jpg","3",".","37","0","431"
"20","20","encoding","encoding","292","Hedgehog.jpg","3",".","36","0","567"
"20","20","encoding","encoding","293","Candy_Toffee.jpg","1",".","37","0","370"
"20","20","encoding","encoding","294","Jar_Honey.jpg","1",".","37","0","403"
"20","20","encoding","encoding","295","Spatula.jpg","3",".","37","0","488"
"20","20","encoding","encoding","296","sign_traffic.jpg","3",".","37","0","400"
"20","20","encoding","encoding","297","Bag_Diaper.jpg","3",".","37","0","399"
"20","20","encoding","encoding","298","Toy_Lizard.jpg","3",".","36","0","537"
"20","20","encoding","encoding","299","Branch.jpg","3",".","36","0","622"
"20","20","encoding","encoding","300","Carousel.jpg","1",".","37","0","423"
"20","20","encoding","encoding","301","Makeup_Compact.jpg","3",".","37","0","393"
"20","20","encoding","encoding","302","Stone_AncientWriting.jpg","1",".","37","0","418"
"20","20","encoding","encoding","303","Statue_Man.jpg","3",".","37","0","441"
"20","20","encoding","encoding","304","Toy_Lizard.jpg","3",".","36","0","593"
"20","20","encoding","encoding","305","PagodaModel.jpg","1",".","37","0","381"
"20","20","encoding","encoding","306","Helmet_Motorcycle.jpg","1",".","37","0","528"
"20","20","encoding","encoding","307","Helmet_Football.jpg","3",".","37","0","437"
"20","20","encoding","encoding","308","TortillaChip.jpg","3",".","37","0","833"
"20","20","encoding","encoding","309","Wontons.jpg","1",".","36","0","781"
"20","20","encoding","encoding","310","Glass_Beer.jpg","1",".","37","0","352"
"20","20","encoding","encoding","311","Flags_CheckeredRacing.jpg","1",".","37","0","419"
"20","20","encoding","encoding","312","Spatula.jpg","3",".","37","0","457"
"20","20","encoding","encoding","313","Bird_Duck.jpg","3",".","36","0","543"
"20","20","encoding","encoding","314","Hedgehog.jpg","3",".","36","0","511"
"20","20","encoding","encoding","315","Spear.jpg","3",".","37","0","378"
"20","20","encoding","encoding","316","Light_Halogen.jpg","3",".","37","0","428"
"20","20","encoding","encoding","317","Cassette_Video.jpg","3",".","37","0","417"
"20","20","encoding","encoding","318","CarSuspension.jpg","1",".","37","0","415"
"20","20","encoding","encoding","319","Ladybug.jpg","3",".","36","0","517"
"20","20","encoding","encoding","320","SewingPin_Cushion.jpg","3",".","37","0","553"
"20","20","encoding","encoding","321","Barometer_Wood.jpg","3",".","37","0","491"
"20","20","encoding","encoding","322","Umbrella_Classic.jpg","3",".","37","0","457"
"20","20","encoding","encoding","323","MechanicalSpring.jpg","3",".","37","0","390"
"20","20","encoding","encoding","324","Tree_Fir.jpg","3",".","36","0","532"
"20","20","encoding","encoding","325","Lens_Camera.jpg","",".","37","0","418"
"20","20","retrieval","old_object","1","Makeup_Compact.jpg",".","3","36","1","970"
"20","20","retrieval","new_object","2","Backhoe.jpg",".",".","37","1","836"
"20","20","retrieval","new_object","3","GrillRack.jpg",".",".","37","1","936"
"20","20","retrieval","old_object","4","Glass_Beer.jpg",".","1","36","1","768"
"20","20","retrieval","old_object","5","SofaAntique.jpg",".","3","36","1","888"
"20","20","retrieval","new_object","6","FuzzyDice.jpg",".",".","37","1","641"
"20","20","retrieval","old_object","7","Earring_Hoop.jpg",".","1","36","1","921"
"20","20","retrieval","old_object","8","Lens_Camera.jpg",".","3","36","1","799"
"20","20","retrieval","new_object","9","Toy_Taxi.jpg",".",".","37","1","872"
"20","20","retrieval","old_object","10","IceCream_Popsicle.jpg",".","1","36","1","836"
"20","20","retrieval","old_object","11","Bus_School.jpg",".","1","36","1","822"
"20","20","retrieval","old_object","12","Van.jpg",".","3","36","1","737"
"20","20","retrieval","new_object","13","VinylRecord.jpg",".",".","37","1","757"
"20","20","retrieval","new_object","14","TowelRack_Brown.jpg",".",".","37","1","924"
"20","20","retrieval","old_object","15","PocketKnife.jpg",".","1","36","1","931"
"20","20","retrieval","new_object","16","Tray_Medical.jpg",".",".","37","1","736"
"20","20","retrieval","old_object","17","Ladybug.jpg",".","3","36","1","767"
"20","20","retrieval","old_object","18","Briefcase_Silver.jpg",".","1","37","0","840"
"20","20","retrieval","new_object","19","LeafBlower.jpg",".",".","37","1","1104"
"20","20","retrieval","new_object","20","Bicycle_Kids.jpg",".",".","37","1","714"
"20","20","retrieval","old_object","21","Scythe.jpg",".","3","36","1","753"
"20","20","retrieval","old_object","22","Gecko.jpg",".","3","36","1","884"
"20","20","retrieval","new_object","23","Barrel_Wine.jpg",".",".","37","1","790"
"20","20","retrieval","old_object","24","Taco.jpg",".","3","36","1","732"
"20","20","retrieval","new_object","25","Level.jpg",".",".","37","1","798"
"20","20","retrieval","new_object","26","Dice.jpg",".",".","37","1","628"
"20","20","retrieval","old_object","27","Handbag.jpg",".","1","37","0","966"
"20","20","retrieval","new_object","28","Cheeseburger.jpg",".",".","37","1","804"
"20","20","retrieval","old_object","29","Box_FirstAid.jpg",".","1","36","1","877"
"20","20","retrieval","old_object","30","Statue_Man.jpg",".","3","36","1","631"
"20","20","retrieval","new_object","31","Ostrich.jpg",".",".","37","1","689"
"20","20","retrieval","new_object","32","Celery.jpg",".",".","37","1","1057"
"20","20","retrieval","new_object","33","Notepad.jpg",".",".","37","1","925"
"20","20","retrieval","new_object","34","ComputerKey_Escape.jpg",".",".","37","1","792"
"20","20","retrieval","old_object","35","AirCompressor.jpg",".","3","36","1","850"
"20","20","retrieval","new_object","36","HairBand.jpg",".",".","37","1","730"
"20","20","retrieval","old_object","37","Bleachers.jpg",".","3","36","1","864"
"20","20","retrieval","new_object","38","Ruler_Wooden.jpg",".",".","37","1","853"
"20","20","retrieval","old_object","39","MetalDetector.jpg",".","1","36","1","1079"
"20","20","retrieval","new_object","40","VacuumHose.jpg",".",".","37","1","1119"
"20","20","retrieval","new_object","41","Toy_Rooster.jpg",".",".","37","1","754"
"20","20","retrieval","new_object","42","Broccoli.jpg",".",".","37","1","921"
"20","20","retrieval","new_object","43","Fan_Straw.jpg",".",".","37","1","773"
"20","20","retrieval","old_object","44","Cart_Janitor.jpg",".","1","36","1","981"
"20","20","retrieval","old_object","45","Bark.jpg",".","3","36","1","780"
"20","20","retrieval","new_object","46","ColoringSet.jpg",".",".","37","1","728"
"20","20","retrieval","old_object","47","Barometer_Wood.jpg",".","3","36","1","992"
"20","20","retrieval","new_object","48","Sphinx.jpg",".",".","37","1","741"
"20","20","retrieval","new_object","49","Shrimp.jpg",".",".","37","1","1013"
"20","20","retrieval","new_object","50","Camera_Video.jpg",".",".","37","1","918"
"20","20","retrieval","old_object","51","LicensePlate.jpg",".","1","36","1","906"
"20","20","retrieval","old_object","52","Aquarium.jpg",".","3","36","1","763"
"20","20","retrieval","new_object","53","Match.jpg",".",".","37","1","776"
"20","20","retrieval","new_object","54","Coral.jpg",".",".","37","1","1090"
"20","20","retrieval","new_object","55","Toy_TrailerAirport.jpg",".",".","37","1","833"
"20","20","retrieval","new_object","56","Stone_Spa.jpg",".",".","37","1","759"
"20","20","retrieval","old_object","57","Weathervane.jpg",".","3","36","1","918"
"20","20","retrieval","new_object","58","Bagpipes.jpg",".",".","37","1","795"
"20","20","retrieval","new_object","59","Sink_Kitchen.jpg",".",".","37","1","1057"
"20","20","retrieval","old_object","60","Clock_Interior.jpg",".","3","36","1","909"
"20","20","retrieval","old_object","61","PumiceStone.jpg",".","1","36","1","809"
"20","20","retrieval","old_object","62","CoffeeLid.jpg",".","1","37","0","1035"
"20","20","retrieval","new_object","63","Golf_Club.jpg",".",".","37","1","969"
"20","20","retrieval","old_object","64","HoseNozzle.jpg",".","1","36","1","1248"
"20","20","retrieval","new_object","65","Pear_Green.jpg",".",".","37","1","769"
"20","20","retrieval","new_object","67","Box_Cutlery.jpg",".",".","37","1","1384"
"20","20","retrieval","old_object","68","Castle_Sand.jpg",".","3","36","1","880"
"20","20","retrieval","new_object","69","Clamp_Screw.jpg",".",".","37","1","789"
"20","20","retrieval","new_object","70","Cloud.jpg",".",".","37","1","902"
"20","20","retrieval","old_object","71","Table_Saw.jpg",".","1","37","0","964"
"20","20","retrieval","old_object","72","Desk_White.jpg",".","3","36","1","831"
"20","20","retrieval","old_object","73","Tube_Paint.jpg",".","1","36","1","951"
"20","20","retrieval","old_object","74","Corkboard.jpg",".","3","36","1","835"
"20","20","retrieval","new_object","75","TelescopeSpacecraft.jpg",".",".","37","1","834"
"20","20","retrieval","new_object","76","Scorpion.jpg",".",".","37","1","939"
"20","20","retrieval","old_object","77","AirPump.jpg",".","1","37","0","815"
"20","20","retrieval","old_object","78","Bandage_Adhesive.jpg",".","3","36","1","928"
"20","20","retrieval","old_object","79","Crab.jpg",".","1","36","1","760"
"20","20","retrieval","new_object","80","Pyramid.jpg",".",".","37","1","914"
"20","20","retrieval","new_object","81","Mitt_Blue.jpg",".",".","37","1","888"
"20","20","retrieval","new_object","82","ShinPads.jpg",".",".","37","1","940"
"20","20","retrieval","old_object","83","LifeJacket_Orangejpg.jpg",".","3","36","1","1028"
"20","20","retrieval","new_object","84","Toy_Firetruck.jpg",".",".","37","1","854"
"20","20","retrieval","old_object","85","Cake_Cheese.jpg",".","1","36","1","834"
"20","20","retrieval","old_object","86","sign_traffic.jpg",".","3","36","1","829"
"20","20","retrieval","new_object","87","Cologne.jpg",".",".","37","1","949"
"20","20","retrieval","old_object","88","Toy_LambPlushie.jpg",".","3","36","1","777"
"20","20","retrieval","new_object","89","MortarPestle_WhiteMarble.jpg",".",".","37","1","754"
"20","20","retrieval","old_object","90","DogSled.jpg",".","1","36","1","831"
"20","20","retrieval","old_object","91","Bowl_Glass.jpg",".","3","36","1","714"
"20","20","retrieval","old_object","92","Cable_JumpStart.jpg",".","3","36","1","752"
"20","20","retrieval","new_object","93","Makeup_Bag.jpg",".",".","37","1","736"
"20","20","retrieval","new_object","94","Mask_VenetianCat.jpg",".",".","37","1","706"
"20","20","retrieval","old_object","95","DartBoard.jpg",".","3","36","1","720"
"20","20","retrieval","old_object","96","Mask_Ski.jpg",".","1","36","1","758"
"20","20","retrieval","old_object","97","Garlic_Whole.jpg",".","3","36","1","701"
"20","20","retrieval","new_object","98","Pretzel_Sticks.jpg",".",".","37","1","726"
"20","20","retrieval","new_object","99","Card_Deck.jpg",".",".","37","1","699"
"20","20","retrieval","old_object","100","House_Wooden.jpg",".","3","36","1","968"
"20","20","retrieval","new_object","101","Clippers_Glass.jpg",".",".","37","1","821"
"20","20","retrieval","old_object","102","DoubleBass.jpg",".","1","37","0","875"
"20","20","retrieval","old_object","103","Bucket_Halloween.jpg",".","1","36","1","881"
"20","20","retrieval","new_object","104","Helicopter.jpg",".",".","37","1","747"
"20","20","retrieval","old_object","105","Clave.jpg",".","1","36","1","845"
"20","20","retrieval","old_object","106","SolderingIron.jpg",".","3","36","1","1396"
"20","20","retrieval","old_object","107","Stool_Metal.jpg",".","3","36","1","975"
"20","20","retrieval","old_object","108","Tube_Glue.jpg",".","1","37","0","895"
"20","20","retrieval","old_object","109","Backpack_Suitcase.jpg",".","3","36","1","920"
"20","20","retrieval","old_object","110","Television.jpg",".","3","36","1","781"
"20","20","retrieval","new_object","111","Tape_Dispenser.jpg",".",".","37","1","1352"
"20","20","retrieval","new_object","112","Car_Buggy.jpg",".",".","37","1","849"
"20","20","retrieval","new_object","113","FlintIgniter.jpg",".",".","37","1","1172"
"20","20","retrieval","old_object","114","Branch.jpg",".","3","36","1","746"
"20","20","retrieval","old_object","115","Arch_Triomphe.jpg",".","3","36","1","1138"
"20","20","retrieval","old_object","116","Acorn.jpg",".","1","36","1","853"
"20","20","retrieval","old_object","117","WaterWell.jpg",".","3","36","1","755"
"20","20","retrieval","new_object","118","Stick_IceHockey.jpg",".",".","37","1","1268"
"20","20","retrieval","new_object","119","Carrot.jpg",".",".","37","1","791"
"20","20","retrieval","new_object","120","SoapDish.jpg",".",".","37","1","824"
"20","20","retrieval","new_object","121","Toy_Wooden rings.jpg",".",".","37","1","1101"
"20","20","retrieval","new_object","122","Dropper.jpg",".",".","37","1","853"
"20","20","retrieval","new_object","123","ShoeLace_Flat.jpg",".",".","37","1","759"
"20","20","retrieval","old_object","124","Envelope_Manila.jpg",".","3","36","1","769"
"20","20","retrieval","new_object","125","Stool_Camping.jpg",".",".","37","1","769"
"20","20","retrieval","new_object","126","Squash_Butternut.jpg",".",".","37","1","779"
"20","20","retrieval","new_object","127","Shovel_Garden.jpg",".",".","37","1","1418"
"20","20","retrieval","new_object","128","Tray_Metal.jpg",".",".","37","1","922"
"20","20","retrieval","new_object","129","Hat_Police.jpg",".",".","37","1","766"
"20","20","retrieval","new_object","130","DonaldDuck_Toy.jpg",".",".","37","1","765"
"20","20","retrieval","new_object","131","Toy_BeadMaze.jpg",".",".","37","1","658"
"20","20","retrieval","new_object","133","Hat_Feather.jpg",".",".","37","1","641"
"20","20","retrieval","old_object","134","PulleyWooden.jpg",".","1","37","0","641"
"20","20","retrieval","old_object","135","MechanicalSpring.jpg",".","3","37","0","1038"
"20","20","retrieval","old_object","136","SolderingWire.jpg",".","1","37","0","918"
"20","20","retrieval","old_object","137","Nuts_Pecan.jpg",".","3","36","1","728"
"20","20","retrieval","old_object","138","Cinnamonroll.jpg",".","1","36","1","643"
"20","20","retrieval","old_object","139","Bottle_Beer.jpg",".","1","36","1","745"
"20","20","retrieval","old_object","140","TortillaChip.jpg",".","3","36","1","691"
"20","20","retrieval","old_object","141","Light_Studio.jpg",".","1","37","0","819"
"20","20","retrieval","old_object","142","Helmet_Football.jpg",".","3","36","1","866"
"20","20","retrieval","new_object","143","BowlingPin.jpg",".",".","37","1","661"
"20","20","retrieval","new_object","144","Snorkle.jpg",".",".","37","1","850"
"20","20","retrieval","old_object","145","ManholeCover.jpg",".","3","36","1","1106"
"20","20","retrieval","new_object","146","PaperTowel_Brown.jpg",".",".","37","1","692"
"20","20","retrieval","new_object","147","Suit_Women.jpg",".",".","37","1","535"
"20","20","retrieval","new_object","148","Dog_Bulldog.jpg",".",".","37","1","776"
"20","20","retrieval","new_object","149","Case_CD.jpg",".",".","37","1","588"
"20","20","retrieval","old_object","150","SewingPin_Cushion.jpg",".","3","36","1","801"
"20","20","retrieval","old_object","151","Oars.jpg",".","3","36","1","777"
"20","20","retrieval","new_object","152","Boat_Colourful.jpg",".",".","37","1","647"
"20","20","retrieval","new_object","153","Ginger.jpg",".",".","37","1","826"
"20","20","retrieval","new_object","154","Lynx.jpg",".",".","37","1","784"
"20","20","retrieval","old_object","155","Lollipop_Rainbow.jpg",".","3","36","1","837"
"20","20","retrieval","new_object","156","Snowpea.jpg",".",".","37","1","765"
"20","20","retrieval","new_object","157","Drum_Ramadan.jpg",".",".","37","1","704"
"20","20","retrieval","old_object","158","Bread_Roll.jpg",".","1","36","1","721"
"20","20","retrieval","new_object","159","Blueberry.jpg",".",".","37","1","677"
"20","20","retrieval","old_object","160","Mailbox_Antique.jpg",".","3","37","0","824"
"20","20","retrieval","new_object","161","Piano_Upright.jpg",".",".","37","1","1110"
"20","20","retrieval","old_object","162","PagodaModel.jpg",".","1","37","0","818"
"20","20","retrieval","old_object","163","Microwave.jpg",".","1","36","1","762"
"20","20","retrieval","new_object","164","Paddle_Ball.jpg",".",".","37","1","691"
"20","20","retrieval","old_object","165","Hedgehog.jpg",".","3","36","1","933"
"20","20","retrieval","old_object","166","Bird_Duck.jpg",".","3","36","1","786"
"20","20","retrieval","new_object","167","Puffin.jpg",".",".","37","1","738"
"20","20","retrieval","old_object","168","Canister_Oil.jpg",".","1","37","0","780"
"20","20","retrieval","new_object","169","Heater_ElectricUpright.jpg",".",".","37","1","829"
"20","20","retrieval","new_object","170","Compressor.jpg",".",".","37","1","1000"
"20","20","retrieval","old_object","171","Lighter_Black.jpg",".","1","37","0","720"
"20","20","retrieval","new_object","172","Shoes_Mould.jpg",".",".","37","1","812"
"20","20","retrieval","new_object","173","MatchBook.jpg",".",".","37","1","730"
"20","20","retrieval","new_object","174","Lips_Wax.jpg",".",".","37","1","708"
"20","20","retrieval","new_object","175","LintRemover.jpg",".",".","37","1","1054"
"20","20","retrieval","old_object","176","MemoPaperSpike.jpg",".","1","37","0","697"
"20","20","retrieval","old_object","177","Binder.jpg",".","3","36","1","783"
"20","20","retrieval","new_object","178","IceCubes.jpg",".",".","37","1","693"
"20","20","retrieval","new_object","179","Airplane_Small.jpg",".",".","37","1","922"
"20","20","retrieval","old_object","180","Platter_Vegetables.jpg",".","1","36","1","805"
"20","20","retrieval","new_object","181","BrainSagittal.jpg",".",".","37","1","696"
"20","20","retrieval","new_object","182","Speakers_Theatre.jpg",".",".","37","1","675"
"20","20","retrieval","old_object","183","Milkshake_Strawberry.jpg",".","1","36","1","755"
"20","20","retrieval","old_object","184","Ship_Cruise.jpg",".","1","36","1","935"
"20","20","retrieval","old_object","185","Candy_Lozenge.jpg",".","1","36","1","779"
"20","20","retrieval","old_object","186","Spear.jpg",".","3","36","1","1123"
"20","20","retrieval","old_object","187","Thermometer_Room.jpg",".","3","36","1","873"
"20","20","retrieval","new_object","188","ClothesDryingRack.jpg",".",".","37","1","779"
"20","20","retrieval","old_object","189","Wontons.jpg",".","1","36","1","874"
"20","20","retrieval","new_object","190","TowelRack_Metal.jpg",".",".","37","1","716"
"20","20","retrieval","new_object","191","WaterCooler.jpg",".",".","37","1","943"
"20","20","retrieval","new_object","192","Toy_Dog.jpg",".",".","37","1","885"
"20","20","retrieval","old_object","193","MousepadAndMouse.jpg",".","1","36","1","899"
"20","20","retrieval","old_object","194","Cassette_Video.jpg",".","3","36","1","921"
"20","20","retrieval","old_object","195","Stone_AncientWriting.jpg",".","1","36","1","867"
"20","20","retrieval","new_object","196","Coin.jpg",".",".","37","1","685"
"20","20","retrieval","new_object","197","WalkieTalkie_Yellow.jpg",".",".","37","1","883"
"20","20","retrieval","old_object","199","HairCurler.jpg",".","1","37","0","829"
"20","20","retrieval","new_object","200","RadioactiveContainer.jpg",".",".","37","1","617"
"20","20","retrieval","new_object","201","Desk_Office.jpg",".",".","36","0","715"
"20","20","retrieval","new_object","202","Canister_Tea.jpg",".",".","37","1","770"
"20","20","retrieval","new_object","203","Toy_Ladybug.jpg",".",".","37","1","707"
"20","20","retrieval","old_object","204","Trash_Medical.jpg",".","1","36","1","1061"
"20","20","retrieval","new_object","205","Heater_Outdoor.jpg",".",".","37","1","750"
"20","20","retrieval","old_object","206","Case_Pencil.jpg",".","1","37","0","678"
"20","20","retrieval","old_object","207","Amp.jpg",".","1","37","0","621"
"20","20","retrieval","old_object","208","PyramidWooden.jpg",".","3","36","1","741"
"20","20","retrieval","new_object","209","Protractor.jpg",".",".","37","1","760"
"20","20","retrieval","old_object","210","Sign_Construction.jpg",".","1","37","0","787"
"20","20","retrieval","old_object","211","Hockey_Puck.jpg",".","1","37","0","768"
"20","20","retrieval","old_object","212","GasStation.jpg",".","1","37","0","767"
"20","20","retrieval","new_object","213","EyeChart.jpg",".",".","37","1","613"
"20","20","retrieval","new_object","214","PowderProtein.jpg",".",".","37","1","754"
"20","20","retrieval","old_object","215","Cannon.jpg",".","3","36","1","838"
"20","20","retrieval","new_object","216","Otoscope.jpg",".",".","37","1","833"
"20","20","retrieval","new_object","217","Bucket_WoodenLight.jpg",".",".","37","1","689"
"20","20","retrieval","old_object","218","Fork_Regular.jpg",".","1","37","0","849"
"20","20","retrieval","new_object","219","Stick_Stirring.jpg",".",".","37","1","602"
"20","20","retrieval","old_object","220","Radish.jpg",".","1","36","1","776"
"20","20","retrieval","old_object","221","Helmet_Motorcycle.jpg",".","1","36","1","1099"
"20","20","retrieval","old_object","222","Barometer.jpg",".","1","37","0","1023"
"20","20","retrieval","old_object","223","Statue_Horse.jpg",".","1","37","0","735"
"20","20","retrieval","old_object","224","CodeDoorLock.jpg",".","3","36","1","814"
"20","20","retrieval","old_object","225","Cymbals.jpg",".","3","37","0","735"
"20","20","retrieval","new_object","226","Toy_Bat.jpg",".",".","37","1","736"
"20","20","retrieval","old_object","227","Bread_Loaf.jpg",".","1","37","0","985"
"20","20","retrieval","new_object","228","Lobster.jpg",".",".","37","1","846"
"20","20","retrieval","new_object","229","DeepFryer.jpg",".",".","37","1","802"
"20","20","retrieval","new_object","230","Boar.jpg",".",".","37","1","774"
"20","20","retrieval","new_object","231","Box_WoodCrate.jpg",".",".","37","1","876"
"20","20","retrieval","old_object","232","RAMchip.jpg",".","3","36","1","825"
"20","20","retrieval","new_object","233","Glasses_Sun.jpg",".",".","37","1","670"
"20","20","retrieval","new_object","234","Bus_DoubleDecker.jpg",".",".","37","1","654"
"20","20","retrieval","old_object","235","Toy_PandaPlushie.jpg",".","1","37","0","827"
"20","20","retrieval","new_object","236","Bag_Toiletry.jpg",".",".","37","1","634"
"20","20","retrieval","old_object","237","Toy_MerryGoRound.jpg",".","3","36","1","757"
"20","20","retrieval","new_object","238","PersonWooden.jpg",".",".","37","1","665"
"20","20","retrieval","old_object","239","Bone.jpg",".","1","36","1","746"
"20","20","retrieval","old_object","240","Barbecue_Charcoal.jpg",".","1","36","1","725"
"20","20","retrieval","new_object","241","TreeStump.jpg",".",".","37","1","982"
"20","20","retrieval","old_object","242","Light_Fixtures.jpg",".","3","36","1","887"
"20","20","retrieval","new_object","243","CDstack.jpg",".",".","36","0","1134"
"20","20","retrieval","old_object","244","Umbrella_Classic.jpg",".","3","36","1","875"
"20","20","retrieval","old_object","245","Chair_Office.jpg",".","3","36","1","735"
"20","20","retrieval","new_object","246","Sign_SlipperyRoad.jpg",".",".","37","1","712"
"20","20","retrieval","old_object","247","SelfieStick.jpg",".","3","37","0","806"
"20","20","retrieval","new_object","248","Mat_Bamboo.jpg",".",".","37","1","770"
"20","20","retrieval","old_object","249","Toy_Lizard.jpg",".","3","36","1","1066"
"20","20","retrieval","new_object","250","Puzzle_Animal.jpg",".",".","37","1","803"
"20","20","retrieval","new_object","251","Glove_Baseball.jpg",".",".","37","1","816"
"20","20","retrieval","new_object","252","Flashlight.jpg",".",".","37","1","760"
"20","20","retrieval","new_object","253","Toy_DonkeyFur.jpg",".",".","37","1","665"
"20","20","retrieval","new_object","254","Pasta_Fettuccine.jpg",".",".","37","1","659"
"20","20","retrieval","old_object","255","Lantern_Chinese.jpg",".","1","37","0","793"
"20","20","retrieval","old_object","256","Compact_Mirror.jpg",".","1","37","0","683"
"20","20","retrieval","new_object","257","Dragonfly.jpg",".",".","37","1","733"
"20","20","retrieval","new_object","258","PaperCutter.jpg",".",".","37","1","863"
"20","20","retrieval","old_object","259","Mug_Travel.jpg",".","3","36","1","821"
"20","20","retrieval","old_object","260","Hanger.jpg",".","1","37","0","711"
"20","20","retrieval","old_object","261","PencilCase.jpg",".","1","36","1","915"
"20","20","retrieval","old_object","262","Cup_Bathroom.jpg",".","1","37","0","769"
"20","20","retrieval","old_object","263","CarSuspension.jpg",".","1","37","0","731"
"20","20","retrieval","old_object","265","Toolbox_BlackOpen.jpg",".","3","37","0","1239"
"20","20","retrieval","old_object","266","FireAlarm.jpg",".","3","37","0","676"
"20","20","retrieval","new_object","267","Paddle_Canoe.jpg",".",".","36","0","1329"
"20","20","retrieval","old_object","268","Wire_ElectricalSingle.jpg",".","3","36","1","1092"
"20","20","retrieval","new_object","269","IroningBoard.jpg",".",".","37","1","707"
"20","20","retrieval","old_object","270","ProjectorScreen.jpg",".","1","36","1","900"
"20","20","retrieval","old_object","271","Spatula.jpg",".","3","36","1","867"
"20","20","retrieval","old_object","272","Bag_Diaper.jpg",".","3","37","0","666"
"20","20","retrieval","new_object","273","Toy_BearBrownPlushie.jpg",".",".","37","1","913"
"20","20","retrieval","old_object","274","WateringCan_Antique.jpg",".","3","36","1","1247"
"20","20","retrieval","old_object","275","Mask_HockeyGoalie.jpg",".","3","36","1","840"
"20","20","retrieval","old_object","276","Can_Oblong.jpg",".","1","37","0","627"
"20","20","retrieval","old_object","277","Walker_Blue.jpg",".","3","36","1","755"
"20","20","retrieval","new_object","278","NailFiles.jpg",".",".","37","1","762"
"20","20","retrieval","old_object","279","Tree_Fir.jpg",".","3","36","1","681"
"20","20","retrieval","new_object","280","Candleholder_LampShaped.jpg",".",".","37","1","754"
"20","20","retrieval","new_object","281","SnowmanDecor.jpg",".",".","37","1","851"
"20","20","retrieval","new_object","282","Pouch_Red.jpg",".",".","37","1","660"
"20","20","retrieval","old_object","283","Flags_CheckeredRacing.jpg",".","1","37","0","748"
"20","20","retrieval","old_object","284","Light_Halogen.jpg",".","3","36","1","889"
"20","20","retrieval","new_object","285","RecorderInstrument.jpg",".",".","37","1","714"
"20","20","retrieval","old_object","286","Candy_Toffee.jpg",".","1","36","1","785"
"20","20","retrieval","new_object","287","Computer_ExpansionCard.jpg",".",".","37","1","1004"
"20","20","retrieval","old_object","288","Hat_Colonial.jpg",".","1","37","0","1315"
"20","20","retrieval","new_object","289","Jars_PetFood.jpg",".",".","37","1","682"
"20","20","retrieval","old_object","290","Jar_Honey.jpg",".","1","37","0","765"
"20","20","retrieval","new_object","291","Toy_Christmastree.jpg",".",".","37","1","756"
"20","20","retrieval","new_object","292","Decoration_ChristmasWhite.jpg",".",".","37","1","709"
"20","20","retrieval","old_object","293","Stove_WithOven.jpg",".","3","37","0","976"
"20","20","retrieval","new_object","294","Card_TwoSpade.jpg",".",".","37","1","666"
"20","20","retrieval","new_object","295","CarLighter.jpg",".",".","37","1","796"
"20","20","retrieval","new_object","296","Walkman.jpg",".",".","37","1","704"
"20","20","retrieval","new_object","297","SaladCaesar.jpg",".",".","37","1","780"
"20","20","retrieval","new_object","298","Sandwich_Ham.jpg",".",".","37","1","765"
"20","20","retrieval","old_object","299","Carousel.jpg",".","1","36","1","886"
"20","20","retrieval","old_object","300","Bat_Cricket.jpg",".","1","36","1","1222"
"20","20","retrieval","new_object","301","Bowl_Chopsticks.jpg",".",".","37","1","878"
"20","20","retrieval","old_object","302","BumperCar.jpg",".","3","36","1","1049"
"20","20","retrieval","old_object","303","Brush_Light.jpg",".","1","37","0","866"
"20","20","retrieval","new_object","304","OperaGlasses.jpg",".",".","37","1","930"
"20","20","retrieval","old_object","305","Mailbox_Community.jpg",".","3","36","1","1175"
"20","20","retrieval","new_object","306","Balcony.jpg",".",".","37","1","702"
"20","20","retrieval","new_object","307","PumpBreast.jpg",".",".","37","1","669"
"20","20","retrieval","new_object","308","Garlic_Clove.jpg",".",".","37","1","1070"
"20","20","retrieval","new_object","309","Shirt_Tshirt.jpg",".",".","37","1","639"
"20","20","retrieval","old_object","310","Toy_Truck.jpg",".","3","37","0","1449"
"20","20","retrieval","new_object","311","WaterHeater.jpg",".",".","37","1","732"
"20","20","retrieval","old_object","312","Heelpad.jpg",".","1","36","1","853"
"20","20","retrieval","new_object","313","Nail.jpg",".",".","37","1","662"
"20","20","retrieval","new_object","314","HairClipper.jpg",".",".","37","1","870"
"20","20","retrieval","old_object","315","Bread_Melon.jpg",".","1","36","1","924"
"20","20","retrieval","old_object","316","Bread_Carrot.jpg",".","3","37","0","1090"
"20","20","retrieval","old_object","317","Hubcap.jpg",".","1","37","0","723"
"20","20","retrieval","old_object","318","Carabiner_Orange.jpg",".","3","36","1","1169"
"20","20","retrieval","old_object","319","SatelliteDish.jpg",".","1","36","1","963"
"20","20","retrieval","new_object","320","Suitcase.jpg",".",".","37","1","736"
"20","20","retrieval","new_object","321","Neckrest.jpg",".",".","37","1","765"
"20","20","retrieval","new_object","322","Seeder.jpg",".",".","37","1","1154"
"20","20","retrieval","old_object","323","TailLight.jpg",".","1","36","1","1338"
"20","20","retrieval","new_object","324","Pasta_Fettuccine.jpg",".",".","36","0","924"
"20","20","retrieval","old_object","325","Bible.jpg",".","3","36","1","899"
"20","20","demographics_block","gender","1",".",".",".","male","1","21632"
"20","20","demographics_block","age","1",".",".",".","33","1","21632"
"20","20","demographics_block","education","1",".",".",".","16","1","21632"
"20","20","demographics_block","left_right_handed","2",".",".",".","Right","1","12750"
"20","20","demographics_block","raceoption1","2",".",".",".","","1","12750"
"20","20","demographics_block","raceoption2","2",".",".",".","","1","12750"
"20","20","demographics_block","raceoption3","2",".",".",".","2","1","12750"
"20","20","demographics_block","raceoption4","2",".",".",".","","1","12750"
"20","20","demographics_block","raceoption5","2",".",".",".","","1","12750"
"20","20","demographics_block","raceoption6","2",".",".",".","","1","12750"
"20","20","demographics_block","raceoption7","2",".",".",".","","1","12750"
"20","20","demographics_block","raceoption8","2",".",".",".","","1","12750"
"20","20","demographics_block","raceoption9","2",".",".",".","","1","12750"
"20","20","demographics_block","raceother","2",".",".",".","","1","12750"
"20","20","demographics_block","raceother","2",".",".",".","","1","12750"
"20","20","demographics_block","english_language","2",".",".",".","Yes","1","12750"
"20","20","demographics_block","other","2",".",".",".","","1","12750"
"20","20","demographics_block","eyesight","3",".",".",".","Yes","1","5420"
"20","20","demographics_block","colorblind","3",".",".",".","No","1","5420"
"24","24","encoding","encoding","1","Lens_Camera.jpg","3",".","37","0","473"
"24","24","encoding","encoding","2","Taco.jpg","3",".","36","0","763"
"24","24","encoding","encoding","3","DartBoard.jpg","3",".","37","0","743"
"24","24","encoding","encoding","4","Ladybug.jpg","3",".","36","0","737"
"24","24","encoding","encoding","5","Desk_White.jpg","3",".","37","0","591"
"24","24","encoding","encoding","6","Cart_Janitor.jpg","1",".","37","0","717"
"24","24","encoding","encoding","7","PencilCase.jpg","1",".","37","0","581"
"24","24","encoding","encoding","8","SewingPin_Cushion.jpg","3",".","37","0","662"
"24","24","encoding","encoding","9","Cannon.jpg","3",".","37","0","571"
"24","24","encoding","encoding","10","MemoPaperSpike.jpg","1",".","37","0","660"
"24","24","encoding","encoding","11","Cup_Bathroom.jpg","1",".","37","0","563"
"24","24","encoding","encoding","12","ProjectorScreen.jpg","1",".","37","0","689"
"24","24","encoding","encoding","13","Wire_ElectricalSingle.jpg","3",".","37","0","637"
"24","24","encoding","encoding","14","Bible.jpg","3",".","37","0","547"
"24","24","encoding","encoding","15","Microwave.jpg","1",".","37","0","607"
"24","24","encoding","encoding","16","Tree_Fir.jpg","3",".","36","0","504"
"24","24","encoding","encoding","17","PumiceStone.jpg","1",".","37","0","799"
"24","24","encoding","encoding","18","Hanger.jpg","1",".","37","0","629"
"24","24","encoding","encoding","19","Binder.jpg","3",".","37","0","829"
"24","24","encoding","encoding","20","Barometer.jpg","1",".","37","0","606"
"24","24","encoding","encoding","21","Branch.jpg","3",".","36","0","508"
"24","24","encoding","encoding","22","LicensePlate.jpg","1",".","37","0","560"
"24","24","encoding","encoding","23","Bat_Cricket.jpg","1",".","37","0","586"
"24","24","encoding","encoding","24","Binder.jpg","3",".","37","0","622"
"24","24","encoding","encoding","25","Mailbox_Community.jpg","3",".","37","0","671"
"24","24","encoding","encoding","26","Candy_Lozenge.jpg","1",".","37","0","710"
"24","24","encoding","encoding","27","Oars.jpg","3",".","37","0","717"
"24","24","encoding","encoding","28","CodeDoorLock.jpg","3",".","37","0","706"
"24","24","encoding","encoding","29","Mask_HockeyGoalie.jpg","3",".","37","0","647"
"24","24","encoding","encoding","30","Mask_HockeyGoalie.jpg","3",".","37","0","515"
"24","24","encoding","encoding","31","Trash_Medical.jpg","1",".","37","0","750"
"24","24","encoding","encoding","32","Lighter_Black.jpg","1",".","37","0","535"
"24","24","encoding","encoding","33","SelfieStick.jpg","3",".","37","0","571"
"24","24","encoding","encoding","34","Castle_Sand.jpg","3",".","36","0","925"
"24","24","encoding","encoding","35","Nuts_Pecan.jpg","3",".","0","0","1000"
"24","24","encoding","encoding","36","Bottle_Beer.jpg","1",".","37","0","806"
"24","24","encoding","encoding","37","Statue_Man.jpg","3",".","37","0","615"
"24","24","encoding","encoding","38","DartBoard.jpg","3",".","37","0","540"
"24","24","encoding","encoding","39","RAMchip.jpg","3",".","37","0","580"
"24","24","encoding","encoding","40","GasStation.jpg","1",".","37","0","492"
"24","24","encoding","encoding","41","Toy_Truck.jpg","3",".","37","0","491"
"24","24","encoding","encoding","42","Arch_Triomphe.jpg","3",".","37","0","494"
"24","24","encoding","encoding","43","Binder.jpg","3",".","37","0","485"
"24","24","encoding","encoding","44","ManholeCover.jpg","3",".","37","0","469"
"24","24","encoding","encoding","45","Stove_WithOven.jpg","3",".","37","0","454"
"24","24","encoding","encoding","46","Mask_HockeyGoalie.jpg","3",".","37","0","409"
"24","24","encoding","encoding","47","RAMchip.jpg","3",".","37","0","466"
"24","24","encoding","encoding","48","Bowl_Glass.jpg","3",".","37","0","460"
"24","24","encoding","encoding","49","SolderingIron.jpg","3",".","37","0","441"
"24","24","encoding","encoding","50","PocketKnife.jpg","1",".","36","0","824"
"24","24","encoding","encoding","51","Toy_PandaPlushie.jpg","1",".","37","0","737"
"24","24","encoding","encoding","52","Weathervane.jpg","3",".","37","0","599"
"24","24","encoding","encoding","53","Mask_Ski.jpg","1",".","37","0","588"
"24","24","encoding","encoding","54","Tree_Fir.jpg","3",".","36","0","571"
"24","24","encoding","encoding","55","Corkboard.jpg","3",".","37","0","550"
"24","24","encoding","encoding","56","Desk_White.jpg","3",".","37","0","465"
"24","24","encoding","encoding","57","Stove_WithOven.jpg","3",".","37","0","459"
"24","24","encoding","encoding","58","Mug_Travel.jpg","3",".","37","0","456"
"24","24","encoding","encoding","59","Garlic_Whole.jpg","3",".","0","0","1000"
"24","24","encoding","encoding","60","PulleyWooden.jpg","1",".","37","0","845"
"24","24","encoding","encoding","61","Bandage_Adhesive.jpg","3",".","37","0","791"
"24","24","encoding","encoding","62","SolderingIron.jpg","3",".","37","0","521"
"24","24","encoding","encoding","63","Light_Halogen.jpg","3",".","37","0","470"
"24","24","encoding","encoding","64","House_Wooden.jpg","3",".","37","0","660"
"24","24","encoding","encoding","65","Lollipop_Rainbow.jpg","3",".","37","0","606"
"24","24","encoding","encoding","67","Walker_Blue.jpg","3",".","37","0","504"
"24","24","encoding","encoding","68","Thermometer_Room.jpg","3",".","37","0","548"
"24","24","encoding","encoding","69","TailLight.jpg","1",".","37","0","579"
"24","24","encoding","encoding","70","Oars.jpg","3",".","37","0","459"
"24","24","encoding","encoding","71","Gecko.jpg","3",".","36","0","580"
"24","24","encoding","encoding","72","Aquarium.jpg","3",".","0","0","1000"
"24","24","encoding","encoding","73","Toy_Truck.jpg","3",".","37","0","462"
"24","24","encoding","encoding","74","LifeJacket_Orangejpg.jpg","3",".","37","0","559"
"24","24","encoding","encoding","75","Bag_Diaper.jpg","3",".","37","0","521"
"24","24","encoding","encoding","76","Bark.jpg","3",".","36","0","698"
"24","24","encoding","encoding","77","Clock_Interior.jpg","3",".","37","0","588"
"24","24","encoding","encoding","78","Bread_Carrot.jpg","3",".","37","0","796"
"24","24","encoding","encoding","79","Desk_White.jpg","3",".","37","0","521"
"24","24","encoding","encoding","80","Scythe.jpg","3",".","37","0","478"
"24","24","encoding","encoding","81","Bible.jpg","3",".","37","0","456"
"24","24","encoding","encoding","82","DogSled.jpg","1",".","36","0","743"
"24","24","encoding","encoding","83","RAMchip.jpg","3",".","37","0","545"
"24","24","encoding","encoding","84","Light_Fixtures.jpg","3",".","37","0","576"
"24","24","encoding","encoding","85","Stool_Metal.jpg","3",".","37","0","502"
"24","24","encoding","encoding","86","Mug_Travel.jpg","3",".","37","0","391"
"24","24","encoding","encoding","87","Stool_Metal.jpg","3",".","37","0","391"
"24","24","encoding","encoding","88","Brush_Light.jpg","1",".","37","0","445"
"24","24","encoding","encoding","89","Van.jpg","3",".","37","0","415"
"24","24","encoding","encoding","90","Backpack_Suitcase.jpg","3",".","37","0","462"
"24","24","encoding","encoding","91","Toy_LambPlushie.jpg","3",".","37","0","652"
"24","24","encoding","encoding","92","Lens_Camera.jpg","3",".","37","0","442"
"24","24","encoding","encoding","93","Umbrella_Classic.jpg","3",".","37","0","428"
"24","24","encoding","encoding","94","Hockey_Puck.jpg","1",".","37","0","432"
"24","24","encoding","encoding","95","BumperCar.jpg","3",".","37","0","495"
"24","24","encoding","encoding","96","Aquarium.jpg","3",".","37","0","927"
"24","24","encoding","encoding","97","Bleachers.jpg","3",".","37","0","508"
"24","24","encoding","encoding","98","Bleachers.jpg","3",".","37","0","415"
"24","24","encoding","encoding","99","WateringCan_Antique.jpg","3",".","37","0","448"
"24","24","encoding","encoding","100","Bus_School.jpg","1",".","37","0","407"
"24","24","encoding","encoding","101","Box_FirstAid.jpg","1",".","37","0","422"
"24","24","encoding","encoding","102","sign_traffic.jpg","3",".","37","0","395"
"24","24","encoding","encoding","103","Compact_Mirror.jpg","1",".","37","0","428"
"24","24","encoding","encoding","104","Cannon.jpg","3",".","37","0","419"
"24","24","encoding","encoding","105","Bag_Diaper.jpg","3",".","37","0","355"
"24","24","encoding","encoding","106","Bucket_Halloween.jpg","1",".","37","0","539"
"24","24","encoding","encoding","107","Lollipop_Rainbow.jpg","3",".","37","0","393"
"24","24","encoding","encoding","108","Walker_Blue.jpg","3",".","37","0","431"
"24","24","encoding","encoding","109","SelfieStick.jpg","3",".","37","0","420"
"24","24","encoding","encoding","110","House_Wooden.jpg","3",".","37","0","389"
"24","24","encoding","encoding","111","Helmet_Football.jpg","3",".","37","0","422"
"24","24","encoding","encoding","112","AirCompressor.jpg","3",".","37","0","389"
"24","24","encoding","encoding","113","Van.jpg","3",".","37","0","383"
"24","24","encoding","encoding","114","Bowl_Glass.jpg","3",".","37","0","422"
"24","24","encoding","encoding","115","Walker_Blue.jpg","3",".","37","0","373"
"24","24","encoding","encoding","116","Toy_LambPlushie.jpg","3",".","37","0","425"
"24","24","encoding","encoding","117","Weathervane.jpg","3",".","37","0","435"
"24","24","encoding","encoding","118","ManholeCover.jpg","3",".","37","0","336"
"24","24","encoding","encoding","119","Television.jpg","3",".","37","0","390"
"24","24","encoding","encoding","120","WaterWell.jpg","3",".","37","0","389"
"24","24","encoding","encoding","121","HairCurler.jpg","1",".","37","0","418"
"24","24","encoding","encoding","122","Barometer_Wood.jpg","3",".","37","0","382"
"24","24","encoding","encoding","123","SelfieStick.jpg","3",".","37","0","416"
"24","24","encoding","encoding","124","Bread_Carrot.jpg","3",".","37","0","500"
"24","24","encoding","encoding","125","Envelope_Manila.jpg","3",".","37","0","409"
"24","24","encoding","encoding","126","Bandage_Adhesive.jpg","3",".","37","0","393"
"24","24","encoding","encoding","127","Tube_Glue.jpg","1",".","37","0","384"
"24","24","encoding","encoding","128","Thermometer_Room.jpg","3",".","37","0","404"
"24","24","encoding","encoding","129","Toolbox_BlackOpen.jpg","3",".","37","0","395"
"24","24","encoding","encoding","130","Milkshake_Strawberry.jpg","1",".","37","0","630"
"24","24","encoding","encoding","131","CodeDoorLock.jpg","3",".","37","0","412"
"24","24","encoding","encoding","133","Stove_WithOven.jpg","3",".","37","0","532"
"24","24","encoding","encoding","134","Carabiner_Orange.jpg","3",".","37","0","447"
"24","24","encoding","encoding","135","AirPump.jpg","1",".","37","0","464"
"24","24","encoding","encoding","136","SewingPin_Cushion.jpg","3",".","37","0","466"
"24","24","encoding","encoding","137","Bark.jpg","3",".","36","0","539"
"24","24","encoding","encoding","138","DoubleBass.jpg","1",".","37","0","422"
"24","24","encoding","encoding","139","WaterWell.jpg","3",".","37","0","424"
"24","24","encoding","encoding","140","Umbrella_Classic.jpg","3",".","37","0","429"
"24","24","encoding","encoding","141","Tube_Paint.jpg","1",".","37","0","436"
"24","24","encoding","encoding","142","Cinnamonroll.jpg","1",".","37","0","549"
"24","24","encoding","encoding","143","Taco.jpg","3",".","37","0","472"
"24","24","encoding","encoding","144","ManholeCover.jpg","3",".","37","0","454"
"24","24","encoding","encoding","145","Light_Fixtures.jpg","3",".","37","0","535"
"24","24","encoding","encoding","146","WateringCan_Antique.jpg","3",".","37","0","426"
"24","24","encoding","encoding","147","Chair_Office.jpg","3",".","37","0","375"
"24","24","encoding","encoding","148","Television.jpg","3",".","37","0","412"
"24","24","encoding","encoding","149","Chair_Office.jpg","3",".","37","0","361"
"24","24","encoding","encoding","150","Barometer_Wood.jpg","3",".","37","0","392"
"24","24","encoding","encoding","151","House_Wooden.jpg","3",".","37","0","399"
"24","24","encoding","encoding","152","PyramidWooden.jpg","3",".","37","0","554"
"24","24","encoding","encoding","153","Bread_Melon.jpg","1",".","37","0","741"
"24","24","encoding","encoding","154","WaterWell.jpg","3",".","37","0","529"
"24","24","encoding","encoding","155","MetalDetector.jpg","1",".","37","0","423"
"24","24","encoding","encoding","156","Lens_Camera.jpg","3",".","37","0","457"
"24","24","encoding","encoding","157","Spear.jpg","3",".","37","0","620"
"24","24","encoding","encoding","158","Makeup_Compact.jpg","3",".","37","0","495"
"24","24","encoding","encoding","159","HoseNozzle.jpg","1",".","37","0","619"
"24","24","encoding","encoding","160","Clave.jpg","1",".","37","0","470"
"24","24","encoding","encoding","161","Helmet_Football.jpg","3",".","37","0","451"
"24","24","encoding","encoding","162","Mug_Travel.jpg","3",".","37","0","445"
"24","24","encoding","encoding","163","CodeDoorLock.jpg","3",".","37","0","410"
"24","24","encoding","encoding","164","Hedgehog.jpg","3",".","36","0","520"
"24","24","encoding","encoding","165","Branch.jpg","3",".","37","0","398"
"24","24","encoding","encoding","166","Ship_Cruise.jpg","1",".","37","0","518"
"24","24","encoding","encoding","167","BumperCar.jpg","3",".","37","0","578"
"24","24","encoding","encoding","168","Hat_Colonial.jpg","1",".","37","0","640"
"24","24","encoding","encoding","169","Hubcap.jpg","1",".","37","0","494"
"24","24","encoding","encoding","170","AirCompressor.jpg","3",".","37","0","488"
"24","24","encoding","encoding","171","Scythe.jpg","3",".","37","0","530"
"24","24","encoding","encoding","172","Can_Oblong.jpg","1",".","37","0","453"
"24","24","encoding","encoding","173","FireAlarm.jpg","3",".","37","0","547"
"24","24","encoding","encoding","174","Statue_Horse.jpg","1",".","37","0","774"
"24","24","encoding","encoding","175","Amp.jpg","1",".","37","0","464"
"24","24","encoding","encoding","176","SofaAntique.jpg","3",".","37","0","495"
"24","24","encoding","encoding","177","Oars.jpg","3",".","37","0","429"
"24","24","encoding","encoding","178","Cable_JumpStart.jpg","3",".","37","0","795"
"24","24","encoding","encoding","179","Mailbox_Community.jpg","3",".","37","0","459"
"24","24","encoding","encoding","180","TortillaChip.jpg","3",".","37","0","696"
"24","24","encoding","encoding","181","Makeup_Compact.jpg","3",".","37","0","508"
"24","24","encoding","encoding","182","LifeJacket_Orangejpg.jpg","3",".","37","0","520"
"24","24","encoding","encoding","183","Platter_Vegetables.jpg","1",".","37","0","610"
"24","24","encoding","encoding","184","Arch_Triomphe.jpg","3",".","37","0","522"
"24","24","encoding","encoding","185","Light_Studio.jpg","1",".","37","0","476"
"24","24","encoding","encoding","186","Bread_Carrot.jpg","3",".","37","0","502"
"24","24","encoding","encoding","187","Cassette_Video.jpg","3",".","37","0","398"
"24","24","encoding","encoding","188","Bleachers.jpg","3",".","37","0","432"
"24","24","encoding","encoding","189","SofaAntique.jpg","3",".","37","0","447"
"24","24","encoding","encoding","190","Cake_Cheese.jpg","1",".","37","0","618"
"24","24","encoding","encoding","191","Mailbox_Community.jpg","3",".","37","0","426"
"24","24","encoding","encoding","192","Wire_ElectricalSingle.jpg","3",".","36","0","953"
"24","24","encoding","encoding","193","Corkboard.jpg","3",".","37","0","477"
"24","24","encoding","encoding","194","Fork_Regular.jpg","1",".","37","0","563"
"24","24","encoding","encoding","195","Nuts_Pecan.jpg","3",".","37","0","938"
"24","24","encoding","encoding","196","SofaAntique.jpg","3",".","37","0","483"
"24","24","encoding","encoding","197","FireAlarm.jpg","3",".","37","0","506"
"24","24","encoding","encoding","199","BumperCar.jpg","3",".","37","0","523"
"24","24","encoding","encoding","200","Cymbals.jpg","3",".","37","0","740"
"24","24","encoding","encoding","201","Mailbox_Antique.jpg","3",".","37","0","543"
"24","24","encoding","encoding","202","Cannon.jpg","3",".","37","0","455"
"24","24","encoding","encoding","203","Wire_ElectricalSingle.jpg","3",".","37","0","946"
"24","24","encoding","encoding","204","TortillaChip.jpg","3",".","37","0","522"
"24","24","encoding","encoding","205","Carabiner_Orange.jpg","3",".","37","0","463"
"24","24","encoding","encoding","206","Stool_Metal.jpg","3",".","37","0","404"
"24","24","encoding","encoding","207","Backpack_Suitcase.jpg","3",".","37","0","438"
"24","24","encoding","encoding","208","Garlic_Whole.jpg","3",".","36","0","633"
"24","24","encoding","encoding","209","Envelope_Manila.jpg","3",".","37","0","464"
"24","24","encoding","encoding","210","PyramidWooden.jpg","3",".","37","0","900"
"24","24","encoding","encoding","211","Weathervane.jpg","3",".","37","0","587"
"24","24","encoding","encoding","212","Chair_Office.jpg","3",".","37","0","447"
"24","24","encoding","encoding","213","Gecko.jpg","3",".","36","0","600"
"24","24","encoding","encoding","214","LifeJacket_Orangejpg.jpg","3",".","37","0","491"
"24","24","encoding","encoding","215","Gecko.jpg","3",".","36","0","483"
"24","24","encoding","encoding","216","Handbag.jpg","1",".","37","0","469"
"24","24","encoding","encoding","217","Sign_Construction.jpg","1",".","37","0","450"
"24","24","encoding","encoding","218","Backpack_Suitcase.jpg","3",".","37","0","468"
"24","24","encoding","encoding","219","Spatula.jpg","3",".","37","0","465"
"24","24","encoding","encoding","220","Bone.jpg","1",".","36","0","700"
"24","24","encoding","encoding","221","Cable_JumpStart.jpg","3",".","37","0","519"
"24","24","encoding","encoding","222","Bark.jpg","3",".","36","0","561"
"24","24","encoding","encoding","223","Bowl_Glass.jpg","3",".","37","0","545"
"24","24","encoding","encoding","224","Table_Saw.jpg","1",".","37","0","462"
"24","24","encoding","encoding","225","Nuts_Pecan.jpg","3",".","37","0","776"
"24","24","encoding","encoding","226","Bible.jpg","3",".","37","0","513"
"24","24","encoding","encoding","227","sign_traffic.jpg","3",".","37","0","401"
"24","24","encoding","encoding","228","Bread_Roll.jpg","1",".","37","0","675"
"24","24","encoding","encoding","229","CoffeeLid.jpg","1",".","37","0","513"
"24","24","encoding","encoding","230","Cymbals.jpg","3",".","37","0","558"
"24","24","encoding","encoding","231","MechanicalSpring.jpg","3",".","37","0","488"
"24","24","encoding","encoding","232","Carabiner_Orange.jpg","3",".","37","0","469"
"24","24","encoding","encoding","233","Mailbox_Antique.jpg","3",".","37","0","429"
"24","24","encoding","encoding","234","Garlic_Whole.jpg","3",".","36","0","547"
"24","24","encoding","encoding","235","Corkboard.jpg","3",".","37","0","457"
"24","24","encoding","encoding","236","Scythe.jpg","3",".","37","0","530"
"24","24","encoding","encoding","237","Briefcase_Silver.jpg","1",".","37","0","435"
"24","24","encoding","encoding","238","SatelliteDish.jpg","1",".","37","0","503"
"24","24","encoding","encoding","239","Toy_MerryGoRound.jpg","3",".","37","0","571"
"24","24","encoding","encoding","240","MechanicalSpring.jpg","3",".","37","0","631"
"24","24","encoding","encoding","241","PyramidWooden.jpg","3",".","37","0","625"
"24","24","encoding","encoding","242","Cymbals.jpg","3",".","37","0","516"
"24","24","encoding","encoding","243","AirCompressor.jpg","3",".","37","0","436"
"24","24","encoding","encoding","244","Crab.jpg","1",".","36","0","555"
"24","24","encoding","encoding","245","Television.jpg","3",".","37","0","457"
"24","24","encoding","encoding","246","Mailbox_Antique.jpg","3",".","37","0","459"
"24","24","encoding","encoding","247","Toy_Truck.jpg","3",".","37","0","487"
"24","24","encoding","encoding","248","Bread_Loaf.jpg","1",".","37","0","569"
"24","24","encoding","encoding","249","Toy_Lizard.jpg","3",".","36","0","504"
"24","24","encoding","encoding","250","Light_Fixtures.jpg","3",".","37","0","427"
"24","24","encoding","encoding","251","DartBoard.jpg","3",".","37","0","426"
"24","24","encoding","encoding","252","Barbecue_Charcoal.jpg","1",".","37","0","594"
"24","24","encoding","encoding","253","Toy_MerryGoRound.jpg","3",".","37","0","470"
"24","24","encoding","encoding","254","Cable_JumpStart.jpg","3",".","37","0","540"
"24","24","encoding","encoding","255","Bird_Duck.jpg","3",".","36","0","566"
"24","24","encoding","encoding","256","Spear.jpg","3",".","37","0","634"
"24","24","encoding","encoding","257","Light_Halogen.jpg","3",".","37","0","480"
"24","24","encoding","encoding","258","Canister_Oil.jpg","1",".","37","0","446"
"24","24","encoding","encoding","259","Aquarium.jpg","3",".","0","0","1000"
"24","24","encoding","encoding","260","Toy_MerryGoRound.jpg","3",".","37","0","521"
"24","24","encoding","encoding","261","Toolbox_BlackOpen.jpg","3",".","37","0","520"
"24","24","encoding","encoding","262","Statue_Man.jpg","3",".","37","0","517"
"24","24","encoding","encoding","263","FireAlarm.jpg","3",".","37","0","464"
"24","24","encoding","encoding","265","Lollipop_Rainbow.jpg","3",".","37","0","492"
"24","24","encoding","encoding","266","SolderingWire.jpg","1",".","37","0","584"
"24","24","encoding","encoding","267","Heelpad.jpg","1",".","0","0","1000"
"24","24","encoding","encoding","268","Taco.jpg","3",".","37","0","549"
"24","24","encoding","encoding","269","Toy_LambPlushie.jpg","3",".","37","0","583"
"24","24","encoding","encoding","270","Earring_Hoop.jpg","1",".","37","0","648"
"24","24","encoding","encoding","271","Castle_Sand.jpg","3",".","37","0","539"
"24","24","encoding","encoding","272","Arch_Triomphe.jpg","3",".","37","0","752"
"24","24","encoding","encoding","273","Envelope_Manila.jpg","3",".","37","0","527"
"24","24","encoding","encoding","274","Clock_Interior.jpg","3",".","37","0","497"
"24","24","encoding","encoding","275","Thermometer_Room.jpg","3",".","37","0","441"
"24","24","encoding","encoding","276","MousepadAndMouse.jpg","1",".","37","0","486"
"24","24","encoding","encoding","277","Radish.jpg","1",".","36","0","720"
"24","24","encoding","encoding","278","Acorn.jpg","1",".","36","0","658"
"24","24","encoding","encoding","279","Bandage_Adhesive.jpg","3",".","37","0","555"
"24","24","encoding","encoding","280","Toolbox_BlackOpen.jpg","3",".","37","0","462"
"24","24","encoding","encoding","281","Clock_Interior.jpg","3",".","37","0","467"
"24","24","encoding","encoding","282","Cassette_Video.jpg","3",".","37","0","554"
"24","24","encoding","encoding","283","WateringCan_Antique.jpg","3",".","37","0","471"
"24","24","encoding","encoding","284","Case_Pencil.jpg","1",".","37","0","474"
"24","24","encoding","encoding","285","Lantern_Chinese.jpg","1",".","37","0","449"
"24","24","encoding","encoding","286","Ladybug.jpg","3",".","36","0","483"
"24","24","encoding","encoding","287","Bird_Duck.jpg","3",".","36","0","485"
"24","24","encoding","encoding","288","IceCream_Popsicle.jpg","1",".","37","0","781"
"24","24","encoding","encoding","289","Van.jpg","3",".","37","0","569"
"24","24","encoding","encoding","290","Castle_Sand.jpg","3",".","37","0","510"
"24","24","encoding","encoding","291","SolderingIron.jpg","3",".","37","0","501"
"24","24","encoding","encoding","292","Hedgehog.jpg","3",".","36","0","514"
"24","24","encoding","encoding","293","Candy_Toffee.jpg","1",".","37","0","717"
"24","24","encoding","encoding","294","Jar_Honey.jpg","1",".","36","0","920"
"24","24","encoding","encoding","295","Spatula.jpg","3",".","37","0","562"
"24","24","encoding","encoding","296","sign_traffic.jpg","3",".","37","0","469"
"24","24","encoding","encoding","297","Bag_Diaper.jpg","3",".","37","0","490"
"24","24","encoding","encoding","298","Toy_Lizard.jpg","3",".","36","0","476"
"24","24","encoding","encoding","299","Branch.jpg","3",".","36","0","531"
"24","24","encoding","encoding","300","Carousel.jpg","1",".","37","0","499"
"24","24","encoding","encoding","301","Makeup_Compact.jpg","3",".","37","0","514"
"24","24","encoding","encoding","302","Stone_AncientWriting.jpg","1",".","37","0","840"
"24","24","encoding","encoding","303","Statue_Man.jpg","3",".","37","0","536"
"24","24","encoding","encoding","304","Toy_Lizard.jpg","3",".","36","0","427"
"24","24","encoding","encoding","305","PagodaModel.jpg","1",".","37","0","519"
"24","24","encoding","encoding","306","Helmet_Motorcycle.jpg","1",".","37","0","532"
"24","24","encoding","encoding","307","Helmet_Football.jpg","3",".","37","0","436"
"24","24","encoding","encoding","308","TortillaChip.jpg","3",".","37","0","599"
"24","24","encoding","encoding","309","Wontons.jpg","1",".","36","0","742"
"24","24","encoding","encoding","310","Glass_Beer.jpg","1",".","37","0","667"
"24","24","encoding","encoding","311","Flags_CheckeredRacing.jpg","1",".","37","0","476"
"24","24","encoding","encoding","312","Spatula.jpg","3",".","37","0","497"
"24","24","encoding","encoding","313","Bird_Duck.jpg","3",".","36","0","528"
"24","24","encoding","encoding","314","Hedgehog.jpg","3",".","36","0","538"
"24","24","encoding","encoding","315","Spear.jpg","3",".","37","0","553"
"24","24","encoding","encoding","316","Light_Halogen.jpg","3",".","37","0","484"
"24","24","encoding","encoding","317","Cassette_Video.jpg","3",".","37","0","433"
"24","24","encoding","encoding","318","CarSuspension.jpg","1",".","37","0","478"
"24","24","encoding","encoding","319","Ladybug.jpg","3",".","36","0","585"
"24","24","encoding","encoding","320","SewingPin_Cushion.jpg","3",".","37","0","543"
"24","24","encoding","encoding","321","Barometer_Wood.jpg","3",".","37","0","476"
"24","24","encoding","encoding","322","Umbrella_Classic.jpg","3",".","37","0","449"
"24","24","encoding","encoding","323","MechanicalSpring.jpg","3",".","37","0","417"
"24","24","encoding","encoding","324","Tree_Fir.jpg","3",".","36","0","752"
"24","24","encoding","encoding","325","Lens_Camera.jpg","",".","37","0","550"
"24","24","retrieval","new_object","1","FlintIgniter.jpg",".",".","37","1","1003"
"24","24","retrieval","new_object","2","IroningBoard.jpg",".",".","37","1","1155"
"24","24","retrieval","new_object","3","Pasta_Fettuccine.jpg",".",".","37","1","990"
"24","24","retrieval","new_object","4","Toy_Taxi.jpg",".",".","37","1","945"
"24","24","retrieval","old_object","5","Makeup_Compact.jpg",".","3","36","1","674"
"24","24","retrieval","old_object","6","Glass_Beer.jpg",".","1","36","1","658"
"24","24","retrieval","new_object","7","Toy_Ladybug.jpg",".",".","37","1","985"
"24","24","retrieval","old_object","8","SofaAntique.jpg",".","3","36","1","904"
"24","24","retrieval","old_object","9","Earring_Hoop.jpg",".","1","36","1","962"
"24","24","retrieval","old_object","10","Lens_Camera.jpg",".","3","36","1","831"
"24","24","retrieval","new_object","11","Heater_ElectricUpright.jpg",".",".","37","1","1082"
"24","24","retrieval","old_object","12","IceCream_Popsicle.jpg",".","1","36","1","909"
"24","24","retrieval","new_object","13","Glove_Baseball.jpg",".",".","37","1","908"
"24","24","retrieval","new_object","14","RadioactiveContainer.jpg",".",".","37","1","867"
"24","24","retrieval","new_object","15","LintRemover.jpg",".",".","37","1","930"
"24","24","retrieval","old_object","16","Bus_School.jpg",".","1","36","1","997"
"24","24","retrieval","new_object","17","Decoration_ChristmasWhite.jpg",".",".","37","1","930"
"24","24","retrieval","old_object","18","Van.jpg",".","3","36","1","807"
"24","24","retrieval","old_object","19","PocketKnife.jpg",".","1","36","1","1116"
"24","24","retrieval","new_object","20","Boat_Colourful.jpg",".",".","37","1","773"
"24","24","retrieval","new_object","21","Snowpea.jpg",".",".","37","1","1114"
"24","24","retrieval","new_object","22","Lobster.jpg",".",".","37","1","921"
"24","24","retrieval","new_object","23","RecorderInstrument.jpg",".",".","37","1","809"
"24","24","retrieval","old_object","24","Ladybug.jpg",".","3","36","1","576"
"24","24","retrieval","old_object","25","Briefcase_Silver.jpg",".","1","36","1","905"
"24","24","retrieval","old_object","26","Scythe.jpg",".","3","36","1","756"
"24","24","retrieval","new_object","27","Toy_TrailerAirport.jpg",".",".","37","1","950"
"24","24","retrieval","new_object","28","Stick_Stirring.jpg",".",".","37","1","865"
"24","24","retrieval","new_object","29","Computer_ExpansionCard.jpg",".",".","36","0","1072"
"24","24","retrieval","new_object","30","Pouch_Red.jpg",".",".","37","1","1034"
"24","24","retrieval","old_object","31","Gecko.jpg",".","3","36","1","649"
"24","24","retrieval","old_object","32","Taco.jpg",".","3","36","1","862"
"24","24","retrieval","old_object","33","Handbag.jpg",".","1","36","1","792"
"24","24","retrieval","old_object","34","Box_FirstAid.jpg",".","1","36","1","810"
"24","24","retrieval","old_object","35","Statue_Man.jpg",".","3","36","1","724"
"24","24","retrieval","old_object","36","AirCompressor.jpg",".","3","36","1","702"
"24","24","retrieval","new_object","37","Sphinx.jpg",".",".","37","1","861"
"24","24","retrieval","old_object","38","Bleachers.jpg",".","3","36","1","826"
"24","24","retrieval","new_object","39","ClothesDryingRack.jpg",".",".","37","1","868"
"24","24","retrieval","old_object","40","MetalDetector.jpg",".","1","37","0","1101"
"24","24","retrieval","new_object","41","Case_CD.jpg",".",".","37","1","899"
"24","24","retrieval","old_object","42","Cart_Janitor.jpg",".","1","37","0","1030"
"24","24","retrieval","new_object","43","Pyramid.jpg",".",".","37","1","1158"
"24","24","retrieval","old_object","44","Bark.jpg",".","3","36","1","842"
"24","24","retrieval","new_object","45","Makeup_Bag.jpg",".",".","37","1","928"
"24","24","retrieval","new_object","46","Paddle_Ball.jpg",".",".","37","1","1061"
"24","24","retrieval","old_object","47","Barometer_Wood.jpg",".","3","36","1","862"
"24","24","retrieval","old_object","48","LicensePlate.jpg",".","1","36","1","1009"
"24","24","retrieval","old_object","49","Aquarium.jpg",".","3","36","1","760"
"24","24","retrieval","old_object","50","Weathervane.jpg",".","3","36","1","869"
"24","24","retrieval","old_object","51","Clock_Interior.jpg",".","3","36","1","829"
"24","24","retrieval","new_object","52","Level.jpg",".",".","37","1","880"
"24","24","retrieval","old_object","53","PumiceStone.jpg",".","1","36","1","792"
"24","24","retrieval","new_object","54","ComputerKey_Escape.jpg",".",".","37","1","1189"
"24","24","retrieval","new_object","55","Sink_Kitchen.jpg",".",".","37","1","1056"
"24","24","retrieval","new_object","56","GrillRack.jpg",".",".","37","1","868"
"24","24","retrieval","new_object","57","Bagpipes.jpg",".",".","37","1","1006"
"24","24","retrieval","new_object","58","Shoes_Mould.jpg",".",".","37","1","960"
"24","24","retrieval","old_object","59","CoffeeLid.jpg",".","1","37","0","1117"
"24","24","retrieval","new_object","60","Bowl_Chopsticks.jpg",".",".","37","1","1122"
"24","24","retrieval","old_object","61","HoseNozzle.jpg",".","1","36","1","879"
"24","24","retrieval","new_object","62","Candleholder_LampShaped.jpg",".",".","37","1","998"
"24","24","retrieval","old_object","63","Castle_Sand.jpg",".","3","36","1","736"
"24","24","retrieval","old_object","64","Table_Saw.jpg",".","1","36","1","937"
"24","24","retrieval","old_object","65","Desk_White.jpg",".","3","36","1","740"
"24","24","retrieval","old_object","67","Tube_Paint.jpg",".","1","37","0","713"
"24","24","retrieval","new_object","68","Dice.jpg",".",".","37","1","769"
"24","24","retrieval","old_object","69","Corkboard.jpg",".","3","36","1","703"
"24","24","retrieval","old_object","70","AirPump.jpg",".","1","37","0","820"
"24","24","retrieval","old_object","71","Bandage_Adhesive.jpg",".","3","36","1","656"
"24","24","retrieval","new_object","72","FuzzyDice.jpg",".",".","37","1","799"
"24","24","retrieval","new_object","73","CarLighter.jpg",".",".","36","0","1264"
"24","24","retrieval","new_object","74","MatchBook.jpg",".",".","37","1","800"
"24","24","retrieval","old_object","75","Crab.jpg",".","1","36","1","685"
"24","24","retrieval","new_object","76","Cologne.jpg",".",".","37","1","1223"
"24","24","retrieval","new_object","77","Protractor.jpg",".",".","37","1","778"
"24","24","retrieval","old_object","78","LifeJacket_Orangejpg.jpg",".","3","36","1","726"
"24","24","retrieval","old_object","79","Cake_Cheese.jpg",".","1","37","0","857"
"24","24","retrieval","new_object","80","Piano_Upright.jpg",".",".","36","0","1107"
"24","24","retrieval","new_object","81","Match.jpg",".",".","37","1","675"
"24","24","retrieval","new_object","82","Canister_Tea.jpg",".",".","37","1","859"
"24","24","retrieval","old_object","83","sign_traffic.jpg",".","3","36","1","754"
"24","24","retrieval","old_object","84","Toy_LambPlushie.jpg",".","3","36","1","759"
"24","24","retrieval","new_object","85","NailFiles.jpg",".",".","37","1","831"
"24","24","retrieval","new_object","86","Dog_Bulldog.jpg",".",".","37","1","836"
"24","24","retrieval","old_object","87","DogSled.jpg",".","1","36","1","763"
"24","24","retrieval","old_object","88","Bowl_Glass.jpg",".","3","36","1","712"
"24","24","retrieval","old_object","89","Cable_JumpStart.jpg",".","3","36","1","695"
"24","24","retrieval","old_object","90","DartBoard.jpg",".","3","36","1","715"
"24","24","retrieval","old_object","91","Mask_Ski.jpg",".","1","36","1","669"
"24","24","retrieval","new_object","92","Hat_Police.jpg",".",".","37","1","771"
"24","24","retrieval","new_object","93","Ruler_Wooden.jpg",".",".","37","1","732"
"24","24","retrieval","new_object","94","SoapDish.jpg",".",".","37","1","784"
"24","24","retrieval","old_object","95","Garlic_Whole.jpg",".","3","36","1","661"
"24","24","retrieval","new_object","96","Lynx.jpg",".",".","37","1","864"
"24","24","retrieval","old_object","97","House_Wooden.jpg",".","3","36","1","754"
"24","24","retrieval","new_object","98","Cloud.jpg",".",".","37","1","680"
"24","24","retrieval","new_object","99","TowelRack_Metal.jpg",".",".","37","1","963"
"24","24","retrieval","new_object","100","Flashlight.jpg",".",".","37","1","831"
"24","24","retrieval","old_object","101","DoubleBass.jpg",".","1","37","0","794"
"24","24","retrieval","new_object","102","MortarPestle_WhiteMarble.jpg",".",".","37","1","867"
"24","24","retrieval","old_object","103","Bucket_Halloween.jpg",".","1","36","1","784"
"24","24","retrieval","new_object","104","Ginger.jpg",".",".","37","1","904"
"24","24","retrieval","new_object","105","TelescopeSpacecraft.jpg",".",".","37","1","1036"
"24","24","retrieval","new_object","106","Toy_Bat.jpg",".",".","37","1","735"
"24","24","retrieval","new_object","107","Box_WoodCrate.jpg",".",".","37","1","804"
"24","24","retrieval","old_object","108","Clave.jpg",".","1","36","1","971"
"24","24","retrieval","old_object","109","SolderingIron.jpg",".","3","37","0","1237"
"24","24","retrieval","old_object","110","Stool_Metal.jpg",".","3","37","0","1621"
"24","24","retrieval","old_object","111","Tube_Glue.jpg",".","1","36","1","914"
"24","24","retrieval","old_object","112","Backpack_Suitcase.jpg",".","3","36","1","804"
"24","24","retrieval","old_object","113","Television.jpg",".","3","36","1","777"
"24","24","retrieval","new_object","114","Airplane_Small.jpg",".",".","37","1","821"
"24","24","retrieval","new_object","115","Card_Deck.jpg",".",".","37","1","1297"
"24","24","retrieval","old_object","116","Branch.jpg",".","3","36","1","611"
"24","24","retrieval","old_object","117","Arch_Triomphe.jpg",".","3","36","1","1106"
"24","24","retrieval","old_object","118","Acorn.jpg",".","1","36","1","992"
"24","24","retrieval","new_object","119","Ostrich.jpg",".",".","37","1","1466"
"24","24","retrieval","new_object","120","Bucket_WoodenLight.jpg",".",".","37","1","921"
"24","24","retrieval","old_object","121","WaterWell.jpg",".","3","36","1","732"
"24","24","retrieval","new_object","122","Neckrest.jpg",".",".","37","1","842"
"24","24","retrieval","new_object","123","VinylRecord.jpg",".",".","36","0","991"
"24","24","retrieval","old_object","124","Envelope_Manila.jpg",".","3","36","1","718"
"24","24","retrieval","old_object","125","PulleyWooden.jpg",".","1","37","0","1203"
"24","24","retrieval","old_object","126","MechanicalSpring.jpg",".","3","36","1","758"
"24","24","retrieval","old_object","127","SolderingWire.jpg",".","1","37","0","1180"
"24","24","retrieval","old_object","128","Nuts_Pecan.jpg",".","3","36","1","788"
"24","24","retrieval","old_object","129","Cinnamonroll.jpg",".","1","36","1","700"
"24","24","retrieval","old_object","130","Bottle_Beer.jpg",".","1","36","1","1194"
"24","24","retrieval","new_object","131","CDstack.jpg",".",".","37","1","907"
"24","24","retrieval","new_object","133","TreeStump.jpg",".",".","37","1","810"
"24","24","retrieval","old_object","134","TortillaChip.jpg",".","3","36","1","657"
"24","24","retrieval","new_object","135","Mat_Bamboo.jpg",".",".","37","1","775"
"24","24","retrieval","old_object","136","Light_Studio.jpg",".","1","37","0","843"
"24","24","retrieval","old_object","137","Helmet_Football.jpg",".","3","36","1","710"
"24","24","retrieval","new_object","138","Mitt_Blue.jpg",".",".","37","1","737"
"24","24","retrieval","new_object","139","DonaldDuck_Toy.jpg",".",".","37","1","837"
"24","24","retrieval","new_object","140","Coral.jpg",".",".","37","1","817"
"24","24","retrieval","old_object","141","ManholeCover.jpg",".","3","37","0","1018"
"24","24","retrieval","new_object","142","Car_Buggy.jpg",".",".","37","1","971"
"24","24","retrieval","old_object","143","SewingPin_Cushion.jpg",".","3","36","1","633"
"24","24","retrieval","old_object","144","Oars.jpg",".","3","36","1","716"
"24","24","retrieval","new_object","145","PaperTowel_Brown.jpg",".",".","37","1","771"
"24","24","retrieval","new_object","146","DeepFryer.jpg",".",".","37","1","852"
"24","24","retrieval","old_object","147","Lollipop_Rainbow.jpg",".","3","36","1","644"
"24","24","retrieval","old_object","148","Bread_Roll.jpg",".","1","36","1","619"
"24","24","retrieval","old_object","149","Mailbox_Antique.jpg",".","3","36","1","709"
"24","24","retrieval","new_object","150","Puffin.jpg",".",".","37","1","1112"
"24","24","retrieval","old_object","151","PagodaModel.jpg",".","1","37","0","865"
"24","24","retrieval","old_object","152","Microwave.jpg",".","1","37","0","804"
"24","24","retrieval","new_object","153","ShinPads.jpg",".",".","37","1","940"
"24","24","retrieval","new_object","154","Carrot.jpg",".",".","37","1","747"
"24","24","retrieval","old_object","155","Hedgehog.jpg",".","3","36","1","965"
"24","24","retrieval","old_object","156","Bird_Duck.jpg",".","3","37","0","1028"
"24","24","retrieval","old_object","157","Canister_Oil.jpg",".","1","37","0","651"
"24","24","retrieval","new_object","158","Seeder.jpg",".",".","37","1","966"
"24","24","retrieval","new_object","159","Suitcase.jpg",".",".","37","1","713"
"24","24","retrieval","old_object","160","Lighter_Black.jpg",".","1","37","0","1083"
"24","24","retrieval","new_object","161","Notepad.jpg",".",".","37","1","1163"
"24","24","retrieval","old_object","162","MemoPaperSpike.jpg",".","1","36","1","1076"
"24","24","retrieval","new_object","163","VacuumHose.jpg",".",".","37","1","842"
"24","24","retrieval","new_object","164","Blueberry.jpg",".",".","37","1","773"
"24","24","retrieval","new_object","165","Card_TwoSpade.jpg",".",".","37","1","848"
"24","24","retrieval","old_object","166","Binder.jpg",".","3","36","1","726"
"24","24","retrieval","old_object","167","Platter_Vegetables.jpg",".","1","36","1","861"
"24","24","retrieval","new_object","168","Pretzel_Sticks.jpg",".",".","37","1","952"
"24","24","retrieval","old_object","169","Milkshake_Strawberry.jpg",".","1","36","1","899"
"24","24","retrieval","old_object","170","Ship_Cruise.jpg",".","1","36","1","903"
"24","24","retrieval","new_object","171","Jars_PetFood.jpg",".",".","37","1","699"
"24","24","retrieval","old_object","172","Candy_Lozenge.jpg",".","1","36","1","774"
"24","24","retrieval","new_object","173","Pear_Green.jpg",".",".","37","1","708"
"24","24","retrieval","old_object","174","Spear.jpg",".","3","36","1","717"
"24","24","retrieval","new_object","175","Shirt_Tshirt.jpg",".",".","37","1","698"
"24","24","retrieval","old_object","176","Thermometer_Room.jpg",".","3","37","0","956"
"24","24","retrieval","new_object","177","Heater_Outdoor.jpg",".",".","37","1","887"
"24","24","retrieval","new_object","178","WaterHeater.jpg",".",".","37","1","1115"
"24","24","retrieval","old_object","179","Wontons.jpg",".","1","36","1","1255"
"24","24","retrieval","old_object","180","MousepadAndMouse.jpg",".","1","37","0","762"
"24","24","retrieval","old_object","181","Cassette_Video.jpg",".","3","36","1","952"
"24","24","retrieval","old_object","182","Stone_AncientWriting.jpg",".","1","36","1","861"
"24","24","retrieval","new_object","183","Cheeseburger.jpg",".",".","37","1","876"
"24","24","retrieval","old_object","184","HairCurler.jpg",".","1","37","0","1024"
"24","24","retrieval","old_object","185","Trash_Medical.jpg",".","1","36","1","800"
"24","24","retrieval","new_object","186","PowderProtein.jpg",".",".","37","1","837"
"24","24","retrieval","old_object","187","Case_Pencil.jpg",".","1","36","1","796"
"24","24","retrieval","new_object","188","Otoscope.jpg",".",".","37","1","820"
"24","24","retrieval","new_object","189","Golf_Club.jpg",".",".","37","1","734"
"24","24","retrieval","new_object","190","ShoeLace_Flat.jpg",".",".","37","1","788"
"24","24","retrieval","new_object","191","Sandwich_Ham.jpg",".",".","37","1","863"
"24","24","retrieval","old_object","192","Amp.jpg",".","1","37","0","900"
"24","24","retrieval","new_object","193","Paddle_Canoe.jpg",".",".","36","0","988"
"24","24","retrieval","new_object","194","Bag_Toiletry.jpg",".",".","37","1","1020"
"24","24","retrieval","new_object","195","Coin.jpg",".",".","37","1","773"
"24","24","retrieval","old_object","196","PyramidWooden.jpg",".","3","36","1","722"
"24","24","retrieval","new_object","197","WalkieTalkie_Yellow.jpg",".",".","37","1","869"
"24","24","retrieval","new_object","199","HairBand.jpg",".",".","37","1","829"
"24","24","retrieval","old_object","200","Sign_Construction.jpg",".","1","36","1","1195"
"24","24","retrieval","new_object","201","Clippers_Glass.jpg",".",".","37","1","748"
"24","24","retrieval","old_object","202","Hockey_Puck.jpg",".","1","37","0","1082"
"24","24","retrieval","old_object","203","GasStation.jpg",".","1","37","0","682"
"24","24","retrieval","new_object","204","PaperCutter.jpg",".",".","37","1","943"
"24","24","retrieval","old_object","205","Cannon.jpg",".","3","36","1","700"
"24","24","retrieval","new_object","206","Shrimp.jpg",".",".","37","1","744"
"24","24","retrieval","new_object","207","Dropper.jpg",".",".","37","1","928"
"24","24","retrieval","old_object","208","Fork_Regular.jpg",".","1","37","0","766"
"24","24","retrieval","old_object","209","Radish.jpg",".","1","37","0","1036"
"24","24","retrieval","new_object","210","Fan_Straw.jpg",".",".","37","1","752"
"24","24","retrieval","new_object","211","TowelRack_Brown.jpg",".",".","37","1","1093"
"24","24","retrieval","old_object","212","Helmet_Motorcycle.jpg",".","1","36","1","1272"
"24","24","retrieval","new_object","213","PersonWooden.jpg",".",".","37","1","657"
"24","24","retrieval","old_object","214","Barometer.jpg",".","1","36","1","948"
"24","24","retrieval","new_object","215","Barrel_Wine.jpg",".",".","37","1","788"
"24","24","retrieval","old_object","216","Statue_Horse.jpg",".","1","36","1","1277"
"24","24","retrieval","old_object","217","CodeDoorLock.jpg",".","3","37","0","797"
"24","24","retrieval","new_object","218","Desk_Office.jpg",".",".","37","1","1759"
"24","24","retrieval","old_object","219","Cymbals.jpg",".","3","36","1","906"
"24","24","retrieval","new_object","220","Garlic_Clove.jpg",".",".","37","1","1614"
"24","24","retrieval","new_object","221","Speakers_Theatre.jpg",".",".","37","1","1104"
"24","24","retrieval","old_object","222","Bread_Loaf.jpg",".","1","36","1","787"
"24","24","retrieval","old_object","223","RAMchip.jpg",".","3","36","1","1161"
"24","24","retrieval","old_object","224","Toy_PandaPlushie.jpg",".","1","36","1","790"
"24","24","retrieval","new_object","225","Glasses_Sun.jpg",".",".","37","1","945"
"24","24","retrieval","old_object","226","Toy_MerryGoRound.jpg",".","3","36","1","788"
"24","24","retrieval","new_object","227","Tray_Metal.jpg",".",".","37","1","812"
"24","24","retrieval","new_object","228","Boar.jpg",".",".","37","1","927"
"24","24","retrieval","old_object","229","Bone.jpg",".","1","36","1","726"
"24","24","retrieval","old_object","230","Barbecue_Charcoal.jpg",".","1","37","0","794"
"24","24","retrieval","new_object","231","HairClipper.jpg",".",".","37","1","822"
"24","24","retrieval","new_object","232","Lips_Wax.jpg",".",".","37","1","702"
"24","24","retrieval","old_object","233","Light_Fixtures.jpg",".","3","37","0","773"
"24","24","retrieval","new_object","234","OperaGlasses.jpg",".",".","37","1","844"
"24","24","retrieval","new_object","235","Walkman.jpg",".",".","37","1","1190"
"24","24","retrieval","new_object","236","Tray_Medical.jpg",".",".","37","1","1109"
"24","24","retrieval","old_object","237","Umbrella_Classic.jpg",".","3","36","1","987"
"24","24","retrieval","new_object","238","Clamp_Screw.jpg",".",".","37","1","806"
"24","24","retrieval","old_object","239","Chair_Office.jpg",".","3","37","0","1208"
"24","24","retrieval","new_object","240","Nail.jpg",".",".","37","1","802"
"24","24","retrieval","new_object","241","Camera_Video.jpg",".",".","37","1","706"
"24","24","retrieval","old_object","242","SelfieStick.jpg",".","3","37","0","1104"
"24","24","retrieval","new_object","243","Tape_Dispenser.jpg",".",".","37","1","1022"
"24","24","retrieval","old_object","244","Toy_Lizard.jpg",".","3","36","1","606"
"24","24","retrieval","new_object","245","BowlingPin.jpg",".",".","37","1","727"
"24","24","retrieval","new_object","246","SnowmanDecor.jpg",".",".","37","1","1412"
"24","24","retrieval","new_object","247","Toy_Wooden rings.jpg",".",".","37","1","934"
"24","24","retrieval","new_object","248","Stool_Camping.jpg",".",".","37","1","725"
