"group","subject","blockcode","trialcode","trialnum","stimulus","encoding_condition","old_object_condition","response","correct","latency"
"32","32","encoding","encoding","1","ReindeerHeadband.jpg","3",".","0","0","1000"
"32","32","encoding","encoding","2","Outhouse.jpg","1",".","0","0","1000"
"32","32","encoding","encoding","3","Thermos_MetalSleek.jpg","3",".","37","0","625"
"32","32","encoding","encoding","4","Flower_Hibiscus.jpg","3",".","36","0","571"
"32","32","encoding","encoding","5","Caterpillar.jpg","3",".","36","0","644"
"32","32","encoding","encoding","6","CuttingBoard.jpg","1",".","37","0","822"
"32","32","encoding","encoding","7","Strainer_Tea.jpg","3",".","37","0","455"
"32","32","encoding","encoding","8","Fencing_HelmetSwords.jpg","3",".","37","0","488"
"32","32","encoding","encoding","9","Toy_Lighthouse.jpg","3",".","37","0","851"
"32","32","encoding","encoding","10","Flower_Hibiscus.jpg","3",".","36","0","796"
"32","32","encoding","encoding","11","Glass_Cup.jpg","3",".","37","0","670"
"32","32","encoding","encoding","12","Thermos_MetalSleek.jpg","3",".","37","0","495"
"32","32","encoding","encoding","13","Currants.jpg","1",".","36","0","457"
"32","32","encoding","encoding","14","Boxcutter.jpg","3",".","37","0","515"
"32","32","encoding","encoding","15","Cabinet_Office.jpg","3",".","37","0","533"
"32","32","encoding","encoding","16","Loofa.jpg","3",".","37","0","582"
"32","32","encoding","encoding","17","Hammer.jpg","3",".","37","0","464"
"32","32","encoding","encoding","18","Bindings_Snowboard.jpg","3",".","37","0","418"
"32","32","encoding","encoding","19","Hockey_Equipment.jpg","1",".","37","0","499"
"32","32","encoding","encoding","20","SewingMachine.jpg","3",".","37","0","429"
"32","32","encoding","encoding","21","TurkeyDinner.jpg","3",".","36","0","470"
"32","32","encoding","encoding","22","Waffle.jpg","3",".","36","0","505"
"32","32","encoding","encoding","23","Fridge.jpg","3",".","37","0","530"
"32","32","encoding","encoding","24","Hazelnut.jpg","3",".","36","0","620"
"32","32","encoding","encoding","25","Radio_Vintage.jpg","3",".","37","0","661"
"32","32","encoding","encoding","26","KeyHook_Occupied.jpg","3",".","37","0","487"
"32","32","encoding","encoding","27","Hottub.jpg","3",".","37","0","377"
"32","32","encoding","encoding","28","CartonEggs.jpg","3",".","36","0","610"
"32","32","encoding","encoding","29","PaintRoller.jpg","3",".","37","0","539"
"32","32","encoding","encoding","30","Wheel_Steering.jpg","3",".","37","0","380"
"32","32","encoding","encoding","31","Cannister_Gas.jpg","1",".","37","0","407"
"32","32","encoding","encoding","32","Cage_Bird.jpg","3",".","37","0","392"
"32","32","encoding","encoding","33","Brooch_Fish.jpg","3",".","37","0","666"
"32","32","encoding","encoding","34","Loofa.jpg","3",".","36","0","675"
"32","32","encoding","encoding","35","Clock_Radio.jpg","1",".","37","0","390"
"32","32","encoding","encoding","36","Flower_Orchid.jpg","3",".","36","0","503"
"32","32","encoding","encoding","37","CartonEggs.jpg","3",".","36","0","569"
"32","32","encoding","encoding","38","Can_OilSpout.jpg","3",".","37","0","562"
"32","32","encoding","encoding","39","BoogieBoard.jpg","1",".","37","0","907"
"32","32","encoding","encoding","40","Wheel_Steering.jpg","3",".","37","0","510"
"32","32","encoding","encoding","41","Chinchilla.jpg","3",".","36","0","735"
"32","32","encoding","encoding","42","Microphone.jpg","3",".","37","0","553"
"32","32","encoding","encoding","43","Boxcutter.jpg","3",".","37","0","594"
"32","32","encoding","encoding","44","Sink_Bathroom.jpg","1",".","37","0","509"
"32","32","encoding","encoding","45","Chopsticks.jpg","3",".","37","0","414"
"32","32","encoding","encoding","46","Kite_Rainbow.jpg","1",".","37","0","448"
"32","32","encoding","encoding","47","SafetyPin.jpg","3",".","37","0","385"
"32","32","encoding","encoding","48","PedestalGreek.jpg","1",".","37","0","460"
"32","32","encoding","encoding","49","Bench_Wooden.jpg","3",".","37","0","397"
"32","32","encoding","encoding","50","KeyHook_Occupied.jpg","3",".","37","0","358"
"32","32","encoding","encoding","51","Dress_Blue.jpg","1",".","37","0","552"
"32","32","encoding","encoding","52","Bugle.jpg","3",".","37","0","449"
"32","32","encoding","encoding","53","RibbonSpool.jpg","3",".","37","0","276"
"32","32","encoding","encoding","54","Bottle_BubbleBlower.jpg","1",".","37","0","389"
"32","32","encoding","encoding","55","PropellerFan.jpg","1",".","37","0","367"
"32","32","encoding","encoding","56","HumanSkeleton.jpg","3",".","37","0","600"
"32","32","encoding","encoding","57","Case_DVD.jpg","3",".","37","0","435"
"32","32","encoding","encoding","58","Bottle_Specimen.jpg","3",".","37","0","468"
"32","32","encoding","encoding","59","SmokingPipe.jpg","3",".","37","0","436"
"32","32","encoding","encoding","60","TurkeyDinner.jpg","3",".","36","0","558"
"32","32","encoding","encoding","61","SkullDeer.jpg","3",".","36","0","600"
"32","32","encoding","encoding","62","Brace_Back.jpg","3",".","37","0","434"
"32","32","encoding","encoding","63","Tweezers.jpg","3",".","37","0","819"
"32","32","encoding","encoding","64","Glass_Cup.jpg","3",".","37","0","533"
"32","32","encoding","encoding","65","Chopsticks.jpg","3",".","37","0","606"
"32","32","encoding","encoding","67","SkullDeer.jpg","3",".","36","0","582"
"32","32","encoding","encoding","68","ShoppingCart.jpg","1",".","37","0","752"
"32","32","encoding","encoding","69","Bomb.jpg","3",".","37","0","713"
"32","32","encoding","encoding","70","Arch.jpg","3",".","37","0","467"
"32","32","encoding","encoding","71","ShearsGarden.jpg","1",".","37","0","468"
"32","32","encoding","encoding","72","Broom_Long.jpg","3",".","37","0","463"
"32","32","encoding","encoding","73","AnsweringMachine.jpg","3",".","37","0","432"
"32","32","encoding","encoding","74","Arch.jpg","3",".","37","0","433"
"32","32","encoding","encoding","75","Thermos_MetalSleek.jpg","3",".","37","0","619"
"32","32","encoding","encoding","76","Brace_Back.jpg","3",".","37","0","533"
"32","32","encoding","encoding","77","Pot_Cooking.jpg","1",".","37","0","375"
"32","32","encoding","encoding","78","Paddle_Beach.jpg","1",".","37","0","448"
"32","32","encoding","encoding","79","Pen_Ballpoint.jpg","1",".","37","0","442"
"32","32","encoding","encoding","80","TireRims.jpg","1",".","37","0","388"
"32","32","encoding","encoding","81","Tape_Washi.jpg","3",".","37","0","422"
"32","32","encoding","encoding","82","Spatula_1.jpg","3",".","37","0","399"
"32","32","encoding","encoding","83","Bindings_Snowboard.jpg","3",".","37","0","328"
"32","32","encoding","encoding","84","Caterpillar.jpg","3",".","36","0","626"
"32","32","encoding","encoding","85","Drum_Brazilan.jpg","3",".","37","0","796"
"32","32","encoding","encoding","86","Tribunal_Wooden.jpg","3",".","37","0","838"
"32","32","encoding","encoding","87","Syrup_Maple.jpg","3",".","37","0","502"
"32","32","encoding","encoding","88","Knife_Butter.jpg","3",".","37","0","720"
"32","32","encoding","encoding","89","Cabinet_Display.jpg","3",".","37","0","642"
"32","32","encoding","encoding","90","Telescope.jpg","1",".","37","0","492"
"32","32","encoding","encoding","91","Radio_Vintage.jpg","3",".","37","0","733"
"32","32","encoding","encoding","92","BicycleGear.jpg","3",".","37","0","583"
"32","32","encoding","encoding","93","Brooch_Fish.jpg","3",".","37","0","649"
"32","32","encoding","encoding","94","Drum_Brazilan.jpg","3",".","37","0","506"
"32","32","encoding","encoding","95","Seashell_AlternateTellin.jpg","1",".","37","0","452"
"32","32","encoding","encoding","96","AnsweringMachine.jpg","3",".","37","0","333"
"32","32","encoding","encoding","97","Tribunal_Wooden.jpg","3",".","37","0","575"
"32","32","encoding","encoding","98","Lighter_Yellow.jpg","1",".","37","0","481"
"32","32","encoding","encoding","99","Cabinet_Display.jpg","3",".","37","0","435"
"32","32","encoding","encoding","100","Playground.jpg","3",".","37","0","348"
"32","32","encoding","encoding","101","Tofu.jpg","1",".","37","0","366"
"32","32","encoding","encoding","102","Cabinet_Office.jpg","3",".","37","0","416"
"32","32","encoding","encoding","103","Pipe.jpg","3",".","37","0","482"
"32","32","encoding","encoding","104","Toy_TableSet.jpg","1",".","37","0","523"
"32","32","encoding","encoding","105","Broom_Long.jpg","3",".","37","0","444"
"32","32","encoding","encoding","106","Waffle.jpg","3",".","36","0","471"
"32","32","encoding","encoding","107","Ball_8.jpg","3",".","37","0","464"
"32","32","encoding","encoding","108","House_Rural.jpg","1",".","37","0","498"
"32","32","encoding","encoding","109","Bindings_Snowboard.jpg","3",".","37","0","451"
"32","32","encoding","encoding","110","CookieCutter_Tree.jpg","1",".","37","0","621"
"32","32","encoding","encoding","111","Iron_Antique.jpg","3",".","37","0","439"
"32","32","encoding","encoding","112","Jug_Milk.jpg","1",".","37","0","425"
"32","32","encoding","encoding","113","MobilityScooter.jpg","1",".","37","0","506"
"32","32","encoding","encoding","114","Shoe_Pink.jpg","1",".","37","0","555"
"32","32","encoding","encoding","115","Tweezers.jpg","3",".","37","0","430"
"32","32","encoding","encoding","116","Toolbox_Old.jpg","1",".","37","0","735"
"32","32","encoding","encoding","117","ToothPaste.jpg","3",".","37","0","537"
"32","32","encoding","encoding","118","Statue_VirginMary.jpg","3",".","37","0","633"
"32","32","encoding","encoding","119","Hat_Baseball.jpg","1",".","37","0","636"
"32","32","encoding","encoding","120","Knife_Butter.jpg","3",".","37","0","405"
"32","32","encoding","encoding","121","Fridge.jpg","3",".","37","0","407"
"32","32","encoding","encoding","122","Can_OilSpout.jpg","3",".","37","0","648"
"32","32","encoding","encoding","123","Bomb.jpg","3",".","37","0","489"
"32","32","encoding","encoding","124","Drum_Brazilan.jpg","3",".","37","0","356"
"32","32","encoding","encoding","125","Chinchilla.jpg","3",".","36","0","549"
"32","32","encoding","encoding","126","OnionRed.jpg","3",".","36","0","439"
"32","32","encoding","encoding","127","AnsweringMachine.jpg","3",".","37","0","456"
"32","32","encoding","encoding","128","Baster.jpg","1",".","37","0","395"
"32","32","encoding","encoding","129","SkullDeer.jpg","3",".","36","0","636"
"32","32","encoding","encoding","130","Cabinet_Office.jpg","3",".","37","0","534"
"32","32","encoding","encoding","131","Dolphine.jpg","3",".","36","0","511"
"32","32","encoding","encoding","133","Spatula_1.jpg","3",".","0","0","1000"
"32","32","encoding","encoding","134","Toolbox_RedOpen.jpg","1",".","37","0","411"
"32","32","encoding","encoding","135","Spatula_1.jpg","3",".","37","0","645"
"32","32","encoding","encoding","136","Screw.jpg","1",".","37","0","518"
"32","32","encoding","encoding","137","Gorilla.jpg","1",".","36","0","536"
"32","32","encoding","encoding","138","Shield_Antique.jpg","3",".","37","0","681"
"32","32","encoding","encoding","139","PanCooking.jpg","1",".","37","0","466"
"32","32","encoding","encoding","140","Statue_SouthAmerican.jpg","3",".","37","0","405"
"32","32","encoding","encoding","141","Tweezers.jpg","3",".","37","0","462"
"32","32","encoding","encoding","142","Toy_BearBlackPlastic.jpg","1",".","36","0","616"
"32","32","encoding","encoding","143","Truck_Dump.jpg","1",".","37","0","425"
"32","32","encoding","encoding","144","Chipmunk.jpg","3",".","36","0","523"
"32","32","encoding","encoding","145","Ball_Disco.jpg","3",".","37","0","413"
"32","32","encoding","encoding","146","PaintRoller.jpg","3",".","37","0","463"
"32","32","encoding","encoding","147","Shield_Antique.jpg","3",".","37","0","432"
"32","32","encoding","encoding","148","ToothPaste.jpg","3",".","37","0","385"
"32","32","encoding","encoding","149","Hazelnut.jpg","3",".","36","0","611"
"32","32","encoding","encoding","150","Can_OilSpout.jpg","3",".","37","0","564"
"32","32","encoding","encoding","151","Pickaxe.jpg","1",".","37","0","638"
"32","32","encoding","encoding","152","Dolphine.jpg","3",".","36","0","503"
"32","32","encoding","encoding","153","Bench_Wooden.jpg","3",".","37","0","874"
"32","32","encoding","encoding","154","Statue_SouthAmerican.jpg","3",".","37","0","323"
"32","32","encoding","encoding","155","SafetyPin.jpg","3",".","37","0","357"
"32","32","encoding","encoding","156","OnionRed.jpg","3",".","36","0","454"
"32","32","encoding","encoding","157","Dolphine.jpg","3",".","36","0","615"
"32","32","encoding","encoding","158","Pig.jpg","3",".","36","0","450"
"32","32","encoding","encoding","159","Lamp_TableWhite.jpg","1",".","37","0","483"
"32","32","encoding","encoding","160","Pasta_Spaghetti.jpg","3",".","37","0","437"
"32","32","encoding","encoding","161","ElasticBand.jpg","3",".","37","0","382"
"32","32","encoding","encoding","162","Caterpillar.jpg","3",".","36","0","449"
"32","32","encoding","encoding","163","Thermostat.jpg","3",".","37","0","530"
"32","32","encoding","encoding","164","Toy_SeeSaw.jpg","1",".","37","0","540"
"32","32","encoding","encoding","165","Loofa.jpg","3",".","37","0","725"
"32","32","encoding","encoding","166","Carbiner_Ascender.jpg","1",".","37","0","536"
"32","32","encoding","encoding","167","Ball_8.jpg","3",".","37","0","601"
"32","32","encoding","encoding","168","Fridge.jpg","3",".","37","0","354"
"32","32","encoding","encoding","169","Hammer.jpg","3",".","37","0","476"
"32","32","encoding","encoding","170","Boardgame_Checkers.jpg","3",".","37","0","445"
"32","32","encoding","encoding","171","Iron_Antique.jpg","3",".","37","0","432"
"32","32","encoding","encoding","172","RibbonSpool.jpg","3",".","37","0","369"
"32","32","encoding","encoding","173","TurkeyDinner.jpg","3",".","36","0","571"
"32","32","encoding","encoding","174","Glass_Cup.jpg","3",".","37","0","396"
"32","32","encoding","encoding","175","Jar_Cotton.jpg","1",".","37","0","423"
"32","32","encoding","encoding","176","Wheel_Steering.jpg","3",".","37","0","416"
"32","32","encoding","encoding","177","Bench_Wooden.jpg","3",".","37","0","369"
"32","32","encoding","encoding","178","Flower_Orchid.jpg","3",".","36","0","491"
"32","32","encoding","encoding","179","Pipe.jpg","3",".","37","0","525"
"32","32","encoding","encoding","180","Tribunal_Wooden.jpg","3",".","37","0","638"
"32","32","encoding","encoding","181","Box_Present.jpg","1",".","37","0","519"
"32","32","encoding","encoding","182","PaperStack.jpg","1",".","37","0","353"
"32","32","encoding","encoding","183","BloodpPresureCuff.jpg","1",".","37","0","386"
"32","32","encoding","encoding","184","Hottub.jpg","3",".","37","0","413"
"32","32","encoding","encoding","185","Fencing_HelmetSwords.jpg","3",".","37","0","334"
"32","32","encoding","encoding","186","Tape_Washi.jpg","3",".","37","0","511"
"32","32","encoding","encoding","187","Sign_TrafficArrow.jpg","1",".","37","0","401"
"32","32","encoding","encoding","188","SewingMachine.jpg","3",".","37","0","355"
"32","32","encoding","encoding","189","OnionRed.jpg","3",".","36","0","541"
"32","32","encoding","encoding","190","Beaker.jpg","3",".","37","0","582"
"32","32","encoding","encoding","191","BicycleChain.jpg","1",".","37","0","568"
"32","32","encoding","encoding","192","Tape_Washi.jpg","3",".","37","0","554"
"32","32","encoding","encoding","193","Decoration_WallOrnament.jpg","1",".","37","0","828"
"32","32","encoding","encoding","194","SundaeBanana.jpg","1",".","36","0","653"
"32","32","encoding","encoding","195","Thermostat.jpg","3",".","37","0","422"
"32","32","encoding","encoding","196","Fencing_HelmetSwords.jpg","3",".","37","0","328"
"32","32","encoding","encoding","197","Hammer.jpg","3",".","37","0","370"
"32","32","encoding","encoding","199","Dart.jpg","1",".","37","0","571"
"32","32","encoding","encoding","200","Shield_Antique.jpg","3",".","37","0","389"
"32","32","encoding","encoding","201","Thermostat.jpg","3",".","37","0","334"
"32","32","encoding","encoding","202","PaintRoller.jpg","3",".","37","0","384"
"32","32","encoding","encoding","203","Broom_Long.jpg","3",".","37","0","481"
"32","32","encoding","encoding","204","Bell_Hand.jpg","1",".","37","0","316"
"32","32","encoding","encoding","205","Brooch_Fish.jpg","3",".","37","0","629"
"32","32","encoding","encoding","206","Arch.jpg","3",".","37","0","366"
"32","32","encoding","encoding","207","Pajamas.jpg","3",".","37","0","448"
"32","32","encoding","encoding","208","ElasticBand.jpg","3",".","37","0","433"
"32","32","encoding","encoding","209","DivingBoard.jpg","1",".","37","0","356"
"32","32","encoding","encoding","210","Syrup_Maple.jpg","3",".","37","0","373"
"32","32","encoding","encoding","211","Makeup_Foundation.jpg","3",".","37","0","414"
"32","32","encoding","encoding","212","Chipmunk.jpg","3",".","36","0","535"
"32","32","encoding","encoding","213","Icepick.jpg","3",".","37","0","530"
"32","32","encoding","encoding","214","ElasticBand.jpg","3",".","37","0","419"
"32","32","encoding","encoding","215","Waffle.jpg","3",".","36","0","660"
"32","32","encoding","encoding","216","Syrup_Maple.jpg","3",".","37","0","558"
"32","32","encoding","encoding","217","BicycleGear.jpg","3",".","37","0","360"
"32","32","encoding","encoding","218","Frame_Oval.jpg","3",".","37","0","466"
"32","32","encoding","encoding","219","Hazelnut.jpg","3",".","36","0","435"
"32","32","encoding","encoding","220","Bottle_Specimen.jpg","3",".","37","0","653"
"32","32","encoding","encoding","221","CoffeeGrinder.jpg","1",".","37","0","382"
"32","32","encoding","encoding","222","ChessPiece_Knight.jpg","3",".","37","0","321"
"32","32","encoding","encoding","223","DrillBit.jpg","1",".","37","0","514"
"32","32","encoding","encoding","224","LampPost_OneBulb.jpg","1",".","37","0","523"
"32","32","encoding","encoding","225","Hawk.jpg","1",".","37","0","933"
"32","32","encoding","encoding","226","Hoverboard.jpg","3",".","37","0","583"
"32","32","encoding","encoding","227","SmokingPipe.jpg","3",".","37","0","425"
"32","32","encoding","encoding","228","Strainer_Tea.jpg","3",".","37","0","482"
"32","32","encoding","encoding","229","Flower_Hibiscus.jpg","3",".","36","0","444"
"32","32","encoding","encoding","230","Statue_SouthAmerican.jpg","3",".","37","0","334"
"32","32","encoding","encoding","231","Icepick.jpg","3",".","37","0","400"
"32","32","encoding","encoding","232","Playground.jpg","3",".","37","0","417"
"32","32","encoding","encoding","233","ContactLens.jpg","1",".","37","0","370"
"32","32","encoding","encoding","234","GranolaBar.jpg","1",".","36","0","716"
"32","32","encoding","encoding","235","Toy_Lighthouse.jpg","3",".","37","0","294"
"32","32","encoding","encoding","236","Switch_LightWhite.jpg","1",".","37","0","680"
"32","32","encoding","encoding","237","Makeup_Foundation.jpg","3",".","37","0","345"
"32","32","encoding","encoding","238","Box_FirstAidOpen.jpg","3",".","37","0","355"
"32","32","encoding","encoding","239","Comb.jpg","1",".","37","0","429"
"32","32","encoding","encoding","240","Statue_VirginMary.jpg","3",".","37","0","535"
"32","32","encoding","encoding","241","Pasta_Spaghetti.jpg","3",".","37","0","408"
"32","32","encoding","encoding","242","HumanSkeleton.jpg","3",".","36","0","673"
"32","32","encoding","encoding","243","Boots_KneeHigh.jpg","1",".","37","0","347"
"32","32","encoding","encoding","244","Pajamas.jpg","3",".","37","0","380"
"32","32","encoding","encoding","245","Hoverboard.jpg","3",".","37","0","398"
"32","32","encoding","encoding","246","Case_DVD.jpg","3",".","37","0","423"
"32","32","encoding","encoding","247","SmokingPipe.jpg","3",".","37","0","409"
"32","32","encoding","encoding","248","Hoverboard.jpg","3",".","37","0","387"
"32","32","encoding","encoding","249","Statue_VirginMary.jpg","3",".","37","0","453"
"32","32","encoding","encoding","250","KeyHook_Occupied.jpg","3",".","37","0","430"
"32","32","encoding","encoding","251","BicycleOdometer.jpg","1",".","37","0","384"
"32","32","encoding","encoding","252","Sock_Ankle.jpg","1",".","37","0","338"
"32","32","encoding","encoding","253","ToothPaste.jpg","3",".","37","0","420"
"32","32","encoding","encoding","254","SaxophoneSoprano.jpg","1",".","37","0","381"
"32","32","encoding","encoding","255","Gun_Glue.jpg","1",".","37","0","430"
"32","32","encoding","encoding","256","SkiPoles.jpg","1",".","37","0","393"
"32","32","encoding","encoding","257","FlipFlop_PairBlue.jpg","1",".","37","0","330"
"32","32","encoding","encoding","258","Socks_Winter.jpg","1",".","37","0","324"
"32","32","encoding","encoding","259","Pasta_Spaghetti.jpg","3",".","37","0","309"
"32","32","encoding","encoding","260","Glass_Martini.jpg","1",".","37","0","279"
"32","32","encoding","encoding","261","Icepick.jpg","3",".","37","0","417"
"32","32","encoding","encoding","262","KitchenTools.jpg","1",".","37","0","451"
"32","32","encoding","encoding","263","Bandage_Wrap.jpg","3",".","37","0","340"
"32","32","encoding","encoding","265","Microphone.jpg","3",".","37","0","865"
"32","32","encoding","encoding","266","BicycleGear.jpg","3",".","37","0","339"
"32","32","encoding","encoding","267","Frame_Oval.jpg","3",".","37","0","404"
"32","32","encoding","encoding","268","Toy_Lighthouse.jpg","3",".","37","0","349"
"32","32","encoding","encoding","269","Cross.jpg","1",".","37","0","495"
"32","32","encoding","encoding","270","Pig.jpg","3",".","36","0","568"
"32","32","encoding","encoding","271","Bandage_Wrap.jpg","3",".","37","0","594"
"32","32","encoding","encoding","272","Bandage_Wrap.jpg","3",".","37","0","691"
"32","32","encoding","encoding","273","Radio_Vintage.jpg","3",".","37","0","701"
"32","32","encoding","encoding","274","Flower_Orchid.jpg","3",".","36","0","502"
"32","32","encoding","encoding","275","Boardgame_Checkers.jpg","3",".","37","0","527"
"32","32","encoding","encoding","276","ReindeerHeadband.jpg","3",".","37","0","722"
"32","32","encoding","encoding","277","Ball_Disco.jpg","3",".","37","0","395"
"32","32","encoding","encoding","278","Exercise_Machine.jpg","1",".","37","0","613"
"32","32","encoding","encoding","279","Box_FirstAidOpen.jpg","3",".","37","0","966"
"32","32","encoding","encoding","280","Cage_Bird.jpg","3",".","37","0","584"
"32","32","encoding","encoding","281","Cage_Bird.jpg","3",".","37","0","434"
"32","32","encoding","encoding","282","Crutches.jpg","1",".","37","0","388"
"32","32","encoding","encoding","283","Chipmunk.jpg","3",".","36","0","533"
"32","32","encoding","encoding","284","Playground.jpg","3",".","37","0","502"
"32","32","encoding","encoding","285","Crib_Basket.jpg","1",".","37","0","409"
"32","32","encoding","encoding","286","SafetyPin.jpg","3",".","37","0","386"
"32","32","encoding","encoding","287","Brace_Back.jpg","3",".","37","0","428"
"32","32","encoding","encoding","288","Pajamas.jpg","3",".","37","0","357"
"32","32","encoding","encoding","289","CartonEggs.jpg","3",".","36","0","528"
"32","32","encoding","encoding","290","Frame_Oval.jpg","3",".","37","0","265"
"32","32","encoding","encoding","291","ChessPiece_Knight.jpg","3",".","37","0","299"
"32","32","encoding","encoding","292","Beaker.jpg","3",".","37","0","508"
"32","32","encoding","encoding","293","Hottub.jpg","3",".","37","0","406"
"32","32","encoding","encoding","294","Toy_PoliceCar.jpg","1",".","37","0","392"
"32","32","encoding","encoding","295","Ball_Disco.jpg","3",".","37","0","401"
"32","32","encoding","encoding","296","Strainer_Tea.jpg","3",".","37","0","363"
"32","32","encoding","encoding","297","Bugle.jpg","3",".","37","0","356"
"32","32","encoding","encoding","298","Ball_8.jpg","3",".","37","0","495"
"32","32","encoding","encoding","299","Helmet_Knight.jpg","1",".","37","0","408"
"32","32","encoding","encoding","300","Boardgame_Checkers.jpg","3",".","37","0","418"
"32","32","encoding","encoding","301","Box_FirstAidOpen.jpg","3",".","37","0","539"
"32","32","encoding","encoding","302","Chopsticks.jpg","3",".","37","0","782"
"32","32","encoding","encoding","303","Toy_DollOffice.jpg","1",".","37","0","463"
"32","32","encoding","encoding","304","SewingMachine.jpg","3",".","37","0","512"
"32","32","encoding","encoding","305","Iron_Antique.jpg","3",".","37","0","577"
"32","32","encoding","encoding","306","Chinchilla.jpg","3",".","36","0","530"
"32","32","encoding","encoding","307","Boxcutter.jpg","3",".","37","0","365"
"32","32","encoding","encoding","308","Pipe.jpg","3",".","37","0","326"
"32","32","encoding","encoding","309","CrepeMaker.jpg","1",".","37","0","304"
"32","32","encoding","encoding","310","ChessPiece_Knight.jpg","3",".","37","0","281"
"32","32","encoding","encoding","311","Pig.jpg","3",".","36","0","476"
"32","32","encoding","encoding","312","Tire_Hollow.jpg","1",".","37","0","333"
"32","32","encoding","encoding","313","HumanSkeleton.jpg","3",".","36","0","575"
"32","32","encoding","encoding","314","Makeup_Foundation.jpg","3",".","37","0","312"
"32","32","encoding","encoding","315","Beaker.jpg","3",".","37","0","419"
"32","32","encoding","encoding","316","Cabinet_Display.jpg","3",".","37","0","364"
"32","32","encoding","encoding","317","Knife_Butter.jpg","3",".","37","0","437"
"32","32","encoding","encoding","318","RibbonSpool.jpg","3",".","37","0","343"
"32","32","encoding","encoding","319","Bugle.jpg","3",".","37","0","400"
"32","32","encoding","encoding","320","Microphone.jpg","3",".","37","0","379"
"32","32","encoding","encoding","321","ReindeerHeadband.jpg","3",".","37","0","380"
"32","32","encoding","encoding","322","Case_DVD.jpg","3",".","37","0","646"
"32","32","encoding","encoding","323","Bottle_Specimen.jpg","3",".","37","0","431"
"32","32","encoding","encoding","324","Bomb.jpg","3",".","37","0","394"
"32","32","encoding","encoding","325","ReindeerHeadband.jpg","",".","37","0","419"
"32","32","retrieval","new_object","1","PaintBrushAndPallette.jpg",".",".","37","1","1498"
"32","32","retrieval","old_object","2","Pickaxe.jpg",".","1","37","0","1047"
"32","32","retrieval","old_object","3","Hoverboard.jpg",".","3","37","0","1027"
"32","32","retrieval","old_object","4","Thermostat.jpg",".","3","37","0","1152"
"32","32","retrieval","old_object","5","Toy_SeeSaw.jpg",".","1","37","0","757"
"32","32","retrieval","old_object","6","TurkeyDinner.jpg",".","3","36","1","1257"
"32","32","retrieval","old_object","7","SewingMachine.jpg",".","3","37","0","750"
"32","32","retrieval","new_object","8","Cup_Styrofoam.jpg",".",".","37","1","969"
"32","32","retrieval","new_object","9","Saw.jpg",".",".","37","1","878"
"32","32","retrieval","new_object","10","Ashtray_Empty.jpg",".",".","37","1","555"
"32","32","retrieval","old_object","11","Toy_Lighthouse.jpg",".","3","37","0","535"
"32","32","retrieval","new_object","12","AmpMeter.jpg",".",".","37","1","660"
"32","32","retrieval","old_object","13","CuttingBoard.jpg",".","1","37","0","696"
"32","32","retrieval","new_object","14","Bathtub.jpg",".",".","37","1","1172"
"32","32","retrieval","new_object","15","Chest_Toys.jpg",".",".","37","1","985"
"32","32","retrieval","old_object","16","Pot_Cooking.jpg",".","1","37","0","1069"
"32","32","retrieval","old_object","17","TireRims.jpg",".","1","37","0","866"
"32","32","retrieval","old_object","18","Currants.jpg",".","1","36","1","694"
"32","32","retrieval","old_object","19","Telescope.jpg",".","1","37","0","715"
"32","32","retrieval","old_object","20","OnionRed.jpg",".","3","36","1","872"
"32","32","retrieval","new_object","21","Paratrooper.jpg",".",".","37","1","724"
"32","32","retrieval","old_object","22","Hockey_Equipment.jpg",".","1","37","0","721"
"32","32","retrieval","new_object","23","Shampoo.jpg",".",".","37","1","933"
"32","32","retrieval","old_object","24","Sink_Bathroom.jpg",".","1","37","0","1570"
"32","32","retrieval","old_object","25","Toy_BearBlackPlastic.jpg",".","1","36","1","1391"
"32","32","retrieval","old_object","26","Hammer.jpg",".","3","37","0","811"
"32","32","retrieval","old_object","27","ReindeerHeadband.jpg",".","3","37","0","720"
"32","32","retrieval","new_object","28","WindowBlinds.jpg",".",".","37","1","780"
"32","32","retrieval","old_object","29","ElasticBand.jpg",".","3","37","0","553"
"32","32","retrieval","new_object","30","Mattress.jpg",".",".","37","1","798"
"32","32","retrieval","new_object","31","Hook_Fish.jpg",".",".","36","0","810"
"32","32","retrieval","new_object","32","MonkeyPuppet.jpg",".",".","37","1","895"
"32","32","retrieval","new_object","33","Pineapple.jpg",".",".","36","0","585"
"32","32","retrieval","old_object","34","Loofa.jpg",".","3","36","1","622"
"32","32","retrieval","old_object","35","Lamp_TableWhite.jpg",".","1","37","0","908"
"32","32","retrieval","old_object","36","Brace_Back.jpg",".","3","37","0","583"
"32","32","retrieval","new_object","37","SculptureMetalFish.jpg",".",".","37","1","564"
"32","32","retrieval","old_object","38","Hottub.jpg",".","3","37","0","673"
"32","32","retrieval","new_object","39","ButterDish.jpg",".",".","37","1","429"
"32","32","retrieval","new_object","40","Guitarcase.jpg",".",".","37","1","738"
"32","32","retrieval","new_object","41","Toy_Witch.jpg",".",".","37","1","646"
"32","32","retrieval","new_object","42","CookieCutter_Bell.jpg",".",".","37","1","667"
"32","32","retrieval","new_object","43","DoorKnob.jpg",".",".","37","1","504"
"32","32","retrieval","old_object","44","Toolbox_RedOpen.jpg",".","1","37","0","316"
"32","32","retrieval","new_object","45","Helmet_Construction.jpg",".",".","37","1","697"
"32","32","retrieval","old_object","46","ContactLens.jpg",".","1","37","0","597"
"32","32","retrieval","old_object","47","Waffle.jpg",".","3","36","1","1042"
"32","32","retrieval","new_object","48","DrinkingFountain.jpg",".",".","37","1","1879"
"32","32","retrieval","old_object","49","Makeup_Foundation.jpg",".","3","37","0","547"
"32","32","retrieval","old_object","50","Bugle.jpg",".","3","37","0","704"
"32","32","retrieval","old_object","51","Box_FirstAidOpen.jpg",".","3","37","0","492"
"32","32","retrieval","old_object","52","Bottle_Specimen.jpg",".","3","37","0","480"
"32","32","retrieval","old_object","53","Toolbox_Old.jpg",".","1","37","0","517"
"32","32","retrieval","new_object","54","NintendoWii.jpg",".",".","37","1","873"
"32","32","retrieval","old_object","55","PaintRoller.jpg",".","3","37","0","582"
"32","32","retrieval","old_object","56","Paddle_Beach.jpg",".","1","37","0","522"
"32","32","retrieval","old_object","57","Cross.jpg",".","1","37","0","527"
"32","32","retrieval","new_object","58","TeethMould.jpg",".",".","36","0","684"
"32","32","retrieval","new_object","59","Spoons_MeasuringDetached.jpg",".",".","37","1","728"
"32","32","retrieval","new_object","60","NeedlesAcupuncture.jpg",".",".","37","1","565"
"32","32","retrieval","old_object","61","LampPost_OneBulb.jpg",".","1","37","0","592"
"32","32","retrieval","new_object","62","Desk_School.jpg",".",".","37","1","629"
"32","32","retrieval","old_object","63","Iron_Antique.jpg",".","3","37","0","906"
"32","32","retrieval","new_object","64","GasBurner.jpg",".",".","37","1","726"
"32","32","retrieval","new_object","65","Flute_Wooden.jpg",".",".","36","0","955"
"32","32","retrieval","old_object","67","Pajamas.jpg",".","3","36","1","1329"
"32","32","retrieval","old_object","68","AnsweringMachine.jpg",".","3","37","0","693"
"32","32","retrieval","new_object","69","Generator.jpg",".",".","37","1","810"
"32","32","retrieval","new_object","70","BadgeSpecialAgent.jpg",".",".","37","1","782"
"32","32","retrieval","old_object","71","KeyHook_Occupied.jpg",".","3","37","0","1258"
"32","32","retrieval","old_object","72","Broom_Long.jpg",".","3","36","1","959"
"32","32","retrieval","old_object","73","Tribunal_Wooden.jpg",".","3","37","0","706"
"32","32","retrieval","new_object","74","TartStrawberry.jpg",".",".","36","0","599"
"32","32","retrieval","old_object","75","Hazelnut.jpg",".","3","36","1","939"
"32","32","retrieval","old_object","76","CookieCutter_Tree.jpg",".","1","37","0","1168"
"32","32","retrieval","old_object","77","Crib_Basket.jpg",".","1","37","0","1309"
"32","32","retrieval","old_object","78","Can_OilSpout.jpg",".","3","37","0","809"
"32","32","retrieval","new_object","79","IceCream_Chocolate.jpg",".",".","36","0","1006"
"32","32","retrieval","new_object","80","IceCrusher.jpg",".",".","37","1","1010"
"32","32","retrieval","new_object","81","Steeple.jpg",".",".","37","1","535"
"32","32","retrieval","old_object","82","Boxcutter.jpg",".","3","37","0","924"
"32","32","retrieval","new_object","83","Drink_Green.jpg",".",".","37","1","1248"
"32","32","retrieval","new_object","84","Apple_RedAndGreen.jpg",".",".","36","0","653"
"32","32","retrieval","new_object","85","Bowl_Chinese.jpg",".",".","37","1","705"
"32","32","retrieval","old_object","86","Icepick.jpg",".","3","37","0","502"
"32","32","retrieval","old_object","87","Truck_Dump.jpg",".","1","37","0","619"
"32","32","retrieval","old_object","88","Syrup_Maple.jpg",".","3","37","0","551"
"32","32","retrieval","old_object","89","Baster.jpg",".","1","37","0","652"
"32","32","retrieval","new_object","90","Tortilla.jpg",".",".","36","0","1295"
"32","32","retrieval","new_object","91","Candy_Heart.jpg",".",".","37","1","1052"
"32","32","retrieval","new_object","92","Beater_Electric.jpg",".",".","37","1","561"
"32","32","retrieval","new_object","93","Chest.jpg",".",".","37","1","629"
"32","32","retrieval","new_object","94","LeatherPuncherTool.jpg",".",".","37","1","666"
"32","32","retrieval","new_object","95","HairDryer.jpg",".",".","37","1","694"
"32","32","retrieval","new_object","96","Exercise_Stretch.jpg",".",".","37","1","659"
"32","32","retrieval","new_object","97","Sushi.jpg",".",".","36","0","944"
"32","32","retrieval","old_object","98","ShearsGarden.jpg",".","1","37","0","491"
"32","32","retrieval","new_object","99","Colander.jpg",".",".","37","1","737"
"32","32","retrieval","old_object","100","Gun_Glue.jpg",".","1","37","0","628"
"32","32","retrieval","new_object","101","CameoPortrait.jpg",".",".","37","1","753"
"32","32","retrieval","new_object","102","Tripod.jpg",".",".","37","1","390"
"32","32","retrieval","new_object","103","Teabag.jpg",".",".","37","1","690"
"32","32","retrieval","old_object","104","MobilityScooter.jpg",".","1","37","0","487"
"32","32","retrieval","old_object","105","RibbonSpool.jpg",".","3","37","0","475"
"32","32","retrieval","new_object","106","Toys_Lego.jpg",".",".","37","1","504"
"32","32","retrieval","old_object","107","ChessPiece_Knight.jpg",".","3","37","0","501"
"32","32","retrieval","new_object","108","Toy_BlocksPlastic Colourful.jpg",".",".","37","1","593"
"32","32","retrieval","new_object","109","Pipe_Drain.jpg",".",".","37","1","877"
"32","32","retrieval","new_object","110","Hourglass.jpg",".",".","37","1","793"
"32","32","retrieval","new_object","111","Hippopotamus.jpg",".",".","36","0","622"
"32","32","retrieval","new_object","112","Light_Siren.jpg",".",".","37","1","787"
"32","32","retrieval","old_object","113","SaxophoneSoprano.jpg",".","1","37","0","543"
"32","32","retrieval","old_object","114","PedestalGreek.jpg",".","1","37","0","492"
"32","32","retrieval","new_object","115","FireExtinguisher.jpg",".",".","37","1","480"
"32","32","retrieval","new_object","116","Phone_Wireless.jpg",".",".","37","1","645"
"32","32","retrieval","old_object","117","Boots_KneeHigh.jpg",".","1","37","0","498"
"32","32","retrieval","new_object","118","Trophy.jpg",".",".","37","1","534"
"32","32","retrieval","old_object","119","Radio_Vintage.jpg",".","3","37","0","747"
"32","32","retrieval","new_object","120","Lilypad.jpg",".",".","36","0","927"
"32","32","retrieval","new_object","121","Leaf_Clover.jpg",".",".","36","0","692"
"32","32","retrieval","old_object","122","BicycleOdometer.jpg",".","1","37","0","705"
"32","32","retrieval","old_object","123","Hawk.jpg",".","1","36","1","557"
"32","32","retrieval","old_object","124","SafetyPin.jpg",".","3","37","0","546"
"32","32","retrieval","new_object","125","FlashlightHeadBand.jpg",".",".","37","1","445"
"32","32","retrieval","new_object","126","Wheelbarrow_Green.jpg",".",".","37","1","410"
"32","32","retrieval","old_object","127","CrepeMaker.jpg",".","1","37","0","503"
"32","32","retrieval","old_object","128","Cabinet_Office.jpg",".","3","37","0","474"
"32","32","retrieval","new_object","129","Toy_RockingHorseBlack.jpg",".",".","37","1","687"
"32","32","retrieval","old_object","130","Statue_VirginMary.jpg",".","3","37","0","468"
"32","32","retrieval","old_object","131","DivingBoard.jpg",".","1","37","0","1552"
"32","32","retrieval","old_object","133","Dart.jpg",".","1","37","0","620"
"32","32","retrieval","new_object","134","Mitt_Oven.jpg",".",".","37","1","577"
"32","32","retrieval","new_object","135","MonaLisa.jpg",".",".","36","0","973"
"32","32","retrieval","new_object","136","NailPolish.jpg",".",".","37","1","538"
"32","32","retrieval","old_object","137","Drum_Brazilan.jpg",".","3","37","0","574"
"32","32","retrieval","new_object","138","Table_Poker.jpg",".",".","37","1","539"
"32","32","retrieval","old_object","139","Ball_Disco.jpg",".","3","37","0","448"
"32","32","retrieval","new_object","140","Candle_Blue.jpg",".",".","37","1","548"
"32","32","retrieval","old_object","141","Bomb.jpg",".","3","37","0","713"
"32","32","retrieval","new_object","142","Lollipop_Grape.jpg",".",".","37","1","1053"
"32","32","retrieval","old_object","143","Pasta_Spaghetti.jpg",".","3","37","0","921"
"32","32","retrieval","new_object","144","Jar_JellyBeans.jpg",".",".","37","1","678"
"32","32","retrieval","new_object","145","ShoulderPads.jpg",".",".","37","1","506"
"32","32","retrieval","new_object","146","CandyDispenser.jpg",".",".","37","1","823"
"32","32","retrieval","new_object","147","JukeboxAntique.jpg",".",".","37","1","490"
"32","32","retrieval","new_object","148","Shoes_DutchClogs.jpg",".",".","37","1","471"
"32","32","retrieval","old_object","149","Toy_DollOffice.jpg",".","1","37","0","508"
"32","32","retrieval","new_object","150","Chair_MedicalToilet.jpg",".",".","37","1","528"
"32","32","retrieval","new_object","151","Bottle_Wine.jpg",".",".","37","1","565"
"32","32","retrieval","old_object","152","Bell_Hand.jpg",".","1","36","1","1089"
"32","32","retrieval","new_object","153","Autocreeper.jpg",".",".","37","1","686"
"32","32","retrieval","new_object","154","Blanket.jpg",".",".","36","0","1027"
"32","32","retrieval","new_object","155","Skates.jpg",".",".","37","1","615"
"32","32","retrieval","new_object","156","Bellows.jpg",".",".","36","0","1012"
"32","32","retrieval","old_object","157","Beaker.jpg",".","3","37","0","816"
"32","32","retrieval","new_object","158","Toy_StackingRing.jpg",".",".","37","1","589"
"32","32","retrieval","old_object","159","Dolphine.jpg",".","3","36","1","666"
"32","32","retrieval","new_object","160","Sign_Parking.jpg",".",".","37","1","630"
"32","32","retrieval","old_object","161","SmokingPipe.jpg",".","3","36","1","827"
"32","32","retrieval","new_object","162","Clip_Paper.jpg",".",".","37","1","1430"
"32","32","retrieval","old_object","163","Strainer_Tea.jpg",".","3","37","0","1283"
"32","32","retrieval","new_object","164","MixingGlass.jpg",".",".","37","1","816"
"32","32","retrieval","old_object","165","Brooch_Fish.jpg",".","3","37","0","892"
"32","32","retrieval","old_object","166","Flower_Orchid.jpg",".","3","36","1","937"
"32","32","retrieval","old_object","167","Crutches.jpg",".","1","37","0","1069"
"32","32","retrieval","old_object","168","SkullDeer.jpg",".","3","36","1","578"
"32","32","retrieval","new_object","169","Oyster.jpg",".",".","36","0","1063"
"32","32","retrieval","new_object","170","DogTreat.jpg",".",".","37","1","803"
"32","32","retrieval","old_object","171","Shoe_Pink.jpg",".","1","37","0","664"
"32","32","retrieval","old_object","172","Tape_Washi.jpg",".","3","37","0","621"
"32","32","retrieval","new_object","173","PaintRollTray.jpg",".",".","37","1","832"
"32","32","retrieval","new_object","174","Toy_Shapesorter.jpg",".",".","37","1","1142"
"32","32","retrieval","new_object","175","WashRack.jpg",".",".","37","1","625"
"32","32","retrieval","new_object","176","SmokeDetector.jpg",".",".","37","1","1054"
"32","32","retrieval","new_object","177","Balalaika.jpg",".",".","37","1","563"
"32","32","retrieval","new_object","178","Nyala.jpg",".",".","36","0","655"
"32","32","retrieval","old_object","179","Case_DVD.jpg",".","3","37","0","884"
"32","32","retrieval","new_object","180","DryRack_Dishes.jpg",".",".","37","1","816"
"32","32","retrieval","new_object","181","DoorBell.jpg",".",".","37","1","868"
"32","32","retrieval","new_object","182","BottleOpener.jpg",".",".","37","1","1081"
"32","32","retrieval","old_object","183","Cannister_Gas.jpg",".","1","37","0","789"
"32","32","retrieval","old_object","184","Playground.jpg",".","3","37","0","858"
"32","32","retrieval","new_object","185","GPS.jpg",".",".","37","1","790"
"32","32","retrieval","new_object","186","BicyclePedal.jpg",".",".","37","1","531"
"32","32","retrieval","new_object","187","DentistOverheadLight.jpg",".",".","37","1","1136"
"32","32","retrieval","new_object","188","Guitar_Acoustic.jpg",".",".","37","1","900"
"32","32","retrieval","old_object","189","Tofu.jpg",".","1","36","1","1057"
"32","32","retrieval","old_object","190","Caterpillar.jpg",".","3","36","1","1805"
"32","32","retrieval","old_object","191","PanCooking.jpg",".","1","37","0","738"
"32","32","retrieval","old_object","192","Jar_Cotton.jpg",".","1","37","0","895"
"32","32","retrieval","new_object","193","Toy_Moose.jpg",".",".","36","0","755"
"32","32","retrieval","new_object","194","StringBean.jpg",".",".","36","0","624"
"32","32","retrieval","old_object","195","Kite_Rainbow.jpg",".","1","37","0","788"
"32","32","retrieval","old_object","196","Exercise_Machine.jpg",".","1","37","0","617"
"32","32","retrieval","new_object","197","Mat_Door.jpg",".",".","36","0","1190"
"32","32","retrieval","old_object","199","Seashell_AlternateTellin.jpg",".","1","36","1","955"
"32","32","retrieval","old_object","200","Frame_Oval.jpg",".","3","37","0","1048"
"32","32","retrieval","new_object","201","Knee.jpg",".",".","36","0","1115"
"32","32","retrieval","new_object","202","Dress_Party.jpg",".",".","37","1","816"
"32","32","retrieval","old_object","203","Glass_Cup.jpg",".","3","36","1","828"
"32","32","retrieval","new_object","204","Bottle_Blue.jpg",".",".","37","1","1257"
"32","32","retrieval","new_object","205","Car_Sedan.jpg",".",".","37","1","798"
"32","32","retrieval","old_object","206","Flower_Hibiscus.jpg",".","3","36","1","746"
"32","32","retrieval","old_object","207","HumanSkeleton.jpg",".","3","36","1","1199"
"32","32","retrieval","old_object","208","Lighter_Yellow.jpg",".","1","37","0","851"
"32","32","retrieval","old_object","209","ToothPaste.jpg",".","3","37","0","1200"
"32","32","retrieval","new_object","210","Bullet.jpg",".",".","37","1","1285"
"32","32","retrieval","old_object","211","PropellerFan.jpg",".","1","37","0","1072"
"32","32","retrieval","old_object","212","Tweezers.jpg",".","3","37","0","1222"
"32","32","retrieval","new_object","213","Flamingo_Cartoon.jpg",".",".","36","0","1049"
"32","32","retrieval","old_object","214","Wheel_Steering.jpg",".","3","37","0","862"
"32","32","retrieval","old_object","215","Clock_Radio.jpg",".","1","37","0","1795"
"32","32","retrieval","new_object","216","Cake_Wedding.jpg",".",".","37","1","1119"
"32","32","retrieval","new_object","217","Speaker_OnStand.jpg",".",".","37","1","940"
"32","32","retrieval","old_object","218","Sign_TrafficArrow.jpg",".","1","37","0","1104"
"32","32","retrieval","old_object","219","Cage_Bird.jpg",".","3","37","0","581"
"32","32","retrieval","old_object","220","Toy_TableSet.jpg",".","1","37","0","553"
"32","32","retrieval","new_object","221","BicycleBrake.jpg",".",".","37","1","693"
"32","32","retrieval","new_object","222","Mango.jpg",".",".","36","0","650"
"32","32","retrieval","new_object","223","BusStop.jpg",".",".","37","1","591"
"32","32","retrieval","old_object","224","House_Rural.jpg",".","1","37","0","1227"
"32","32","retrieval","new_object","225","Bird_Cardinal.jpg",".",".","36","0","1136"
"32","32","retrieval","old_object","226","Glass_Martini.jpg",".","1","37","0","932"
"32","32","retrieval","new_object","227","Fruit_Cactus.jpg",".",".","36","0","721"
"32","32","retrieval","old_object","228","PaperStack.jpg",".","1","37","0","838"
"32","32","retrieval","new_object","229","Almond.jpg",".",".","36","0","826"
"32","32","retrieval","new_object","230","Glove_Rubber.jpg",".",".","37","1","775"
"32","32","retrieval","new_object","231","TinChristmas.jpg",".",".","37","1","1003"
"32","32","retrieval","new_object","232","Cherry.jpg",".",".","36","0","936"
"32","32","retrieval","new_object","233","Notebook.jpg",".",".","37","1","973"
"32","32","retrieval","old_object","234","Socks_Winter.jpg",".","1","37","0","1057"
"32","32","retrieval","old_object","235","Carbiner_Ascender.jpg",".","1","37","0","1326"
"32","32","retrieval","old_object","236","Cabinet_Display.jpg",".","3","37","0","1346"
"32","32","retrieval","old_object","237","Pig.jpg",".","3","36","1","583"
"32","32","retrieval","old_object","238","Chopsticks.jpg",".","3","37","0","1499"
"32","32","retrieval","new_object","239","Pitcher.jpg",".",".","37","1","1534"
"32","32","retrieval","new_object","240","WireStripper.jpg",".",".","37","1","819"
"32","32","retrieval","old_object","241","Bench_Wooden.jpg",".","3","36","1","1839"
"32","32","retrieval","old_object","242","BoogieBoard.jpg",".","1","37","0","804"
"32","32","retrieval","old_object","243","Gorilla.jpg",".","1","36","1","1145"
"32","32","retrieval","new_object","244","Hammer_Reflex.jpg",".",".","37","1","1965"
"32","32","retrieval","old_object","245","Boardgame_Checkers.jpg",".","3","36","1","1322"
"32","32","retrieval","old_object","246","Bandage_Wrap.jpg",".","3","37","0","1246"
"32","32","retrieval","new_object","247","Helmet_Soldier.jpg",".",".","36","0","1403"
"32","32","retrieval","old_object","248","Arch.jpg",".","3","37","0","1392"
"32","32","retrieval","new_object","249","fries.jpg",".",".","36","0","1604"
"32","32","retrieval","old_object","250","Spatula_1.jpg",".","3","37","0","985"
"32","32","retrieval","old_object","251","Sock_Ankle.jpg",".","1","37","0","1285"
"32","32","retrieval","new_object","252","Box_Floral.jpg",".",".","37","1","1698"
"32","32","retrieval","old_object","253","Decoration_WallOrnament.jpg",".","1","37","0","791"
"32","32","retrieval","old_object","254","BloodpPresureCuff.jpg",".","1","37","0","619"
"32","32","retrieval","old_object","255","DrillBit.jpg",".","1","0","0","2000"
"32","32","retrieval","new_object","256","Toy_GasPump.jpg",".",".","37","1","564"
"32","32","retrieval","new_object","257","Lantern_TeaBox.jpg",".",".","37","1","705"
"32","32","retrieval","old_object","258","Knife_Butter.jpg",".","3","37","0","581"
"32","32","retrieval","new_object","259","Pants_Jeans.jpg",".",".","37","1","865"
"32","32","retrieval","new_object","260","PotatoMasher_Zigzag.jpg",".",".","37","1","766"
"32","32","retrieval","old_object","261","KitchenTools.jpg",".","1","37","0","970"
"32","32","retrieval","new_object","262","Tickets_Blank.jpg",".",".","37","1","1847"
"32","32","retrieval","new_object","263","Sign_Wetfloor.jpg",".",".","37","1","628"
"32","32","retrieval","old_object","265","Microphone.jpg",".","3","37","0","535"
"32","32","retrieval","old_object","266","Pen_Ballpoint.jpg",".","1","37","0","619"
"32","32","retrieval","old_object","267","BicycleChain.jpg",".","1","37","0","575"
"32","32","retrieval","new_object","268","Thermostat_Digital.jpg",".",".","37","1","540"
"32","32","retrieval","old_object","269","Dress_Blue.jpg",".","1","37","0","801"
"32","32","retrieval","new_object","270","Mask_Happy.jpg",".",".","37","1","869"
"32","32","retrieval","new_object","271","Cantaloupe.jpg",".",".","37","1","818"
"32","32","retrieval","old_object","272","Jug_Milk.jpg",".","1","37","0","1397"
"32","32","retrieval","old_object","273","Hat_Baseball.jpg",".","1","37","0","706"
"32","32","retrieval","new_object","274","Spoon_Wooden.jpg",".",".","37","1","488"
"32","32","retrieval","old_object","275","Fridge.jpg",".","3","37","0","691"
"32","32","retrieval","old_object","276","Bindings_Snowboard.jpg",".","3","37","0","416"
"32","32","retrieval","new_object","277","Candy_Chocolate.jpg",".",".","37","1","755"
"32","32","retrieval","new_object","278","Mug_Beer.jpg",".",".","37","1","520"
"32","32","retrieval","new_object","279","Fortress.jpg",".",".","37","1","781"
"32","32","retrieval","old_object","280","Chipmunk.jpg",".","3","36","1","633"
"32","32","retrieval","old_object","281","Thermos_MetalSleek.jpg",".","3","37","0","534"
"32","32","retrieval","old_object","282","CartonEggs.jpg",".","3","36","1","490"
"32","32","retrieval","old_object","283","Outhouse.jpg",".","1","37","0","711"
"32","32","retrieval","new_object","284","Goose_Canadian.jpg",".",".","36","0","548"
"32","32","retrieval","old_object","285","Comb.jpg",".","1","37","0","512"
"32","32","retrieval","new_object","286","Mop.jpg",".",".","37","1","469"
"32","32","retrieval","old_object","287","Screw.jpg",".","1","37","0","569"
"32","32","retrieval","old_object","288","Toy_PoliceCar.jpg",".","1","37","0","550"
"32","32","retrieval","new_object","289","Lock_Combination.jpg",".",".","37","1","483"
"32","32","retrieval","new_object","290","Chair_BeanBag.jpg",".",".","37","1","615"
"32","32","retrieval","old_object","291","Chinchilla.jpg",".","3","36","1","684"
"32","32","retrieval","old_object","292","BicycleGear.jpg",".","3","37","0","816"
"32","32","retrieval","old_object","293","Helmet_Knight.jpg",".","1","36","1","749"
"32","32","retrieval","new_object","294","MouthGuard.jpg",".",".","37","1","1178"
"32","32","retrieval","new_object","295","Megaphone.jpg",".",".","37","1","1373"
"32","32","retrieval","new_object","296","PassionFruit.jpg",".",".","36","0","642"
"32","32","retrieval","old_object","297","Switch_LightWhite.jpg",".","1","37","0","1079"
"32","32","retrieval","new_object","298","Peppermill.jpg",".",".","37","1","723"
"32","32","retrieval","old_object","299","Statue_SouthAmerican.jpg",".","3","36","1","1128"
"32","32","retrieval","old_object","300","Pipe.jpg",".","3","37","0","1507"
"32","32","retrieval","new_object","301","Fuse.jpg",".",".","37","1","1400"
"32","32","retrieval","new_object","302","Golf_Bag.jpg",".",".","37","1","1229"
"32","32","retrieval","old_object","303","Bottle_BubbleBlower.jpg",".","1","37","0","1257"
"32","32","retrieval","old_object","304","SkiPoles.jpg",".","1","37","0","1510"
"32","32","retrieval","old_object","305","Ball_8.jpg",".","3","37","0","1106"
"32","32","retrieval","old_object","306","Box_Present.jpg",".","1","37","0","743"
"32","32","retrieval","new_object","307","Trumpet.jpg",".",".","37","1","1268"
"32","32","retrieval","new_object","308","BicycleHandleGrip.jpg",".",".","37","1","1360"
"32","32","retrieval","old_object","309","FlipFlop_PairBlue.jpg",".","1","37","0","1069"
"32","32","retrieval","old_object","310","Fencing_HelmetSwords.jpg",".","3","36","1","993"
"32","32","retrieval","old_object","311","CoffeeGrinder.jpg",".","1","36","1","1798"
"32","32","retrieval","old_object","312","ShoppingCart.jpg",".","1","37","0","555"
"32","32","retrieval","new_object","313","Box_Jewellery.jpg",".",".","36","0","1735"
"32","32","retrieval","old_object","314","GranolaBar.jpg",".","1","36","1","1283"
"32","32","retrieval","new_object","315","Keg.jpg",".",".","37","1","951"
"32","32","retrieval","old_object","316","Tire_Hollow.jpg",".","1","37","0","1004"
"32","32","retrieval","old_object","317","Shield_Antique.jpg",".","3","36","1","1417"
"32","32","retrieval","new_object","318","RemoteControl.jpg",".",".","37","1","1661"
"32","32","retrieval","new_object","319","Fish_Rockbass.jpg",".",".","36","0","778"
"32","32","retrieval","new_object","320","Stove_Camping.jpg",".",".","37","1","646"
"32","32","retrieval","old_object","321","SundaeBanana.jpg",".","1","37","0","1435"
"32","32","retrieval","old_object","322","Pickaxe.jpg",".","","37","0","1616"
"32","32","retrieval","new_object","323","Knife_Hunting.jpg",".",".","37","1","1140"
"32","32","retrieval","new_object","324","Cassette_Audio.jpg",".",".","36","0","1857"
"32","32","retrieval","new_object","325","PuppetTheatre_WhiteGold.jpg",".",".","37","1","1109"
"32","32","demographics_block","gender","1",".",".",".","Male","1","23591"
"32","32","demographics_block","age","1",".",".",".","28","1","23591"
"32","32","demographics_block","education","1",".",".",".","16","1","23591"
"32","32","demographics_block","left_right_handed","2",".",".",".","Right","1","16530"
"32","32","demographics_block","raceoption1","2",".",".",".","","1","16530"
"32","32","demographics_block","raceoption2","2",".",".",".","","1","16530"
"32","32","demographics_block","raceoption3","2",".",".",".","","1","16530"
"32","32","demographics_block","raceoption4","2",".",".",".","","1","16530"
"32","32","demographics_block","raceoption5","2",".",".",".","","1","16530"
"32","32","demographics_block","raceoption6","2",".",".",".","5","1","16530"
"32","32","demographics_block","raceoption7","2",".",".",".","","1","16530"
"32","32","demographics_block","raceoption8","2",".",".",".","","1","16530"
"32","32","demographics_block","raceoption9","2",".",".",".","","1","16530"
"32","32","demographics_block","raceother","2",".",".",".","","1","16530"
"32","32","demographics_block","raceother","2",".",".",".","","1","16530"
"32","32","demographics_block","english_language","2",".",".",".","Yes","1","16530"
"32","32","demographics_block","other","2",".",".",".","","1","16530"
"32","32","demographics_block","eyesight","3",".",".",".","Yes","1","8857"
"32","32","demographics_block","colorblind","3",".",".",".","No","1","8857"
