"group","subject","blockcode","trialcode","trialnum","stimulus","encoding_condition","old_object_condition","response","correct","latency"
"25","25","encoding","encoding","1","DeepFryer.jpg","3",".","37","0","862"
"25","25","encoding","encoding","2","VinylRecord.jpg","3",".","37","0","772"
"25","25","encoding","encoding","3","Suitcase.jpg","1",".","37","0","581"
"25","25","encoding","encoding","4","Cologne.jpg","3",".","37","0","565"
"25","25","encoding","encoding","5","DonaldDuck_Toy.jpg","3",".","37","0","540"
"25","25","encoding","encoding","6","Bag_Toiletry.jpg","1",".","37","0","520"
"25","25","encoding","encoding","7","Boat_Colourful.jpg","1",".","37","0","532"
"25","25","encoding","encoding","8","Bucket_WoodenLight.jpg","1",".","37","0","632"
"25","25","encoding","encoding","9","Piano_Upright.jpg","3",".","37","0","651"
"25","25","encoding","encoding","10","Jars_PetFood.jpg","1",".","37","0","549"
"25","25","encoding","encoding","11","RecorderInstrument.jpg","3",".","37","0","668"
"25","25","encoding","encoding","12","MortarPestle_WhiteMarble.jpg","3",".","37","0","487"
"25","25","encoding","encoding","13","Piano_Upright.jpg","3",".","37","0","371"
"25","25","encoding","encoding","14","SaladCaesar.jpg","3",".","37","0","576"
"25","25","encoding","encoding","15","Snowpea.jpg","3",".","36","0","526"
"25","25","encoding","encoding","16","Puffin.jpg","1",".","37","0","839"
"25","25","encoding","encoding","17","IceCubes.jpg","3",".","36","0","716"
"25","25","encoding","encoding","18","Toy_Bat.jpg","3",".","36","0","657"
"25","25","encoding","encoding","19","RecorderInstrument.jpg","3",".","37","0","564"
"25","25","encoding","encoding","20","PersonWooden.jpg","3",".","37","0","624"
"25","25","encoding","encoding","21","Card_TwoSpade.jpg","3",".","37","0","496"
"25","25","encoding","encoding","22","Clamp_Screw.jpg","3",".","37","0","473"
"25","25","encoding","encoding","23","Car_Buggy.jpg","3",".","37","0","474"
"25","25","encoding","encoding","24","Sink_Kitchen.jpg","3",".","37","0","397"
"25","25","encoding","encoding","25","Box_WoodCrate.jpg","1",".","37","0","374"
"25","25","encoding","encoding","26","Ginger.jpg","3",".","36","0","583"
"25","25","encoding","encoding","27","Toy_Dog.jpg","3",".","37","0","677"
"25","25","encoding","encoding","28","NailFiles.jpg","3",".","37","0","579"
"25","25","encoding","encoding","29","Cologne.jpg","3",".","37","0","394"
"25","25","encoding","encoding","30","Tray_Medical.jpg","3",".","37","0","423"
"25","25","encoding","encoding","31","Stick_Stirring.jpg","1",".","37","0","521"
"25","25","encoding","encoding","32","Bicycle_Kids.jpg","3",".","37","0","450"
"25","25","encoding","encoding","33","Lips_Wax.jpg","3",".","37","0","560"
"25","25","encoding","encoding","34","MortarPestle_WhiteMarble.jpg","3",".","37","0","512"
"25","25","encoding","encoding","35","PersonWooden.jpg","3",".","37","0","513"
"25","25","encoding","encoding","36","Shrimp.jpg","3",".","36","0","486"
"25","25","encoding","encoding","37","Toy_Rooster.jpg","3",".","37","0","605"
"25","25","encoding","encoding","38","Box_Cutlery.jpg","3",".","37","0","496"
"25","25","encoding","encoding","39","Suit_Women.jpg","3",".","37","0","610"
"25","25","encoding","encoding","40","Decoration_ChristmasWhite.jpg","1",".","37","0","592"
"25","25","encoding","encoding","41","HairBand.jpg","1",".","37","0","599"
"25","25","encoding","encoding","42","Suit_Women.jpg","3",".","37","0","559"
"25","25","encoding","encoding","43","IroningBoard.jpg","3",".","37","0","613"
"25","25","encoding","encoding","44","Ruler_Wooden.jpg","1",".","37","0","575"
"25","25","encoding","encoding","45","Toy_Taxi.jpg","3",".","37","0","544"
"25","25","encoding","encoding","46","PaperTowel_Brown.jpg","3",".","37","0","657"
"25","25","encoding","encoding","47","Stick_IceHockey.jpg","3",".","37","0","652"
"25","25","encoding","encoding","48","Pouch_Red.jpg","1",".","37","0","503"
"25","25","encoding","encoding","49","Stool_Camping.jpg","3",".","37","0","498"
"25","25","encoding","encoding","50","HairClipper.jpg","3",".","37","0","462"
"25","25","encoding","encoding","51","PaperCutter.jpg","3",".","37","0","499"
"25","25","encoding","encoding","52","Toy_Ladybug.jpg","1",".","37","0","624"
"25","25","encoding","encoding","53","SnowmanDecor.jpg","3",".","37","0","607"
"25","25","encoding","encoding","54","Flashlight.jpg","1",".","37","0","616"
"25","25","encoding","encoding","55","RecorderInstrument.jpg","3",".","37","0","612"
"25","25","encoding","encoding","56","Hat_Feather.jpg","3",".","37","0","594"
"25","25","encoding","encoding","57","Helicopter.jpg","1",".","37","0","447"
"25","25","encoding","encoding","58","Compressor.jpg","1",".","37","0","514"
"25","25","encoding","encoding","59","CarLighter.jpg","3",".","37","0","488"
"25","25","encoding","encoding","60","Mask_VenetianCat.jpg","3",".","37","0","530"
"25","25","encoding","encoding","61","Toy_BeadMaze.jpg","1",".","37","0","523"
"25","25","encoding","encoding","62","TelescopeSpacecraft.jpg","3",".","37","0","671"
"25","25","encoding","encoding","63","Boar.jpg","1",".","36","0","522"
"25","25","encoding","encoding","64","Toy_Bat.jpg","3",".","36","0","473"
"25","25","encoding","encoding","65","Cheeseburger.jpg","1",".","37","0","466"
"25","25","encoding","encoding","67","Card_Deck.jpg","3",".","37","0","672"
"25","25","encoding","encoding","68","CDstack.jpg","3",".","37","0","620"
"25","25","encoding","encoding","69","Speakers_Theatre.jpg","3",".","37","0","543"
"25","25","encoding","encoding","70","Carrot.jpg","1",".","36","0","555"
"25","25","encoding","encoding","71","Sandwich_Ham.jpg","3",".","37","0","620"
"25","25","encoding","encoding","72","Otoscope.jpg","1",".","37","0","547"
"25","25","encoding","encoding","73","TowelRack_Metal.jpg","1",".","37","0","430"
"25","25","encoding","encoding","74","SoapDish.jpg","3",".","37","0","650"
"25","25","encoding","encoding","75","Toy_Firetruck.jpg","3",".","37","0","461"
"25","25","encoding","encoding","76","Ginger.jpg","3",".","36","0","527"
"25","25","encoding","encoding","77","RadioactiveContainer.jpg","1",".","37","0","385"
"25","25","encoding","encoding","78","OperaGlasses.jpg","3",".","37","0","415"
"25","25","encoding","encoding","79","FuzzyDice.jpg","3",".","37","0","508"
"25","25","encoding","encoding","80","PowderProtein.jpg","1",".","37","0","593"
"25","25","encoding","encoding","81","Garlic_Clove.jpg","3",".","36","0","642"
"25","25","encoding","encoding","82","Broccoli.jpg","1",".","36","0","489"
"25","25","encoding","encoding","83","EyeChart.jpg","3",".","37","0","445"
"25","25","encoding","encoding","84","Toy_Firetruck.jpg","3",".","37","0","416"
"25","25","encoding","encoding","85","DonaldDuck_Toy.jpg","3",".","37","0","400"
"25","25","encoding","encoding","86","Dice.jpg","3",".","37","0","459"
"25","25","encoding","encoding","87","MatchBook.jpg","1",".","37","0","660"
"25","25","encoding","encoding","88","Bowl_Chopsticks.jpg","3",".","37","0","648"
"25","25","encoding","encoding","89","Nail.jpg","3",".","37","0","474"
"25","25","encoding","encoding","90","Seeder.jpg","3",".","37","0","449"
"25","25","encoding","encoding","91","Car_Buggy.jpg","3",".","37","0","382"
"25","25","encoding","encoding","92","Shovel_Garden.jpg","1",".","37","0","422"
"25","25","encoding","encoding","93","Backhoe.jpg","1",".","37","0","470"
"25","25","encoding","encoding","94","Speakers_Theatre.jpg","3",".","37","0","445"
"25","25","encoding","encoding","95","SnowmanDecor.jpg","3",".","37","0","402"
"25","25","encoding","encoding","96","Cloud.jpg","3",".","37","0","721"
"25","25","encoding","encoding","97","Sandwich_Ham.jpg","3",".","37","0","758"
"25","25","encoding","encoding","98","Stone_Spa.jpg","1",".","36","0","784"
"25","25","encoding","encoding","99","TelescopeSpacecraft.jpg","3",".","37","0","578"
"25","25","encoding","encoding","100","BrainSagittal.jpg","1",".","37","0","685"
"25","25","encoding","encoding","101","ColoringSet.jpg","3",".","37","0","635"
"25","25","encoding","encoding","102","Toy_Wooden rings.jpg","3",".","37","0","629"
"25","25","encoding","encoding","103","Stool_Camping.jpg","3",".","37","0","523"
"25","25","encoding","encoding","104","Candleholder_LampShaped.jpg","3",".","37","0","587"
"25","25","encoding","encoding","105","FuzzyDice.jpg","3",".","37","0","542"
"25","25","encoding","encoding","106","PumpBreast.jpg","3",".","37","0","555"
"25","25","encoding","encoding","107","Lips_Wax.jpg","3",".","37","0","577"
"25","25","encoding","encoding","108","Canister_Tea.jpg","1",".","37","0","678"
"25","25","encoding","encoding","109","Pyramid.jpg","1",".","36","0","687"
"25","25","encoding","encoding","110","Dropper.jpg","3",".","37","0","540"
"25","25","encoding","encoding","111","Sphinx.jpg","1",".","37","0","781"
"25","25","encoding","encoding","112","Ginger.jpg","3",".","36","0","577"
"25","25","encoding","encoding","113","WalkieTalkie_Yellow.jpg","1",".","37","0","461"
"25","25","encoding","encoding","114","Snowpea.jpg","3",".","36","0","564"
"25","25","encoding","encoding","115","Pretzel_Sticks.jpg","3",".","37","0","645"
"25","25","encoding","encoding","116","Celery.jpg","3",".","36","0","543"
"25","25","encoding","encoding","117","Toy_Dog.jpg","3",".","37","0","415"
"25","25","encoding","encoding","118","NailFiles.jpg","3",".","37","0","401"
"25","25","encoding","encoding","119","Toy_Firetruck.jpg","3",".","37","0","399"
"25","25","encoding","encoding","120","Mitt_Blue.jpg","3",".","37","0","462"
"25","25","encoding","encoding","121","Ostrich.jpg","1",".","36","0","718"
"25","25","encoding","encoding","122","LintRemover.jpg","3",".","37","0","469"
"25","25","encoding","encoding","123","Nail.jpg","3",".","37","0","415"
"25","25","encoding","encoding","124","LeafBlower.jpg","1",".","37","0","365"
"25","25","encoding","encoding","125","Piano_Upright.jpg","3",".","37","0","500"
"25","25","encoding","encoding","126","Pretzel_Sticks.jpg","3",".","37","0","587"
"25","25","encoding","encoding","127","Card_TwoSpade.jpg","3",".","37","0","489"
"25","25","encoding","encoding","128","Heater_ElectricUpright.jpg","1",".","37","0","407"
"25","25","encoding","encoding","129","Protractor.jpg","3",".","37","0","535"
"25","25","encoding","encoding","130","Drum_Ramadan.jpg","3",".","37","0","626"
"25","25","encoding","encoding","131","Lynx.jpg","1",".","36","0","674"
"25","25","encoding","encoding","133","Glasses_Sun.jpg","3",".","37","0","571"
"25","25","encoding","encoding","134","DeepFryer.jpg","3",".","37","0","771"
"25","25","encoding","encoding","135","Airplane_Small.jpg","3",".","37","0","576"
"25","25","encoding","encoding","136","Toy_Rooster.jpg","3",".","37","0","647"
"25","25","encoding","encoding","137","VacuumHose.jpg","3",".","37","0","502"
"25","25","encoding","encoding","138","TowelRack_Brown.jpg","1",".","37","0","412"
"25","25","encoding","encoding","139","Cloud.jpg","3",".","36","0","863"
"25","25","encoding","encoding","140","Lips_Wax.jpg","3",".","0","0","1000"
"25","25","encoding","encoding","141","Box_Cutlery.jpg","3",".","37","0","707"
"25","25","encoding","encoding","142","Celery.jpg","3",".","36","0","605"
"25","25","encoding","encoding","143","Drum_Ramadan.jpg","3",".","37","0","498"
"25","25","encoding","encoding","144","Hat_Feather.jpg","3",".","37","0","551"
"25","25","encoding","encoding","145","Garlic_Clove.jpg","3",".","36","0","482"
"25","25","encoding","encoding","146","Seeder.jpg","3",".","37","0","534"
"25","25","encoding","encoding","147","Level.jpg","3",".","37","0","472"
"25","25","encoding","encoding","148","Coral.jpg","1",".","36","0","610"
"25","25","encoding","encoding","149","Lobster.jpg","1",".","36","0","822"
"25","25","encoding","encoding","150","Bagpipes.jpg","3",".","37","0","664"
"25","25","encoding","encoding","151","Makeup_Bag.jpg","3",".","37","0","460"
"25","25","encoding","encoding","152","IceCubes.jpg","3",".","36","0","574"
"25","25","encoding","encoding","153","Card_Deck.jpg","3",".","37","0","471"
"25","25","encoding","encoding","154","Golf_Club.jpg","3",".","37","0","506"
"25","25","encoding","encoding","155","Makeup_Bag.jpg","3",".","37","0","515"
"25","25","encoding","encoding","156","PaperCutter.jpg","3",".","37","0","545"
"25","25","encoding","encoding","157","Shoes_Mould.jpg","1",".","37","0","620"
"25","25","encoding","encoding","158","Toy_Wooden rings.jpg","3",".","37","0","710"
"25","25","encoding","encoding","159","Sign_SlipperyRoad.jpg","1",".","37","0","660"
"25","25","encoding","encoding","160","Pear_Green.jpg","1",".","36","0","534"
"25","25","encoding","encoding","161","WaterCooler.jpg","1",".","37","0","455"
"25","25","encoding","encoding","162","Scorpion.jpg","1",".","36","0","555"
"25","25","encoding","encoding","163","Mat_Bamboo.jpg","1",".","37","0","570"
"25","25","encoding","encoding","164","ClothesDryingRack.jpg","3",".","37","0","629"
"25","25","encoding","encoding","165","Toy_Rooster.jpg","3",".","37","0","567"
"25","25","encoding","encoding","166","ComputerKey_Escape.jpg","3",".","37","0","504"
"25","25","encoding","encoding","167","Golf_Club.jpg","3",".","37","0","501"
"25","25","encoding","encoding","168","GrillRack.jpg","3",".","37","0","401"
"25","25","encoding","encoding","169","Desk_Office.jpg","1",".","37","0","417"
"25","25","encoding","encoding","170","Camera_Video.jpg","3",".","37","0","401"
"25","25","encoding","encoding","171","VacuumHose.jpg","3",".","37","0","468"
"25","25","encoding","encoding","172","Toy_BearBrownPlushie.jpg","1",".","37","0","637"
"25","25","encoding","encoding","173","Bowl_Chopsticks.jpg","3",".","37","0","746"
"25","25","encoding","encoding","174","HairClipper.jpg","3",".","37","0","487"
"25","25","encoding","encoding","175","MortarPestle_WhiteMarble.jpg","3",".","37","0","538"
"25","25","encoding","encoding","176","SaladCaesar.jpg","3",".","37","0","597"
"25","25","encoding","encoding","177","Car_Buggy.jpg","3",".","37","0","608"
"25","25","encoding","encoding","178","ComputerKey_Escape.jpg","3",".","37","0","470"
"25","25","encoding","encoding","179","Hat_Police.jpg","3",".","37","0","424"
"25","25","encoding","encoding","180","SoapDish.jpg","3",".","37","0","433"
"25","25","encoding","encoding","181","Golf_Club.jpg","3",".","37","0","450"
"25","25","encoding","encoding","182","Sink_Kitchen.jpg","3",".","37","0","413"
"25","25","encoding","encoding","183","Protractor.jpg","3",".","37","0","447"
"25","25","encoding","encoding","184","Dice.jpg","3",".","37","0","621"
"25","25","encoding","encoding","185","Seeder.jpg","3",".","37","0","614"
"25","25","encoding","encoding","186","Camera_Video.jpg","3",".","37","0","490"
"25","25","encoding","encoding","187","Computer_ExpansionCard.jpg","1",".","37","0","403"
"25","25","encoding","encoding","188","OperaGlasses.jpg","3",".","37","0","457"
"25","25","encoding","encoding","189","Makeup_Bag.jpg","3",".","37","0","430"
"25","25","encoding","encoding","190","Paddle_Canoe.jpg","1",".","37","0","477"
"25","25","encoding","encoding","191","Shrimp.jpg","3",".","36","0","523"
"25","25","encoding","encoding","192","Squash_Butternut.jpg","1",".","36","0","516"
"25","25","encoding","encoding","193","PaperTowel_Brown.jpg","3",".","37","0","466"
"25","25","encoding","encoding","194","FuzzyDice.jpg","3",".","37","0","384"
"25","25","encoding","encoding","195","Hat_Feather.jpg","3",".","37","0","444"
"25","25","encoding","encoding","196","Case_CD.jpg","1",".","37","0","464"
"25","25","encoding","encoding","197","Card_TwoSpade.jpg","3",".","37","0","423"
"25","25","encoding","encoding","199","PersonWooden.jpg","3",".","37","0","588"
"25","25","encoding","encoding","200","Garlic_Clove.jpg","3",".","36","0","563"
"25","25","encoding","encoding","201","Bagpipes.jpg","3",".","37","0","397"
"25","25","encoding","encoding","202","Shrimp.jpg","3",".","36","0","426"
"25","25","encoding","encoding","203","Balcony.jpg","1",".","37","0","387"
"25","25","encoding","encoding","204","PumpBreast.jpg","3",".","37","0","379"
"25","25","encoding","encoding","205","Airplane_Small.jpg","3",".","37","0","382"
"25","25","encoding","encoding","206","CarLighter.jpg","3",".","37","0","385"
"25","25","encoding","encoding","207","Tray_Medical.jpg","3",".","37","0","348"
"25","25","encoding","encoding","208","Puzzle_Animal.jpg","3",".","37","0","439"
"25","25","encoding","encoding","209","Bagpipes.jpg","3",".","37","0","388"
"25","25","encoding","encoding","210","PaperTowel_Brown.jpg","3",".","37","0","462"
"25","25","encoding","encoding","211","IroningBoard.jpg","3",".","37","0","398"
"25","25","encoding","encoding","212","Speakers_Theatre.jpg","3",".","37","0","373"
"25","25","encoding","encoding","213","Snorkle.jpg","3",".","37","0","420"
"25","25","encoding","encoding","214","Nail.jpg","3",".","37","0","419"
"25","25","encoding","encoding","215","Bowl_Chopsticks.jpg","3",".","37","0","484"
"25","25","encoding","encoding","216","Drum_Ramadan.jpg","3",".","37","0","406"
"25","25","encoding","encoding","217","ClothesDryingRack.jpg","3",".","37","0","430"
"25","25","encoding","encoding","218","Sink_Kitchen.jpg","3",".","37","0","406"
"25","25","encoding","encoding","219","Pretzel_Sticks.jpg","3",".","37","0","552"
"25","25","encoding","encoding","220","ClothesDryingRack.jpg","3",".","37","0","531"
"25","25","encoding","encoding","221","Protractor.jpg","3",".","37","0","411"
"25","25","encoding","encoding","222","Snorkle.jpg","3",".","37","0","463"
"25","25","encoding","encoding","223","Snorkle.jpg","3",".","37","0","386"
"25","25","encoding","encoding","224","VinylRecord.jpg","3",".","37","0","505"
"25","25","encoding","encoding","225","Bus_DoubleDecker.jpg","1",".","37","0","461"
"25","25","encoding","encoding","226","LintRemover.jpg","3",".","37","0","577"
"25","25","encoding","encoding","227","SaladCaesar.jpg","3",".","37","0","609"
"25","25","encoding","encoding","228","Puzzle_Animal.jpg","3",".","37","0","608"
"25","25","encoding","encoding","229","BowlingPin.jpg","1",".","37","0","615"
"25","25","encoding","encoding","230","CarLighter.jpg","3",".","37","0","588"
"25","25","encoding","encoding","231","CDstack.jpg","3",".","37","0","574"
"25","25","encoding","encoding","232","Mask_VenetianCat.jpg","3",".","37","0","593"
"25","25","encoding","encoding","233","Paddle_Ball.jpg","1",".","37","0","522"
"25","25","encoding","encoding","234","Stick_IceHockey.jpg","3",".","37","0","536"
"25","25","encoding","encoding","235","Fan_Straw.jpg","3",".","37","0","585"
"25","25","encoding","encoding","236","OperaGlasses.jpg","3",".","37","0","520"
"25","25","encoding","encoding","237","IceCubes.jpg","3",".","36","0","611"
"25","25","encoding","encoding","238","Bicycle_Kids.jpg","3",".","37","0","468"
"25","25","encoding","encoding","239","Card_Deck.jpg","3",".","37","0","424"
"25","25","encoding","encoding","240","Dragonfly.jpg","1",".","36","0","545"
"25","25","encoding","encoding","241","GrillRack.jpg","3",".","37","0","387"
"25","25","encoding","encoding","242","Cloud.jpg","3",".","36","0","512"
"25","25","encoding","encoding","243","Toy_Taxi.jpg","3",".","37","0","396"
"25","25","encoding","encoding","244","Hat_Police.jpg","3",".","37","0","437"
"25","25","encoding","encoding","245","Bicycle_Kids.jpg","3",".","37","0","399"
"25","25","encoding","encoding","246","Clippers_Glass.jpg","1",".","37","0","453"
"25","25","encoding","encoding","247","IroningBoard.jpg","3",".","37","0","395"
"25","25","encoding","encoding","248","Toy_Bat.jpg","3",".","36","0","629"
"25","25","encoding","encoding","249","Blueberry.jpg","1",".","36","0","623"
"25","25","encoding","encoding","250","Dog_Bulldog.jpg","1",".","36","0","676"
"25","25","encoding","encoding","251","Tape_Dispenser.jpg","1",".","37","0","460"
"25","25","encoding","encoding","252","Heater_Outdoor.jpg","1",".","37","0","413"
"25","25","encoding","encoding","253","Candleholder_LampShaped.jpg","3",".","37","0","416"
"25","25","encoding","encoding","254","Suit_Women.jpg","3",".","37","0","399"
"25","25","encoding","encoding","255","Clamp_Screw.jpg","3",".","37","0","406"
"25","25","encoding","encoding","256","ColoringSet.jpg","3",".","37","0","447"
"25","25","encoding","encoding","257","ComputerKey_Escape.jpg","3",".","37","0","558"
"25","25","encoding","encoding","258","DonaldDuck_Toy.jpg","3",".","37","0","586"
"25","25","encoding","encoding","259","ShinPads.jpg","1",".","37","0","586"
"25","25","encoding","encoding","260","LintRemover.jpg","3",".","37","0","544"
"25","25","encoding","encoding","261","Candleholder_LampShaped.jpg","3",".","37","0","406"
"25","25","encoding","encoding","262","Mask_VenetianCat.jpg","3",".","37","0","414"
"25","25","encoding","encoding","263","FlintIgniter.jpg","1",".","37","0","425"
"25","25","encoding","encoding","265","Glasses_Sun.jpg","3",".","37","0","650"
"25","25","encoding","encoding","266","TelescopeSpacecraft.jpg","3",".","37","0","452"
"25","25","encoding","encoding","267","Puzzle_Animal.jpg","3",".","37","0","403"
"25","25","encoding","encoding","268","SnowmanDecor.jpg","3",".","37","0","356"
"25","25","encoding","encoding","269","Airplane_Small.jpg","3",".","37","0","393"
"25","25","encoding","encoding","270","Glove_Baseball.jpg","3",".","37","0","410"
"25","25","encoding","encoding","271","Neckrest.jpg","1",".","37","0","394"
"25","25","encoding","encoding","272","Clamp_Screw.jpg","3",".","37","0","367"
"25","25","encoding","encoding","273","Mitt_Blue.jpg","3",".","37","0","375"
"25","25","encoding","encoding","274","VacuumHose.jpg","3",".","37","0","382"
"25","25","encoding","encoding","275","Pasta_Fettuccine.jpg","1",".","37","0","366"
"25","25","encoding","encoding","276","Mitt_Blue.jpg","3",".","37","0","409"
"25","25","encoding","encoding","277","Toy_Taxi.jpg","3",".","37","0","372"
"25","25","encoding","encoding","278","Toy_Wooden rings.jpg","3",".","37","0","400"
"25","25","encoding","encoding","279","HairClipper.jpg","3",".","37","0","393"
"25","25","encoding","encoding","280","Camera_Video.jpg","3",".","37","0","434"
"25","25","encoding","encoding","281","Tray_Medical.jpg","3",".","37","0","412"
"25","25","encoding","encoding","282","Match.jpg","1",".","37","0","522"
"25","25","encoding","encoding","283","SoapDish.jpg","3",".","37","0","451"
"25","25","encoding","encoding","284","Stick_IceHockey.jpg","3",".","37","0","426"
"25","25","encoding","encoding","285","Walkman.jpg","1",".","37","0","405"
"25","25","encoding","encoding","286","Dice.jpg","3",".","37","0","488"
"25","25","encoding","encoding","287","Sandwich_Ham.jpg","3",".","37","0","576"
"25","25","encoding","encoding","288","Notepad.jpg","1",".","37","0","421"
"25","25","encoding","encoding","289","Dropper.jpg","3",".","37","0","398"
"25","25","encoding","encoding","290","Snowpea.jpg","3",".","36","0","520"
"25","25","encoding","encoding","291","Cologne.jpg","3",".","37","0","360"
"25","25","encoding","encoding","292","VinylRecord.jpg","3",".","37","0","433"
"25","25","encoding","encoding","293","Shirt_Tshirt.jpg","1",".","37","0","377"
"25","25","encoding","encoding","294","Toy_TrailerAirport.jpg","1",".","37","0","456"
"25","25","encoding","encoding","295","Glove_Baseball.jpg","3",".","37","0","417"
"25","25","encoding","encoding","296","WaterHeater.jpg","1",".","37","0","509"
"25","25","encoding","encoding","297","Celery.jpg","3",".","36","0","516"
"25","25","encoding","encoding","298","CDstack.jpg","3",".","37","0","435"
"25","25","encoding","encoding","299","Tray_Metal.jpg","1",".","37","0","475"
"25","25","encoding","encoding","300","PumpBreast.jpg","3",".","37","0","436"
"25","25","encoding","encoding","301","Fan_Straw.jpg","3",".","37","0","477"
"25","25","encoding","encoding","302","Coin.jpg","1",".","37","0","419"
"25","25","encoding","encoding","303","Barrel_Wine.jpg","1",".","37","0","478"
"25","25","encoding","encoding","304","Box_Cutlery.jpg","3",".","37","0","456"
"25","25","encoding","encoding","305","Level.jpg","3",".","37","0","417"
"25","25","encoding","encoding","306","Glasses_Sun.jpg","3",".","37","0","388"
"25","25","encoding","encoding","307","Fan_Straw.jpg","3",".","37","0","455"
"25","25","encoding","encoding","308","PaperCutter.jpg","3",".","37","0","521"
"25","25","encoding","encoding","309","Glove_Baseball.jpg","3",".","37","0","410"
"25","25","encoding","encoding","310","TreeStump.jpg","1",".","36","0","611"
"25","25","encoding","encoding","311","Toy_DonkeyFur.jpg","1",".","37","0","572"
"25","25","encoding","encoding","312","Toy_Christmastree.jpg","1",".","37","0","532"
"25","25","encoding","encoding","313","ColoringSet.jpg","3",".","37","0","349"
"25","25","encoding","encoding","314","Toy_Dog.jpg","3",".","37","0","525"
"25","25","encoding","encoding","315","EyeChart.jpg","3",".","37","0","393"
"25","25","encoding","encoding","316","NailFiles.jpg","3",".","37","0","368"
"25","25","encoding","encoding","317","GrillRack.jpg","3",".","37","0","348"
"25","25","encoding","encoding","318","Level.jpg","3",".","37","0","409"
"25","25","encoding","encoding","319","Hat_Police.jpg","3",".","37","0","365"
"25","25","encoding","encoding","320","Dropper.jpg","3",".","37","0","421"
"25","25","encoding","encoding","321","DeepFryer.jpg","3",".","37","0","352"
"25","25","encoding","encoding","322","ShoeLace_Flat.jpg","1",".","37","0","538"
"25","25","encoding","encoding","323","EyeChart.jpg","3",".","37","0","486"
"25","25","encoding","encoding","324","Stool_Camping.jpg","3",".","37","0","459"
"25","25","encoding","encoding","325","DeepFryer.jpg","",".","37","0","373"
"25","25","retrieval","old_object","1","Sign_SlipperyRoad.jpg",".","1","36","1","1001"
"25","25","retrieval","new_object","2","Bread_Carrot.jpg",".",".","37","1","908"
"25","25","retrieval","new_object","3","ManholeCover.jpg",".",".","37","1","1068"
"25","25","retrieval","old_object","4","Tray_Medical.jpg",".","3","36","1","693"
"25","25","retrieval","old_object","5","Box_Cutlery.jpg",".","3","36","1","729"
"25","25","retrieval","old_object","6","Snowpea.jpg",".","3","36","1","745"
"25","25","retrieval","new_object","7","PocketKnife.jpg",".",".","37","1","1062"
"25","25","retrieval","new_object","8","SatelliteDish.jpg",".",".","37","1","863"
"25","25","retrieval","old_object","9","GrillRack.jpg",".","3","36","1","1012"
"25","25","retrieval","old_object","10","ShinPads.jpg",".","1","36","1","848"
"25","25","retrieval","old_object","11","Box_WoodCrate.jpg",".","1","36","1","857"
"25","25","retrieval","new_object","12","Bone.jpg",".",".","37","1","658"
"25","25","retrieval","new_object","13","Corkboard.jpg",".",".","37","1","766"
"25","25","retrieval","old_object","14","Cheeseburger.jpg",".","1","37","0","1070"
"25","25","retrieval","new_object","15","Cassette_Video.jpg",".",".","37","1","893"
"25","25","retrieval","new_object","16","sign_traffic.jpg",".",".","37","1","888"
"25","25","retrieval","new_object","17","House_Wooden.jpg",".",".","37","1","838"
"25","25","retrieval","old_object","18","Boar.jpg",".","1","36","1","729"
"25","25","retrieval","new_object","19","Flags_CheckeredRacing.jpg",".",".","37","1","749"
"25","25","retrieval","new_object","20","CoffeeLid.jpg",".",".","37","1","752"
"25","25","retrieval","old_object","21","PowderProtein.jpg",".","1","36","1","943"
"25","25","retrieval","old_object","22","Shrimp.jpg",".","3","36","1","752"
"25","25","retrieval","old_object","23","Shirt_Tshirt.jpg",".","1","36","1","770"
"25","25","retrieval","old_object","24","Puzzle_Animal.jpg",".","3","36","1","709"
"25","25","retrieval","new_object","25","Scythe.jpg",".",".","37","1","648"
"25","25","retrieval","new_object","26","Spatula.jpg",".",".","37","1","813"
"25","25","retrieval","old_object","27","Clippers_Glass.jpg",".","1","37","0","708"
"25","25","retrieval","old_object","28","BowlingPin.jpg",".","1","36","1","675"
"25","25","retrieval","new_object","29","Compact_Mirror.jpg",".",".","36","0","1003"
"25","25","retrieval","new_object","30","TailLight.jpg",".",".","37","1","616"
"25","25","retrieval","new_object","31","Ladybug.jpg",".",".","37","1","692"
"25","25","retrieval","new_object","32","CodeDoorLock.jpg",".",".","37","1","748"
"25","25","retrieval","old_object","33","Broccoli.jpg",".","1","36","1","690"
"25","25","retrieval","old_object","34","Toy_BearBrownPlushie.jpg",".","1","37","0","1047"
"25","25","retrieval","old_object","35","Suitcase.jpg",".","1","36","1","626"
"25","25","retrieval","old_object","36","Toy_Rooster.jpg",".","3","36","1","619"
"25","25","retrieval","old_object","37","Suit_Women.jpg",".","3","36","1","905"
"25","25","retrieval","old_object","38","PaperCutter.jpg",".","3","36","1","659"
"25","25","retrieval","new_object","39","RAMchip.jpg",".",".","37","1","653"
"25","25","retrieval","new_object","40","Acorn.jpg",".",".","37","1","648"
"25","25","retrieval","old_object","41","Toy_Ladybug.jpg",".","1","37","0","1013"
"25","25","retrieval","new_object","42","Binder.jpg",".",".","37","1","889"
"25","25","retrieval","new_object","43","Makeup_Compact.jpg",".",".","36","0","834"
"25","25","retrieval","old_object","44","Carrot.jpg",".","1","37","0","1021"
"25","25","retrieval","new_object","45","Taco.jpg",".",".","37","1","684"
"25","25","retrieval","old_object","46","Hat_Police.jpg",".","3","36","1","626"
"25","25","retrieval","old_object","47","Coral.jpg",".","1","37","0","617"
"25","25","retrieval","old_object","48","Sphinx.jpg",".","1","36","1","717"
"25","25","retrieval","old_object","49","VinylRecord.jpg",".","3","36","1","703"
"25","25","retrieval","new_object","50","Cup_Bathroom.jpg",".",".","37","1","679"
"25","25","retrieval","old_object","51","Shovel_Garden.jpg",".","1","37","0","852"
"25","25","retrieval","old_object","52","Hat_Feather.jpg",".","3","36","1","612"
"25","25","retrieval","old_object","53","FuzzyDice.jpg",".","3","36","1","576"
"25","25","retrieval","old_object","54","Stick_Stirring.jpg",".","1","36","1","691"
"25","25","retrieval","old_object","55","Pasta_Fettuccine.jpg",".","1","36","1","666"
"25","25","retrieval","old_object","56","HairClipper.jpg",".","3","36","1","724"
"25","25","retrieval","new_object","57","Bible.jpg",".",".","37","1","706"
"25","25","retrieval","old_object","58","Golf_Club.jpg",".","3","36","1","765"
"25","25","retrieval","new_object","59","Desk_White.jpg",".",".","37","1","921"
"25","25","retrieval","old_object","60","Lobster.jpg",".","1","36","1","674"
"25","25","retrieval","new_object","61","MemoPaperSpike.jpg",".",".","37","1","653"
"25","25","retrieval","old_object","62","Garlic_Clove.jpg",".","3","36","1","750"
"25","25","retrieval","new_object","63","SolderingWire.jpg",".",".","37","1","736"
"25","25","retrieval","new_object","64","GasStation.jpg",".",".","37","1","708"
"25","25","retrieval","old_object","65","Coin.jpg",".","1","37","0","857"
"25","25","retrieval","new_object","67","Cannon.jpg",".",".","37","1","797"
"25","25","retrieval","old_object","68","Pouch_Red.jpg",".","1","36","1","664"
"25","25","retrieval","new_object","69","WaterWell.jpg",".",".","37","1","703"
"25","25","retrieval","new_object","70","Toy_PandaPlushie.jpg",".",".","37","1","685"
"25","25","retrieval","new_object","71","Stool_Metal.jpg",".",".","36","0","796"
"25","25","retrieval","new_object","72","DogSled.jpg",".",".","37","1","627"
"25","25","retrieval","new_object","73","TortillaChip.jpg",".",".","37","1","649"
"25","25","retrieval","new_object","74","Milkshake_Strawberry.jpg",".",".","37","1","626"
"25","25","retrieval","new_object","75","SofaAntique.jpg",".",".","37","1","633"
"25","25","retrieval","new_object","76","Helmet_Football.jpg",".",".","37","1","746"
"25","25","retrieval","new_object","77","Jar_Honey.jpg",".",".","37","1","810"
"25","25","retrieval","old_object","78","Glove_Baseball.jpg",".","3","36","1","721"
"25","25","retrieval","old_object","79","Card_TwoSpade.jpg",".","3","36","1","608"
"25","25","retrieval","old_object","80","SnowmanDecor.jpg",".","3","36","1","611"
"25","25","retrieval","old_object","81","Walkman.jpg",".","1","36","1","918"
"25","25","retrieval","new_object","82","Can_Oblong.jpg",".",".","37","1","638"
"25","25","retrieval","new_object","83","Cymbals.jpg",".",".","37","1","787"
"25","25","retrieval","old_object","84","Seeder.jpg",".","3","36","1","845"
"25","25","retrieval","old_object","85","TelescopeSpacecraft.jpg",".","3","36","1","662"
"25","25","retrieval","old_object","86","Toy_Wooden rings.jpg",".","3","36","1","606"
"25","25","retrieval","new_object","87","Spear.jpg",".",".","37","1","691"
"25","25","retrieval","new_object","88","Van.jpg",".",".","37","1","608"
"25","25","retrieval","old_object","89","Mat_Bamboo.jpg",".","1","36","1","776"
"25","25","retrieval","new_object","90","Hedgehog.jpg",".",".","37","1","622"
"25","25","retrieval","old_object","91","WaterHeater.jpg",".","1","36","1","886"
"25","25","retrieval","old_object","92","Squash_Butternut.jpg",".","1","36","1","872"
"25","25","retrieval","new_object","93","Lens_Camera.jpg",".",".","37","1","665"
"25","25","retrieval","old_object","94","Ostrich.jpg",".","1","36","1","638"
"25","25","retrieval","new_object","95","Trash_Medical.jpg",".",".","37","1","595"
"25","25","retrieval","old_object","96","Piano_Upright.jpg",".","3","36","1","819"
"25","25","retrieval","new_object","97","Earring_Hoop.jpg",".",".","37","1","774"
"25","25","retrieval","old_object","98","IceCubes.jpg",".","3","36","1","758"
"25","25","retrieval","new_object","99","Weathervane.jpg",".",".","37","1","839"
"25","25","retrieval","new_object","100","DartBoard.jpg",".",".","37","1","758"
"25","25","retrieval","new_object","101","PumiceStone.jpg",".",".","36","0","742"
"25","25","retrieval","new_object","102","Toy_Truck.jpg",".",".","37","1","766"
"25","25","retrieval","new_object","103","Carabiner_Orange.jpg",".",".","36","0","822"
"25","25","retrieval","new_object","104","MetalDetector.jpg",".",".","37","1","745"
"25","25","retrieval","old_object","105","RadioactiveContainer.jpg",".","1","36","1","805"
"25","25","retrieval","old_object","106","Pear_Green.jpg",".","1","36","1","793"
"25","25","retrieval","new_object","107","Stove_WithOven.jpg",".",".","37","1","634"
"25","25","retrieval","old_object","108","Toy_Christmastree.jpg",".","1","36","1","852"
"25","25","retrieval","old_object","109","Card_Deck.jpg",".","3","37","0","859"
"25","25","retrieval","old_object","110","Stool_Camping.jpg",".","3","36","1","758"
"25","25","retrieval","new_object","111","Umbrella_Classic.jpg",".",".","37","1","728"
"25","25","retrieval","new_object","112","Cinnamonroll.jpg",".",".","37","1","679"
"25","25","retrieval","old_object","113","Cloud.jpg",".","3","36","1","776"
"25","25","retrieval","new_object","114","Cable_JumpStart.jpg",".",".","37","1","642"
"25","25","retrieval","old_object","115","TreeStump.jpg",".","1","36","1","782"
"25","25","retrieval","old_object","116","Sink_Kitchen.jpg",".","3","36","1","655"
"25","25","retrieval","old_object","117","NailFiles.jpg",".","3","36","1","751"
"25","25","retrieval","new_object","118","Carousel.jpg",".",".","37","1","619"
"25","25","retrieval","new_object","119","Barometer_Wood.jpg",".",".","37","1","765"
"25","25","retrieval","old_object","120","Sandwich_Ham.jpg",".","3","36","1","600"
"25","25","retrieval","new_object","121","Mask_HockeyGoalie.jpg",".",".","36","0","916"
"25","25","retrieval","new_object","122","PencilCase.jpg",".",".","37","1","749"
"25","25","retrieval","old_object","123","Neckrest.jpg",".","1","36","1","638"
"25","25","retrieval","old_object","124","Barrel_Wine.jpg",".","1","36","1","668"
"25","25","retrieval","new_object","125","Envelope_Manila.jpg",".",".","37","1","614"
"25","25","retrieval","old_object","126","Camera_Video.jpg",".","3","36","1","760"
"25","25","retrieval","old_object","127","ShoeLace_Flat.jpg",".","1","36","1","920"
"25","25","retrieval","new_object","128","Cake_Cheese.jpg",".",".","37","1","900"
"25","25","retrieval","new_object","129","Castle_Sand.jpg",".",".","37","1","721"
"25","25","retrieval","old_object","130","Dragonfly.jpg",".","1","37","0","942"
"25","25","retrieval","new_object","131","Bird_Duck.jpg",".",".","37","1","788"
"25","25","retrieval","new_object","133","Amp.jpg",".",".","36","0","874"
"25","25","retrieval","old_object","134","Fan_Straw.jpg",".","3","36","1","680"
"25","25","retrieval","new_object","135","Helmet_Motorcycle.jpg",".",".","37","1","713"
"25","25","retrieval","old_object","136","Heater_ElectricUpright.jpg",".","1","36","1","587"
"25","25","retrieval","new_object","137","Bottle_Beer.jpg",".",".","37","1","691"
"25","25","retrieval","new_object","138","Light_Halogen.jpg",".",".","37","1","733"
"25","25","retrieval","old_object","139","Bucket_WoodenLight.jpg",".","1","36","1","664"
"25","25","retrieval","old_object","140","Toy_DonkeyFur.jpg",".","1","36","1","745"
"25","25","retrieval","old_object","141","Celery.jpg",".","3","36","1","596"
"25","25","retrieval","old_object","142","VacuumHose.jpg",".","3","36","1","732"
"25","25","retrieval","old_object","143","DeepFryer.jpg",".","3","36","1","834"
"25","25","retrieval","old_object","144","Blueberry.jpg",".","1","36","1","726"
"25","25","retrieval","new_object","145","SolderingIron.jpg",".",".","37","1","843"
"25","25","retrieval","new_object","146","Clave.jpg",".",".","37","1","726"
"25","25","retrieval","old_object","147","Canister_Tea.jpg",".","1","36","1","657"
"25","25","retrieval","old_object","148","BrainSagittal.jpg",".","1","36","1","850"
"25","25","retrieval","new_object","149","Ship_Cruise.jpg",".",".","37","1","873"
"25","25","retrieval","old_object","150","Bicycle_Kids.jpg",".","3","36","1","842"
"25","25","retrieval","old_object","151","Stone_Spa.jpg",".","1","36","1","766"
"25","25","retrieval","new_object","152","Radish.jpg",".",".","37","1","670"
"25","25","retrieval","old_object","153","Shoes_Mould.jpg",".","1","37","0","802"
"25","25","retrieval","old_object","154","Level.jpg",".","3","36","1","903"
"25","25","retrieval","old_object","155","Airplane_Small.jpg",".","3","36","1","821"
"25","25","retrieval","old_object","156","Stick_IceHockey.jpg",".","3","36","1","972"
"25","25","retrieval","new_object","157","Candy_Toffee.jpg",".",".","37","1","715"
"25","25","retrieval","old_object","158","DonaldDuck_Toy.jpg",".","3","36","1","731"
"25","25","retrieval","new_object","159","Toolbox_BlackOpen.jpg",".",".","37","1","831"
"25","25","retrieval","old_object","160","Candleholder_LampShaped.jpg",".","3","36","1","653"
"25","25","retrieval","new_object","161","Briefcase_Silver.jpg",".",".","37","1","641"
"25","25","retrieval","old_object","162","Paddle_Ball.jpg",".","1","36","1","815"
"25","25","retrieval","old_object","163","Clamp_Screw.jpg",".","3","36","1","630"
"25","25","retrieval","new_object","164","LifeJacket_Orangejpg.jpg",".",".","37","1","599"
"25","25","retrieval","old_object","165","Paddle_Canoe.jpg",".","1","37","0","835"
"25","25","retrieval","new_object","166","Mailbox_Antique.jpg",".",".","37","1","735"
"25","25","retrieval","new_object","167","Sign_Construction.jpg",".",".","37","1","748"
"25","25","retrieval","new_object","168","Backpack_Suitcase.jpg",".",".","37","1","943"
"25","25","retrieval","old_object","169","Bagpipes.jpg",".","3","36","1","615"
"25","25","retrieval","old_object","170","Case_CD.jpg",".","1","36","1","801"
"25","25","retrieval","new_object","171","Barometer.jpg",".",".","37","1","622"
"25","25","retrieval","old_object","172","OperaGlasses.jpg",".","3","36","1","625"
"25","25","retrieval","old_object","173","LeafBlower.jpg",".","1","37","0","866"
"25","25","retrieval","new_object","174","Glass_Beer.jpg",".",".","37","1","742"
"25","25","retrieval","old_object","175","Pyramid.jpg",".","1","36","1","718"
"25","25","retrieval","old_object","176","CarLighter.jpg",".","3","36","1","751"
"25","25","retrieval","old_object","177","PumpBreast.jpg",".","3","36","1","610"
"25","25","retrieval","new_object","178","HoseNozzle.jpg",".",".","37","1","745"
"25","25","retrieval","old_object","179","Otoscope.jpg",".","1","37","0","609"
"25","25","retrieval","new_object","180","PagodaModel.jpg",".",".","37","1","673"
"25","25","retrieval","old_object","181","Dice.jpg",".","3","36","1","543"
"25","25","retrieval","new_object","182","SelfieStick.jpg",".",".","37","1","764"
"25","25","retrieval","old_object","183","Bowl_Chopsticks.jpg",".","3","36","1","583"
"25","25","retrieval","new_object","184","Case_Pencil.jpg",".",".","37","1","612"
"25","25","retrieval","new_object","185","Mug_Travel.jpg",".",".","37","1","640"
"25","25","retrieval","old_object","186","Desk_Office.jpg",".","1","36","1","706"
"25","25","retrieval","old_object","187","Jars_PetFood.jpg",".","1","36","1","604"
"25","25","retrieval","old_object","188","WaterCooler.jpg",".","1","36","1","704"
"25","25","retrieval","old_object","189","IroningBoard.jpg",".","3","36","1","762"
"25","25","retrieval","old_object","190","Nail.jpg",".","3","36","1","661"
"25","25","retrieval","new_object","191","Bowl_Glass.jpg",".",".","37","1","626"
"25","25","retrieval","new_object","192","Table_Saw.jpg",".",".","36","0","904"
"25","25","retrieval","new_object","193","Stone_AncientWriting.jpg",".",".","36","0","973"
"25","25","retrieval","old_object","194","Glasses_Sun.jpg",".","3","36","1","687"
"25","25","retrieval","new_object","195","BumperCar.jpg",".",".","37","1","740"
"25","25","retrieval","old_object","196","TowelRack_Metal.jpg",".","1","36","1","948"
"25","25","retrieval","old_object","197","Lynx.jpg",".","1","37","0","754"
"25","25","retrieval","old_object","199","Backhoe.jpg",".","1","36","1","1008"
"25","25","retrieval","new_object","200","Hanger.jpg",".",".","37","1","627"
"25","25","retrieval","new_object","201","Bandage_Adhesive.jpg",".",".","37","1","626"
"25","25","retrieval","new_object","202","Handbag.jpg",".",".","37","1","647"
"25","25","retrieval","old_object","203","RecorderInstrument.jpg",".","3","36","1","569"
"25","25","retrieval","old_object","204","ClothesDryingRack.jpg",".","3","37","0","694"
"25","25","retrieval","old_object","205","Tray_Metal.jpg",".","1","37","0","644"
"25","25","retrieval","new_object","206","AirPump.jpg",".",".","37","1","771"
"25","25","retrieval","new_object","207","Wire_ElectricalSingle.jpg",".",".","37","1","711"
"25","25","retrieval","old_object","208","SaladCaesar.jpg",".","3","36","1","610"
"25","25","retrieval","new_object","209","Thermometer_Room.jpg",".",".","36","0","785"
"25","25","retrieval","new_object","210","CarSuspension.jpg",".",".","37","1","628"
"25","25","retrieval","new_object","211","Toy_LambPlushie.jpg",".",".","37","1","880"
"25","25","retrieval","new_object","212","Chair_Office.jpg",".",".","37","1","701"
"25","25","retrieval","new_object","213","Brush_Light.jpg",".",".","37","1","717"
"25","25","retrieval","new_object","214","FireAlarm.jpg",".",".","37","1","833"
"25","25","retrieval","old_object","215","Toy_Dog.jpg",".","3","36","1","671"
"25","25","retrieval","old_object","216","PersonWooden.jpg",".","3","36","1","671"
"25","25","retrieval","new_object","217","Mask_Ski.jpg",".",".","37","1","581"
"25","25","retrieval","new_object","218","ProjectorScreen.jpg",".",".","37","1","620"
"25","25","retrieval","old_object","219","Lips_Wax.jpg",".","3","36","1","680"
"25","25","retrieval","new_object","220","Tube_Glue.jpg",".",".","37","1","730"
"25","25","retrieval","old_object","221","CDstack.jpg",".","3","37","0","641"
"25","25","retrieval","new_object","222","Bat_Cricket.jpg",".",".","37","1","804"
"25","25","retrieval","new_object","223","Bark.jpg",".",".","37","1","665"
"25","25","retrieval","old_object","224","Drum_Ramadan.jpg",".","3","36","1","658"
"25","25","retrieval","old_object","225","Toy_TrailerAirport.jpg",".","1","37","0","671"
"25","25","retrieval","old_object","226","Helicopter.jpg",".","1","37","0","785"
"25","25","retrieval","old_object","227","Balcony.jpg",".","1","37","0","748"
"25","25","retrieval","new_object","228","Bag_Diaper.jpg",".",".","37","1","787"
"25","25","retrieval","new_object","229","Bread_Loaf.jpg",".",".","37","1","739"
"25","25","retrieval","old_object","230","Toy_Taxi.jpg",".","3","36","1","700"
"25","25","retrieval","new_object","231","Statue_Horse.jpg",".",".","37","1","640"
"25","25","retrieval","old_object","232","Flashlight.jpg",".","1","37","0","681"
"25","25","retrieval","new_object","233","Tree_Fir.jpg",".",".","37","1","697"
"25","25","retrieval","old_object","234","Makeup_Bag.jpg",".","3","36","1","713"
"25","25","retrieval","new_object","235","Toy_Lizard.jpg",".",".","37","1","708"
"25","25","retrieval","new_object","236","Lollipop_Rainbow.jpg",".",".","37","1","603"
"25","25","retrieval","new_object","237","Television.jpg",".",".","37","1","687"
"25","25","retrieval","new_object","238","Box_FirstAid.jpg",".",".","37","1","703"
"25","25","retrieval","new_object","239","Clock_Interior.jpg",".",".","37","1","786"
"25","25","retrieval","new_object","240","LicensePlate.jpg",".",".","37","1","738"
"25","25","retrieval","old_object","241","Puffin.jpg",".","1","36","1","805"
"25","25","retrieval","new_object","242","DoubleBass.jpg",".",".","37","1","814"
"25","25","retrieval","old_object","243","Bus_DoubleDecker.jpg",".","1","37","0","729"
"25","25","retrieval","new_object","244","Hockey_Puck.jpg",".",".","37","1","844"
"25","25","retrieval","old_object","245","Computer_ExpansionCard.jpg",".","1","36","1","807"
"25","25","retrieval","old_object","246","Compressor.jpg",".","1","36","1","786"
"25","25","retrieval","old_object","247","Protractor.jpg",".","3","36","1","716"
"25","25","retrieval","old_object","248","MortarPestle_WhiteMarble.jpg",".","3","36","1","706"
"25","25","retrieval","old_object","249","Mitt_Blue.jpg",".","3","36","1","893"
"25","25","retrieval","new_object","250","Lantern_Chinese.jpg",".",".","37","1","647"
"25","25","retrieval","old_object","251","Pretzel_Sticks.jpg",".","3","36","1","639"
"25","25","retrieval","new_object","252","HairCurler.jpg",".",".","37","1","665"
"25","25","retrieval","new_object","253","Tube_Paint.jpg",".",".","37","1","723"
"25","25","retrieval","old_object","254","HairBand.jpg",".","1","37","0","773"
"25","25","retrieval","old_object","255","Toy_Bat.jpg",".","3","36","1","601"
"25","25","retrieval","new_object","256","Candy_Lozenge.jpg",".",".","37","1","657"
"25","25","retrieval","old_object","257","Car_Buggy.jpg",".","3","36","1","634"
"25","25","retrieval","new_object","258","SewingPin_Cushion.jpg",".",".","37","1","669"
"25","25","retrieval","old_object","259","ColoringSet.jpg",".","3","37","0","947"
"25","25","retrieval","new_object","260","Bleachers.jpg",".",".","37","1","747"
"25","25","retrieval","new_object","261","MechanicalSpring.jpg",".",".","37","1","706"
"25","25","retrieval","new_object","262","Arch_Triomphe.jpg",".",".","37","1","802"
"25","25","retrieval","old_object","263","Toy_BeadMaze.jpg",".","1","36","1","730"
"25","25","retrieval","new_object","265","Walker_Blue.jpg",".",".","37","1","789"
"25","25","retrieval","new_object","266","Bread_Roll.jpg",".",".","37","1","756"
"25","25","retrieval","old_object","267","SoapDish.jpg",".","3","36","1","736"
"25","25","retrieval","old_object","268","FlintIgniter.jpg",".","1","37","0","618"
"25","25","retrieval","old_object","269","Mask_VenetianCat.jpg",".","3","36","1","662"
"25","25","retrieval","new_object","270","Bucket_Halloween.jpg",".",".","37","1","741"
"25","25","retrieval","new_object","271","Fork_Regular.jpg",".",".","37","1","587"
"25","25","retrieval","old_object","272","Snorkle.jpg",".","3","37","0","635"
"25","25","retrieval","old_object","273","Dog_Bulldog.jpg",".","1","36","1","840"
"25","25","retrieval","old_object","274","WalkieTalkie_Yellow.jpg",".","1","36","1","687"
"25","25","retrieval","old_object","275","Dropper.jpg",".","3","36","1","790"
"25","25","retrieval","new_object","276","WateringCan_Antique.jpg",".",".","37","1","618"
"25","25","retrieval","old_object","277","Ruler_Wooden.jpg",".","1","37","0","616"
"25","25","retrieval","new_object","278","Bus_School.jpg",".",".","37","1","685"
"25","25","retrieval","new_object","279","PyramidWooden.jpg",".",".","37","1","894"
"25","25","retrieval","old_object","280","MatchBook.jpg",".","1","36","1","607"
"25","25","retrieval","new_object","281","Microwave.jpg",".",".","37","1","796"
"25","25","retrieval","new_object","282","Mailbox_Community.jpg",".",".","37","1","594"
"25","25","retrieval","new_object","283","Wontons.jpg",".",".","37","1","799"
"25","25","retrieval","new_object","284","Nuts_Pecan.jpg",".",".","37","1","815"
"25","25","retrieval","old_object","285","LintRemover.jpg",".","3","36","1","671"
"25","25","retrieval","new_object","286","Light_Studio.jpg",".",".","37","1","710"
"25","25","retrieval","new_object","287","Garlic_Whole.jpg",".",".","37","1","728"
"25","25","retrieval","new_object","288","Hat_Colonial.jpg",".",".","36","0","889"
"25","25","retrieval","old_object","289","Tape_Dispenser.jpg",".","1","37","0","662"
"25","25","retrieval","new_object","290","PulleyWooden.jpg",".",".","37","1","782"
"25","25","retrieval","new_object","291","Crab.jpg",".",".","37","1","659"
"25","25","retrieval","old_object","292","TowelRack_Brown.jpg",".","1","36","1","708"
"25","25","retrieval","old_object","293","PaperTowel_Brown.jpg",".","3","36","1","612"
"25","25","retrieval","new_object","294","Barbecue_Charcoal.jpg",".",".","37","1","678"
"25","25","retrieval","new_object","295","Hubcap.jpg",".",".","37","1","767"
"25","25","retrieval","new_object","296","IceCream_Popsicle.jpg",".",".","37","1","705"
"25","25","retrieval","new_object","297","Heelpad.jpg",".",".","37","1","770"
"25","25","retrieval","new_object","298","Gecko.jpg",".",".","37","1","720"
"25","25","retrieval","old_object","299","Scorpion.jpg",".","1","36","1","727"
"25","25","retrieval","old_object","300","Decoration_ChristmasWhite.jpg",".","1","36","1","682"
"25","25","retrieval","new_object","301","Lighter_Black.jpg",".",".","37","1","689"
"25","25","retrieval","new_object","302","AirCompressor.jpg",".",".","36","0","672"
"25","25","retrieval","old_object","303","Heater_Outdoor.jpg",".","1","36","1","848"
"25","25","retrieval","new_object","304","Aquarium.jpg",".",".","37","1","578"
"25","25","retrieval","new_object","305","MousepadAndMouse.jpg",".",".","37","1","659"
"25","25","retrieval","new_object","306","Cart_Janitor.jpg",".",".","37","1","698"
"25","25","retrieval","old_object","307","Cologne.jpg",".","3","36","1","596"
"25","25","retrieval","old_object","308","Bag_Toiletry.jpg",".","1","36","1","736"
"25","25","retrieval","new_object","309","Bread_Melon.jpg",".",".","37","1","737"
"25","25","retrieval","new_object","310","Toy_MerryGoRound.jpg",".",".","37","1","717"
"25","25","retrieval","new_object","311","Statue_Man.jpg",".",".","37","1","808"
"25","25","retrieval","new_object","312","Branch.jpg",".",".","37","1","917"
"25","25","retrieval","new_object","313","Oars.jpg",".",".","37","1","900"
"25","25","retrieval","new_object","314","Platter_Vegetables.jpg",".",".","37","1","831"
"25","25","retrieval","old_object","315","Match.jpg",".","1","36","1","718"
"25","25","retrieval","old_object","316","Boat_Colourful.jpg",".","1","36","1","630"
"25","25","retrieval","old_object","317","Ginger.jpg",".","3","36","1","698"
"25","25","retrieval","old_object","318","Toy_Firetruck.jpg",".","3","36","1","843"
"25","25","retrieval","new_object","319","Canister_Oil.jpg",".",".","37","1","652"
"25","25","retrieval","old_object","320","Notepad.jpg",".","1","36","1","910"
"25","25","retrieval","new_object","321","Light_Fixtures.jpg",".",".","37","1","694"
"25","25","retrieval","old_object","322","Speakers_Theatre.jpg",".","3","36","1","782"
"25","25","retrieval","old_object","323","EyeChart.jpg",".","3","36","1","703"
"25","25","retrieval","new_object","324","Walker_Blue.jpg",".",".","36","0","643"
"25","25","retrieval","old_object","325","ComputerKey_Escape.jpg",".","3","36","1","722"
"25","25","demographics_block","gender","1",".",".",".","male","1","38934"
"25","25","demographics_block","age","1",".",".",".","35","1","38934"
"25","25","demographics_block","education","1",".",".",".","16 years (Bachelor's degree)","1","38934"
"25","25","demographics_block","left_right_handed","2",".",".",".","Left","1","26269"
"25","25","demographics_block","raceoption1","2",".",".",".","","1","26269"
"25","25","demographics_block","raceoption2","2",".",".",".","","1","26269"
"25","25","demographics_block","raceoption3","2",".",".",".","","1","26269"
"25","25","demographics_block","raceoption4","2",".",".",".","","1","26269"
"25","25","demographics_block","raceoption5","2",".",".",".","","1","26269"
"25","25","demographics_block","raceoption6","2",".",".",".","","1","26269"
"25","25","demographics_block","raceoption7","2",".",".",".","6","1","26269"
"25","25","demographics_block","raceoption8","2",".",".",".","","1","26269"
"25","25","demographics_block","raceoption9","2",".",".",".","","1","26269"
"25","25","demographics_block","raceother","2",".",".",".","","1","26269"
"25","25","demographics_block","raceother","2",".",".",".","","1","26269"
"25","25","demographics_block","english_language","2",".",".",".","Yes","1","26269"
"25","25","demographics_block","other","2",".",".",".","","1","26269"
"25","25","demographics_block","eyesight","3",".",".",".","Yes","1","12505"
"25","25","demographics_block","colorblind","3",".",".",".","No","1","12505"
